"cond"	"subj"	"phase"	"blk"	"trial"	"stim"	"resp"	"rt"
1	5001	1	1	1	33	2	507
1	5001	1	1	2	14	3	453
1	5001	1	1	3	20	3	711
1	5001	1	1	4	42	3	781
1	5001	1	1	5	28	2	784
1	5001	1	1	6	9	1	757
1	5001	1	1	7	44	1	655
1	5001	1	1	8	5	3	1692
1	5001	1	2	1	10	3	668
1	5001	1	2	2	25	2	710
1	5001	1	2	3	2	2	387
1	5001	1	2	4	22	1	678
1	5001	1	2	5	40	3	584
1	5001	1	2	6	36	1	695
1	5001	1	2	7	46	3	492
1	5001	1	2	8	15	1	997
1	5001	1	3	1	19	2	970
1	5001	1	3	2	39	2	608
1	5001	1	3	3	16	2	735
1	5001	1	3	4	45	2	669
1	5001	1	3	5	6	2	1027
1	5001	1	3	6	32	2	1246
1	5001	1	3	7	8	3	612
1	5001	1	3	8	30	2	961
1	5001	1	4	1	21	1	801
1	5001	1	4	2	12	2	590
1	5001	1	4	3	3	1	516
1	5001	1	4	4	26	2	1045
1	5001	1	4	5	13	2	548
1	5001	1	4	6	43	2	769
1	5001	1	4	7	34	2	711
1	5001	1	4	8	37	2	607
1	5001	1	5	1	23	2	564
1	5001	1	5	2	7	2	592
1	5001	1	5	3	1	2	1047
1	5001	1	5	4	31	3	653
1	5001	1	5	5	48	3	628
1	5001	1	5	6	27	3	603
1	5001	1	5	7	38	1	714
1	5001	1	5	8	18	2	634
1	5001	1	6	1	29	1	656
1	5001	1	6	2	11	3	624
1	5001	1	6	3	24	2	578
1	5001	1	6	4	17	3	526
1	5001	1	6	5	35	2	784
1	5001	1	6	6	41	2	558
1	5001	1	6	7	4	1	584
1	5001	1	6	8	47	2	614
1	5001	1	7	1	31	3	620
1	5001	1	7	2	39	2	674
1	5001	1	7	3	15	1	526
1	5001	1	7	4	2	3	665
1	5001	1	7	5	46	3	750
1	5001	1	7	6	12	2	481
1	5001	1	7	7	25	3	750
1	5001	1	7	8	21	1	562
1	5001	1	8	1	14	2	1108
1	5001	1	8	2	4	1	584
1	5001	1	8	3	7	2	605
1	5001	1	8	4	33	3	619
1	5001	1	8	5	47	2	589
1	5001	1	8	6	29	1	654
1	5001	1	8	7	40	3	1076
1	5001	1	8	8	20	3	1026
1	5001	1	9	1	3	1	597
1	5001	1	9	2	45	2	573
1	5001	1	9	3	34	2	566
1	5001	1	9	4	37	1	682
1	5001	1	9	5	17	3	654
1	5001	1	9	6	23	3	1412
1	5001	1	9	7	11	3	692
1	5001	1	9	8	30	1	577
1	5001	1	10	1	5	3	721
1	5001	1	10	2	35	1	402
1	5001	1	10	3	41	3	602
1	5001	1	10	4	19	2	556
1	5001	1	10	5	48	3	631
1	5001	1	10	6	26	2	556
1	5001	1	10	7	10	1	628
1	5001	1	10	8	18	2	575
1	5001	1	11	1	22	1	635
1	5001	1	11	2	32	2	393
1	5001	1	11	3	9	1	409
1	5001	1	11	4	38	1	544
1	5001	1	11	5	44	1	809
1	5001	1	11	6	28	2	524
1	5001	1	11	7	13	2	629
1	5001	1	11	8	6	2	458
1	5001	1	12	1	8	3	622
1	5001	1	12	2	24	2	580
1	5001	1	12	3	27	3	760
1	5001	1	12	4	43	1	595
1	5001	1	12	5	36	1	613
1	5001	1	12	6	1	2	494
1	5001	1	12	7	16	1	588
1	5001	1	12	8	42	3	670
1	5001	2	1	1	0	2	5169
1	5001	2	1	2	0	3	4360
1	5001	2	1	3	0	2	4111
1	5001	2	1	4	0	2	4230
1	5001	2	1	5	0	2	3450
1	5001	2	1	6	0	3	3470
1	5001	2	1	7	0	2	3239
1	5001	2	1	8	0	3	3210
1	5001	2	1	9	0	3	2446
1	5001	2	1	10	0	2	4984
1	5001	2	1	11	0	1	4550
1	5001	2	1	12	0	3	1910
1	5001	2	1	13	0	2	3069
1	5001	2	1	14	0	3	2303
1	5001	2	1	15	0	3	1879
1	5001	2	1	16	0	1	2080
1	5001	2	1	17	0	2	2098
1	5001	2	1	18	0	2	3529
1	5001	2	1	19	0	2	2281
1	5001	2	1	20	0	3	1850
1	5001	2	1	21	0	1	3189
1	5001	2	1	22	0	3	1954
1	5001	2	1	23	0	2	2120
1	5001	2	1	24	0	2	1838
1	5001	2	1	25	0	1	4401
1	5001	2	1	26	0	3	2471
1	5001	2	1	27	0	2	3240
1	5001	2	1	28	0	2	2186
1	5001	2	1	29	0	3	1367
1	5001	2	1	30	0	2	1453
1	5002	1	1	1	10	2	1476
1	5002	1	1	2	40	1	1673
1	5002	1	1	3	36	2	612
1	5002	1	1	4	17	2	1689
1	5002	1	1	5	6	2	637
1	5002	1	1	6	23	3	532
1	5002	1	1	7	46	3	2082
1	5002	1	1	8	25	3	294
1	5002	1	2	1	4	2	792
1	5002	1	2	2	9	2	784
1	5002	1	2	3	26	2	110
1	5002	1	2	4	14	3	1652
1	5002	1	2	5	34	2	1107
1	5002	1	2	6	42	3	986
1	5002	1	2	7	19	2	1024
1	5002	1	2	8	43	1	856
1	5002	1	3	1	11	3	1275
1	5002	1	3	2	20	3	664
1	5002	1	3	3	32	2	716
1	5002	1	3	4	29	1	422
1	5002	1	3	5	1	2	612
1	5002	1	3	6	13	2	813
1	5002	1	3	7	39	2	630
1	5002	1	3	8	44	1	658
1	5002	1	4	1	3	1	1221
1	5002	1	4	2	28	2	729
1	5002	1	4	3	48	3	679
1	5002	1	4	4	24	2	796
1	5002	1	4	5	12	2	837
1	5002	1	4	6	41	2	583
1	5002	1	4	7	33	3	807
1	5002	1	4	8	18	2	454
1	5002	1	5	1	8	1	733
1	5002	1	5	2	31	3	989
1	5002	1	5	3	16	1	792
1	5002	1	5	4	45	2	506
1	5002	1	5	5	30	1	769
1	5002	1	5	6	21	1	749
1	5002	1	5	7	2	3	817
1	5002	1	5	8	38	1	570
1	5002	1	6	1	47	2	605
1	5002	1	6	2	37	1	270
1	5002	1	6	3	15	1	436
1	5002	1	6	4	7	2	475
1	5002	1	6	5	5	3	1652
1	5002	1	6	6	35	1	674
1	5002	1	6	7	27	3	541
1	5002	1	6	8	22	1	498
1	5002	1	7	1	11	3	613
1	5002	1	7	2	30	1	332
1	5002	1	7	3	39	2	457
1	5002	1	7	4	13	2	489
1	5002	1	7	5	45	1	618
1	5002	1	7	6	34	2	625
1	5002	1	7	7	24	2	612
1	5002	1	7	8	2	3	694
1	5002	1	8	1	25	3	639
1	5002	1	8	2	37	1	588
1	5002	1	8	3	12	2	713
1	5002	1	8	4	14	3	660
1	5002	1	8	5	32	2	644
1	5002	1	8	6	47	2	628
1	5002	1	8	7	22	1	637
1	5002	1	8	8	5	3	1459
1	5002	1	9	1	29	1	625
1	5002	1	9	2	43	1	592
1	5002	1	9	3	6	2	691
1	5002	1	9	4	18	2	1011
1	5002	1	9	5	42	3	593
1	5002	1	9	6	35	1	684
1	5002	1	9	7	7	2	677
1	5002	1	9	8	20	3	1006
1	5002	1	10	1	48	3	864
1	5002	1	10	2	23	3	1595
1	5002	1	10	3	33	3	1208
1	5002	1	10	4	28	2	356
1	5002	1	10	5	10	1	739
1	5002	1	10	6	3	1	601
1	5002	1	10	7	41	2	674
1	5002	1	10	8	15	1	636
1	5002	1	11	1	26	2	732
1	5002	1	11	2	40	3	524
1	5002	1	11	3	31	3	391
1	5002	1	11	4	46	3	1200
1	5002	1	11	5	1	2	467
1	5002	1	11	6	9	1	596
1	5002	1	11	7	21	1	596
1	5002	1	11	8	17	3	909
1	5002	1	12	1	38	1	1004
1	5002	1	12	2	4	1	741
1	5002	1	12	3	44	3	816
1	5002	1	12	4	36	1	516
1	5002	1	12	5	16	1	537
1	5002	1	12	6	8	3	656
1	5002	1	12	7	27	3	769
1	5002	1	12	8	19	2	725
1	5002	2	1	1	0	3	8854
1	5002	2	1	2	0	2	6954
1	5002	2	1	3	0	2	5090
1	5002	2	1	4	0	2	8531
1	5002	2	1	5	0	3	5869
1	5002	2	1	6	0	1	3712
1	5002	2	1	7	0	2	3409
1	5002	2	1	8	0	2	3852
1	5002	2	1	9	0	1	3856
1	5002	2	1	10	0	2	2515
1	5002	2	1	11	0	1	3923
1	5002	2	1	12	0	2	1971
1	5002	2	1	13	0	1	4504
1	5002	2	1	14	0	2	1897
1	5002	2	1	15	0	1	2417
1	5002	2	1	16	0	2	3613
1	5002	2	1	17	0	2	3282
1	5002	2	1	18	0	1	8074
1	5002	2	1	19	0	2	5534
1	5002	2	1	20	0	2	2990
1	5002	2	1	21	0	1	4355
1	5002	2	1	22	0	2	2346
1	5002	2	1	23	0	2	7065
1	5002	2	1	24	0	1	3852
1	5002	2	1	25	0	2	4967
1	5002	2	1	26	0	2	2630
1	5002	2	1	27	0	2	7800
1	5002	2	1	28	0	3	3192
1	5002	2	1	29	0	1	1485
1	5002	2	1	30	0	2	1862
1	5003	1	1	1	21	2	126
1	5003	1	1	2	3	1	1535
1	5003	1	1	3	43	1	1606
1	5003	1	1	4	42	3	429
1	5003	1	1	5	17	1	6223
1	5003	1	1	6	12	2	838
1	5003	1	1	7	28	2	1861
1	5003	1	1	8	36	2	2204
1	5003	1	2	1	47	2	381
1	5003	1	2	2	37	1	324
1	5003	1	2	3	6	2	748
1	5003	1	2	4	14	3	1393
1	5003	1	2	5	25	3	819
1	5003	1	2	6	10	1	277
1	5003	1	2	7	35	1	1858
1	5003	1	2	8	24	2	612
1	5003	1	3	1	15	1	178
1	5003	1	3	2	4	1	231
1	5003	1	3	3	7	2	253
1	5003	1	3	4	45	2	446
1	5003	1	3	5	22	1	209
1	5003	1	3	6	32	2	354
1	5003	1	3	7	39	2	831
1	5003	1	3	8	30	2	813
1	5003	1	4	1	18	2	240
1	5003	1	4	2	9	2	896
1	5003	1	4	3	19	2	337
1	5003	1	4	4	33	3	1454
1	5003	1	4	5	44	1	616
1	5003	1	4	6	38	1	738
1	5003	1	4	7	2	3	638
1	5003	1	4	8	27	3	299
1	5003	1	5	1	13	2	37
1	5003	1	5	2	46	3	496
1	5003	1	5	3	31	3	293
1	5003	1	5	4	11	3	341
1	5003	1	5	5	5	3	449
1	5003	1	5	6	23	3	338
1	5003	1	5	7	40	3	570
1	5003	1	5	8	29	1	277
1	5003	1	6	1	20	3	1625
1	5003	1	6	2	48	3	282
1	5003	1	6	3	16	1	990
1	5003	1	6	4	34	2	1153
1	5003	1	6	5	26	2	438
1	5003	1	6	6	41	2	284
1	5003	1	6	7	1	2	249
1	5003	1	6	8	8	3	476
1	5003	1	7	1	42	3	365
1	5003	1	7	2	36	1	372
1	5003	1	7	3	17	1	19
1	5003	1	7	4	45	2	571
1	5003	1	7	5	29	1	799
1	5003	1	7	6	3	1	849
1	5003	1	7	7	24	2	293
1	5003	1	7	8	7	2	376
1	5003	1	8	1	35	1	448
1	5003	1	8	2	30	1	610
1	5003	1	8	3	14	3	251
1	5003	1	8	4	12	2	368
1	5003	1	8	5	37	1	641
1	5003	1	8	6	20	3	483
1	5003	1	8	7	47	2	290
1	5003	1	8	8	2	3	175
1	5003	1	9	1	11	3	148
1	5003	1	9	2	16	1	519
1	5003	1	9	3	4	1	643
1	5003	1	9	4	31	2	2347
1	5003	1	9	5	22	1	1724
1	5003	1	9	6	46	3	446
1	5003	1	9	7	28	2	574
1	5003	1	9	8	39	2	1087
1	5003	1	10	1	25	3	93
1	5003	1	10	2	34	2	534
1	5003	1	10	3	48	3	372
1	5003	1	10	4	8	3	495
1	5003	1	10	5	6	2	820
1	5003	1	10	6	21	1	807
1	5003	1	10	7	40	3	407
1	5003	1	10	8	15	1	594
1	5003	1	11	1	38	1	438
1	5003	1	11	2	27	3	351
1	5003	1	11	3	5	3	1210
1	5003	1	11	4	44	1	539
1	5003	1	11	5	23	3	272
1	5003	1	11	6	18	2	871
1	5003	1	11	7	9	1	444
1	5003	1	11	8	32	2	153
1	5003	1	12	1	1	2	193
1	5003	1	12	2	43	1	250
1	5003	1	12	3	13	2	281
1	5003	1	12	4	19	2	359
1	5003	1	12	5	41	2	532
1	5003	1	12	6	10	1	489
1	5003	1	12	7	26	2	199
1	5003	1	12	8	33	3	763
1	5003	2	1	1	0	2	11833
1	5003	2	1	2	0	2	4512
1	5003	2	1	3	0	1	5665
1	5003	2	1	4	0	2	6076
1	5003	2	1	5	0	3	8343
1	5003	2	1	6	0	3	2904
1	5003	2	1	7	0	2	5136
1	5003	2	1	8	0	3	6424
1	5003	2	1	9	0	2	4949
1	5003	2	1	10	0	1	4100
1	5003	2	1	11	0	3	3750
1	5003	2	1	12	0	3	2605
1	5003	2	1	13	0	2	2145
1	5003	2	1	14	0	3	4471
1	5003	2	1	15	0	2	2970
1	5003	2	1	16	0	2	4903
1	5003	2	1	17	0	2	7104
1	5003	2	1	18	0	3	4530
1	5003	2	1	19	0	2	2106
1	5003	2	1	20	0	2	1418
1	5003	2	1	21	0	2	4717
1	5003	2	1	22	0	3	11109
1	5003	2	1	23	0	3	2561
1	5003	2	1	24	0	3	3016
1	5003	2	1	25	0	4	3731
1	5003	2	1	26	0	3	2027
1	5003	2	1	27	0	3	3918
1	5003	2	1	28	0	3	3630
1	5003	2	1	29	0	2	2274
1	5003	2	1	30	0	2	1676
1	5004	1	1	1	7	2	1569
1	5004	1	1	2	40	3	1832
1	5004	1	1	3	17	3	434
1	5004	1	1	4	47	2	435
1	5004	1	1	5	32	2	366
1	5004	1	1	6	21	1	1227
1	5004	1	1	7	26	2	485
1	5004	1	1	8	3	3	4764
1	5004	1	2	1	34	2	283
1	5004	1	2	2	13	2	284
1	5004	1	2	3	1	2	270
1	5004	1	2	4	23	3	945
1	5004	1	2	5	38	1	1133
1	5004	1	2	6	30	1	321
1	5004	1	2	7	8	3	318
1	5004	1	2	8	46	3	587
1	5004	1	3	1	37	1	495
1	5004	1	3	2	48	1	1635
1	5004	1	3	3	14	2	252
1	5004	1	3	4	20	1	293
1	5004	1	3	5	4	1	724
1	5004	1	3	6	33	3	248
1	5004	1	3	7	25	3	296
1	5004	1	3	8	11	3	352
1	5004	1	4	1	39	2	350
1	5004	1	4	2	6	2	316
1	5004	1	4	3	27	3	382
1	5004	1	4	4	18	2	214
1	5004	1	4	5	10	1	972
1	5004	1	4	6	43	1	313
1	5004	1	4	7	19	2	414
1	5004	1	4	8	35	1	388
1	5004	1	5	1	9	2	774
1	5004	1	5	2	22	1	306
1	5004	1	5	3	28	2	577
1	5004	1	5	4	44	1	579
1	5004	1	5	5	42	3	371
1	5004	1	5	6	31	3	363
1	5004	1	5	7	2	3	766
1	5004	1	5	8	16	1	379
1	5004	1	6	1	36	1	279
1	5004	1	6	2	41	2	278
1	5004	1	6	3	29	1	253
1	5004	1	6	4	45	2	285
1	5004	1	6	5	12	2	634
1	5004	1	6	6	15	1	287
1	5004	1	6	7	5	3	574
1	5004	1	6	8	24	2	462
1	5004	1	7	1	1	2	354
1	5004	1	7	2	16	1	1114
1	5004	1	7	3	40	3	356
1	5004	1	7	4	11	3	312
1	5004	1	7	5	35	1	295
1	5004	1	7	6	48	3	289
1	5004	1	7	7	30	1	328
1	5004	1	7	8	19	2	363
1	5004	1	8	1	7	2	405
1	5004	1	8	2	26	2	379
1	5004	1	8	3	38	1	401
1	5004	1	8	4	32	2	436
1	5004	1	8	5	44	1	300
1	5004	1	8	6	14	3	634
1	5004	1	8	7	24	2	230
1	5004	1	8	8	6	2	485
1	5004	1	9	1	10	1	398
1	5004	1	9	2	27	3	288
1	5004	1	9	3	36	1	523
1	5004	1	9	4	23	3	362
1	5004	1	9	5	43	1	255
1	5004	1	9	6	3	3	637
1	5004	1	9	7	39	2	426
1	5004	1	9	8	13	2	1080
1	5004	1	10	1	8	3	330
1	5004	1	10	2	4	1	255
1	5004	1	10	3	17	3	543
1	5004	1	10	4	46	3	267
1	5004	1	10	5	33	3	696
1	5004	1	10	6	21	1	380
1	5004	1	10	7	29	1	485
1	5004	1	10	8	42	3	253
1	5004	1	11	1	22	1	820
1	5004	1	11	2	12	2	229
1	5004	1	11	3	5	3	302
1	5004	1	11	4	25	3	272
1	5004	1	11	5	47	2	268
1	5004	1	11	6	31	3	315
1	5004	1	11	7	15	1	528
1	5004	1	11	8	37	1	340
1	5004	1	12	1	2	3	438
1	5004	1	12	2	45	2	354
1	5004	1	12	3	34	2	439
1	5004	1	12	4	18	2	433
1	5004	1	12	5	20	3	607
1	5004	1	12	6	9	1	486
1	5004	1	12	7	28	2	443
1	5004	1	12	8	41	2	385
1	5004	2	1	1	0	3	6428
1	5004	2	1	2	0	3	4408
1	5004	2	1	3	0	2	3285
1	5004	2	1	4	0	3	3391
1	5004	2	1	5	0	2	5139
1	5004	2	1	6	0	2	3411
1	5004	2	1	7	0	3	2575
1	5004	2	1	8	0	3	2861
1	5004	2	1	9	0	3	3095
1	5004	2	1	10	0	3	3927
1	5004	2	1	11	0	3	4647
1	5004	2	1	12	0	3	3427
1	5004	2	1	13	0	2	4861
1	5004	2	1	14	0	2	1176
1	5004	2	1	15	0	1	2173
1	5004	2	1	16	0	1	1834
1	5004	2	1	17	0	2	3213
1	5004	2	1	18	0	2	3881
1	5004	2	1	19	0	2	1819
1	5004	2	1	20	0	3	1374
1	5004	2	1	21	0	1	3147
1	5004	2	1	22	0	3	2058
1	5004	2	1	23	0	2	2388
1	5004	2	1	24	0	1	1440
1	5004	2	1	25	0	2	7146
1	5004	2	1	26	0	2	3099
1	5004	2	1	27	0	3	4091
1	5004	2	1	28	0	2	2636
1	5004	2	1	29	0	3	2535
1	5004	2	1	30	0	2	1783
1	5008	1	1	1	44	3	1528
1	5008	1	1	2	13	3	539
1	5008	1	1	3	33	2	419
1	5008	1	1	4	30	1	741
1	5008	1	1	5	40	3	956
1	5008	1	1	6	6	1	1476
1	5008	1	1	7	8	1	1184
1	5008	1	1	8	21	1	2172
1	5008	1	2	1	34	2	969
1	5008	1	2	2	25	3	199
1	5008	1	2	3	11	3	1471
1	5008	1	2	4	18	2	423
1	5008	1	2	5	5	3	301
1	5008	1	2	6	39	2	1618
1	5008	1	2	7	19	2	1810
1	5008	1	2	8	45	2	1581
1	5008	1	3	1	27	3	831
1	5008	1	3	2	23	3	562
1	5008	1	3	3	48	3	728
1	5008	1	3	4	1	3	985
1	5008	1	3	5	35	1	424
1	5008	1	3	6	15	3	897
1	5008	1	3	7	10	1	3064
1	5008	1	3	8	41	1	1697
1	5008	1	4	1	43	2	1218
1	5008	1	4	2	36	1	349
1	5008	1	4	3	42	3	622
1	5008	1	4	4	2	2	451
1	5008	1	4	5	16	2	760
1	5008	1	4	6	12	2	1471
1	5008	1	4	7	24	2	332
1	5008	1	4	8	26	1	1700
1	5008	1	5	1	7	2	1225
1	5008	1	5	2	29	1	1669
1	5008	1	5	3	14	3	944
1	5008	1	5	4	32	2	780
1	5008	1	5	5	22	1	1162
1	5008	1	5	6	4	1	554
1	5008	1	5	7	37	1	463
1	5008	1	5	8	47	2	427
1	5008	1	6	1	3	1	710
1	5008	1	6	2	31	3	980
1	5008	1	6	3	38	1	171
1	5008	1	6	4	9	2	871
1	5008	1	6	5	46	3	161
1	5008	1	6	6	17	1	574
1	5008	1	6	7	20	3	607
1	5008	1	6	8	28	2	958
1	5008	1	7	1	4	2	651
1	5008	1	7	2	18	1	89
1	5008	1	7	3	26	2	359
1	5008	1	7	4	22	1	850
1	5008	1	7	5	43	1	693
1	5008	1	7	6	37	1	459
1	5008	1	7	7	7	2	1237
1	5008	1	7	8	34	2	1215
1	5008	1	8	1	44	1	562
1	5008	1	8	2	14	3	312
1	5008	1	8	3	2	2	1082
1	5008	1	8	4	29	1	431
1	5008	1	8	5	42	3	455
1	5008	1	8	6	12	2	903
1	5008	1	8	7	32	1	346
1	5008	1	8	8	19	1	454
1	5008	1	9	1	36	1	280
1	5008	1	9	2	39	2	252
1	5008	1	9	3	13	1	316
1	5008	1	9	4	48	3	306
1	5008	1	9	5	6	2	944
1	5008	1	9	6	21	1	471
1	5008	1	9	7	28	2	1337
1	5008	1	9	8	8	1	452
1	5008	1	10	1	15	1	322
1	5008	1	10	2	47	3	347
1	5008	1	10	3	11	2	327
1	5008	1	10	4	5	2	684
1	5008	1	10	5	38	1	276
1	5008	1	10	6	31	3	500
1	5008	1	10	7	25	1	784
1	5008	1	10	8	24	3	337
1	5008	1	11	1	40	3	404
1	5008	1	11	2	16	1	546
1	5008	1	11	3	23	3	303
1	5008	1	11	4	33	3	735
1	5008	1	11	5	3	1	622
1	5008	1	11	6	30	1	779
1	5008	1	11	7	10	2	1354
1	5008	1	11	8	46	3	510
1	5008	1	12	1	27	3	282
1	5008	1	12	2	17	1	267
1	5008	1	12	3	1	2	816
1	5008	1	12	4	41	3	1698
1	5008	1	12	5	9	2	1170
1	5008	1	12	6	45	1	482
1	5008	1	12	7	35	3	352
1	5008	1	12	8	20	1	323
1	5008	2	1	1	0	2	6529
1	5008	2	1	2	0	3	3370
1	5008	2	1	3	0	1	3209
1	5008	2	1	4	0	2	3756
1	5008	2	1	5	0	2	2394
1	5008	2	1	6	0	2	2391
1	5008	2	1	7	0	1	2212
1	5008	2	1	8	0	2	1864
1	5008	2	1	9	0	2	2529
1	5008	2	1	10	0	3	3032
1	5008	2	1	11	0	2	4323
1	5008	2	1	12	0	1	2011
1	5008	2	1	13	0	1	3031
1	5008	2	1	14	0	2	2787
1	5008	2	1	15	0	3	3287
1	5008	2	1	16	0	2	3296
1	5008	2	1	17	0	3	2209
1	5008	2	1	18	0	2	4101
1	5008	2	1	19	0	3	2023
1	5008	2	1	20	0	2	2065
1	5008	2	1	21	0	3	3035
1	5008	2	1	22	0	3	1590
1	5008	2	1	23	0	2	3443
1	5008	2	1	24	0	1	2438
1	5008	2	1	25	0	1	3208
1	5008	2	1	26	0	2	4684
1	5008	2	1	27	0	1	2487
1	5008	2	1	28	0	2	2920
1	5008	2	1	29	0	1	1648
1	5008	2	1	30	0	1	1706
1	5009	1	1	1	8	3	1130
1	5009	1	1	2	31	2	2748
1	5009	1	1	3	29	1	511
1	5009	1	1	4	17	3	1406
1	5009	1	1	5	41	2	1048
1	5009	1	1	6	44	1	845
1	5009	1	1	7	2	2	278
1	5009	1	1	8	20	3	882
1	5009	1	2	1	4	1	637
1	5009	1	2	2	7	2	413
1	5009	1	2	3	43	2	908
1	5009	1	2	4	39	2	805
1	5009	1	2	5	18	2	561
1	5009	1	2	6	22	1	644
1	5009	1	2	7	27	3	878
1	5009	1	2	8	32	2	766
1	5009	1	3	1	23	3	288
1	5009	1	3	2	35	2	712
1	5009	1	3	3	5	3	1026
1	5009	1	3	4	47	3	942
1	5009	1	3	5	42	3	460
1	5009	1	3	6	14	2	674
1	5009	1	3	7	9	2	829
1	5009	1	3	8	30	1	614
1	5009	1	4	1	24	2	292
1	5009	1	4	2	10	1	125
1	5009	1	4	3	40	2	2282
1	5009	1	4	4	34	2	478
1	5009	1	4	5	15	1	776
1	5009	1	4	6	46	3	707
1	5009	1	4	7	6	2	574
1	5009	1	4	8	26	3	595
1	5009	1	5	1	37	1	367
1	5009	1	5	2	21	1	364
1	5009	1	5	3	13	2	216
1	5009	1	5	4	12	2	140
1	5009	1	5	5	33	1	952
1	5009	1	5	6	28	2	497
1	5009	1	5	7	1	3	943
1	5009	1	5	8	48	3	323
1	5009	1	6	1	19	2	940
1	5009	1	6	2	38	3	945
1	5009	1	6	3	25	3	361
1	5009	1	6	4	3	3	1059
1	5009	1	6	5	36	1	787
1	5009	1	6	6	16	1	536
1	5009	1	6	7	11	3	915
1	5009	1	6	8	45	2	553
1	5009	1	7	1	1	3	526
1	5009	1	7	2	12	2	1077
1	5009	1	7	3	20	3	325
1	5009	1	7	4	31	3	531
1	5009	1	7	5	37	2	519
1	5009	1	7	6	18	2	743
1	5009	1	7	7	43	1	860
1	5009	1	7	8	28	2	1284
1	5009	1	8	1	48	3	856
1	5009	1	8	2	23	2	1262
1	5009	1	8	3	3	1	555
1	5009	1	8	4	27	3	585
1	5009	1	8	5	13	2	322
1	5009	1	8	6	33	3	629
1	5009	1	8	7	7	2	661
1	5009	1	8	8	42	3	317
1	5009	1	9	1	22	1	930
1	5009	1	9	2	14	3	250
1	5009	1	9	3	29	3	818
1	5009	1	9	4	36	2	840
1	5009	1	9	5	39	2	579
1	5009	1	9	6	6	2	529
1	5009	1	9	7	9	1	391
1	5009	1	9	8	46	3	510
1	5009	1	10	1	41	2	478
1	5009	1	10	2	35	3	505
1	5009	1	10	3	21	1	542
1	5009	1	10	4	26	2	320
1	5009	1	10	5	17	3	756
1	5009	1	10	6	8	3	223
1	5009	1	10	7	2	3	20
1	5009	1	10	8	45	2	871
1	5009	1	11	1	4	1	778
1	5009	1	11	2	40	3	726
1	5009	1	11	3	11	3	550
1	5009	1	11	4	30	2	848
1	5009	1	11	5	32	2	434
1	5009	1	11	6	47	2	467
1	5009	1	11	7	24	2	477
1	5009	1	11	8	15	1	448
1	5009	1	12	1	10	1	918
1	5009	1	12	2	38	1	790
1	5009	1	12	3	5	3	338
1	5009	1	12	4	16	1	527
1	5009	1	12	5	19	2	689
1	5009	1	12	6	44	1	545
1	5009	1	12	7	25	3	656
1	5009	1	12	8	34	1	494
1	5009	2	1	1	0	3	8600
1	5009	2	1	2	0	1	6887
1	5009	2	1	3	0	3	5024
1	5009	2	1	4	0	1	4149
1	5009	2	1	5	0	3	2788
1	5009	2	1	6	0	2	3009
1	5009	2	1	7	0	3	3518
1	5009	2	1	8	0	1	2893
1	5009	2	1	9	0	2	2422
1	5009	2	1	10	0	4	2097
1	5009	2	1	11	0	3	5010
1	5009	2	1	12	0	4	4462
1	5009	2	1	13	0	4	2929
1	5009	2	1	14	0	3	2449
1	5009	2	1	15	0	4	3356
1	5009	2	1	16	0	1	3698
1	5009	2	1	17	0	1	2650
1	5009	2	1	18	0	2	3533
1	5009	2	1	19	0	2	3413
1	5009	2	1	20	0	1	3274
1	5009	2	1	21	0	2	4458
1	5009	2	1	22	0	4	4253
1	5009	2	1	23	0	2	4800
1	5009	2	1	24	0	3	2174
1	5009	2	1	25	0	1	4506
1	5009	2	1	26	0	2	4987
1	5009	2	1	27	0	1	3433
1	5009	2	1	28	0	2	3157
1	5009	2	1	29	0	2	1867
1	5009	2	1	30	0	4	1876
1	5010	1	1	1	17	1	2821
1	5010	1	1	2	39	2	1440
1	5010	1	1	3	46	3	723
1	5010	1	1	4	22	3	1419
1	5010	1	1	5	26	2	880
1	5010	1	1	6	7	1	2858
1	5010	1	1	7	33	1	1200
1	5010	1	1	8	4	2	1181
1	5010	1	2	1	21	2	937
1	5010	1	2	2	44	1	900
1	5010	1	2	3	9	2	1199
1	5010	1	2	4	6	3	2223
1	5010	1	2	5	29	1	1034
1	5010	1	2	6	34	2	720
1	5010	1	2	7	38	1	913
1	5010	1	2	8	16	2	788
1	5010	1	3	1	43	1	1677
1	5010	1	3	2	32	2	501
1	5010	1	3	3	19	1	1398
1	5010	1	3	4	27	2	2345
1	5010	1	3	5	13	1	1640
1	5010	1	3	6	10	1	4834
1	5010	1	3	7	3	1	500
1	5010	1	3	8	37	1	2168
1	5010	1	4	1	35	1	1692
1	5010	1	4	2	15	1	806
1	5010	1	4	3	11	2	972
1	5010	1	4	4	28	1	940
1	5010	1	4	5	42	3	1724
1	5010	1	4	6	45	2	516
1	5010	1	4	7	1	2	1428
1	5010	1	4	8	23	3	1354
1	5010	1	5	1	47	2	925
1	5010	1	5	2	18	2	2004
1	5010	1	5	3	5	3	603
1	5010	1	5	4	41	2	842
1	5010	1	5	5	31	2	1268
1	5010	1	5	6	12	2	650
1	5010	1	5	7	20	1	1904
1	5010	1	5	8	30	2	977
1	5010	1	6	1	14	3	2382
1	5010	1	6	2	25	3	2523
1	5010	1	6	3	24	2	1451
1	5010	1	6	4	8	3	606
1	5010	1	6	5	40	2	1314
1	5010	1	6	6	2	2	1047
1	5010	1	6	7	48	2	2119
1	5010	1	6	8	36	3	991
1	5010	1	7	1	38	3	1186
1	5010	1	7	2	13	2	916
1	5010	1	7	3	27	2	1335
1	5010	1	7	4	6	2	890
1	5010	1	7	5	21	1	718
1	5010	1	7	6	44	1	1315
1	5010	1	7	7	34	2	607
1	5010	1	7	8	9	1	614
1	5010	1	8	1	24	2	509
1	5010	1	8	2	37	1	1043
1	5010	1	8	3	35	1	814
1	5010	1	8	4	2	3	971
1	5010	1	8	5	11	2	2755
1	5010	1	8	6	45	2	549
1	5010	1	8	7	28	1	1176
1	5010	1	8	8	16	2	859
1	5010	1	9	1	3	1	397
1	5010	1	9	2	31	1	1119
1	5010	1	9	3	12	2	1829
1	5010	1	9	4	41	3	1934
1	5010	1	9	5	18	2	793
1	5010	1	9	6	47	2	639
1	5010	1	9	7	26	2	414
1	5010	1	9	8	19	2	548
1	5010	1	10	1	4	1	416
1	5010	1	10	2	8	3	832
1	5010	1	10	3	22	1	1227
1	5010	1	10	4	33	3	1685
1	5010	1	10	5	30	1	2025
1	5010	1	10	6	14	3	2361
1	5010	1	10	7	46	3	776
1	5010	1	10	8	42	2	1065
1	5010	1	11	1	15	1	442
1	5010	1	11	2	10	1	749
1	5010	1	11	3	40	3	2433
1	5010	1	11	4	1	2	1214
1	5010	1	11	5	36	1	1231
1	5010	1	11	6	43	2	1332
1	5010	1	11	7	29	3	2129
1	5010	1	11	8	20	3	742
1	5010	1	12	1	5	3	521
1	5010	1	12	2	17	3	1334
1	5010	1	12	3	25	3	1382
1	5010	1	12	4	48	3	644
1	5010	1	12	5	23	2	747
1	5010	1	12	6	32	2	1357
1	5010	1	12	7	39	2	631
1	5010	1	12	8	7	2	574
1	5010	2	1	1	0	3	13636
1	5010	2	1	2	0	2	5499
1	5010	2	1	3	0	1	4638
1	5010	2	1	4	0	2	5217
1	5010	2	1	5	0	2	2757
1	5010	2	1	6	0	3	3356
1	5010	2	1	7	0	4	2033
1	5010	2	1	8	0	4	2373
1	5010	2	1	9	0	2	3602
1	5010	2	1	10	0	4	3255
1	5010	2	1	11	0	1	2880
1	5010	2	1	12	0	3	4922
1	5010	2	1	13	0	4	2395
1	5010	2	1	14	0	2	1830
1	5010	2	1	15	0	2	3609
1	5010	2	1	16	0	1	2614
1	5010	2	1	17	0	1	3521
1	5010	2	1	18	0	2	3265
1	5010	2	1	19	0	3	2812
1	5010	2	1	20	0	3	1816
1	5010	2	1	21	0	1	1852
1	5010	2	1	22	0	1	1981
1	5010	2	1	23	0	3	2987
1	5010	2	1	24	0	1	1928
1	5010	2	1	25	0	1	6486
1	5010	2	1	26	0	4	2217
1	5010	2	1	27	0	3	3149
1	5010	2	1	28	0	1	1995
1	5010	2	1	29	0	2	1376
1	5010	2	1	30	0	4	2268
1	5011	1	1	1	15	2	3499
1	5011	1	1	2	9	1	1648
1	5011	1	1	3	20	3	889
1	5011	1	1	4	28	1	2077
1	5011	1	1	5	34	3	949
1	5011	1	1	6	42	3	883
1	5011	1	1	7	47	2	1005
1	5011	1	1	8	4	2	1017
1	5011	1	2	1	17	3	893
1	5011	1	2	2	29	2	1047
1	5011	1	2	3	35	1	813
1	5011	1	2	4	11	3	831
1	5011	1	2	5	22	1	1416
1	5011	1	2	6	2	3	411
1	5011	1	2	7	46	3	741
1	5011	1	2	8	40	3	419
1	5011	1	3	1	45	2	512
1	5011	1	3	2	12	2	1051
1	5011	1	3	3	36	3	1440
1	5011	1	3	4	38	3	864
1	5011	1	3	5	21	2	871
1	5011	1	3	6	6	1	668
1	5011	1	3	7	16	2	393
1	5011	1	3	8	25	3	384
1	5011	1	4	1	37	1	1809
1	5011	1	4	2	13	3	319
1	5011	1	4	3	30	1	297
1	5011	1	4	4	48	3	278
1	5011	1	4	5	1	3	578
1	5011	1	4	6	33	3	266
1	5011	1	4	7	7	1	319
1	5011	1	4	8	19	2	923
1	5011	1	5	1	14	2	1068
1	5011	1	5	2	10	3	4340
1	5011	1	5	3	43	1	746
1	5011	1	5	4	23	2	711
1	5011	1	5	5	26	3	466
1	5011	1	5	6	5	1	210
1	5011	1	5	7	41	2	393
1	5011	1	5	8	31	1	609
1	5011	1	6	1	3	1	321
1	5011	1	6	2	24	3	883
1	5011	1	6	3	44	3	1066
1	5011	1	6	4	18	1	318
1	5011	1	6	5	32	1	665
1	5011	1	6	6	27	3	873
1	5011	1	6	7	39	3	527
1	5011	1	6	8	8	1	595
1	5011	1	7	1	4	2	277
1	5011	1	7	2	11	3	599
1	5011	1	7	3	41	2	1190
1	5011	1	7	4	23	3	1554
1	5011	1	7	5	30	2	805
1	5011	1	7	6	46	3	365
1	5011	1	7	7	33	3	370
1	5011	1	7	8	13	3	234
1	5011	1	8	1	44	1	1559
1	5011	1	8	2	5	3	280
1	5011	1	8	3	34	2	1005
1	5011	1	8	4	38	1	501
1	5011	1	8	5	17	2	330
1	5011	1	8	6	29	1	486
1	5011	1	8	7	19	1	555
1	5011	1	8	8	9	1	381
1	5011	1	9	1	22	1	1015
1	5011	1	9	2	48	2	901
1	5011	1	9	3	16	1	2210
1	5011	1	9	4	1	3	3177
1	5011	1	9	5	42	3	321
1	5011	1	9	6	35	1	835
1	5011	1	9	7	12	2	835
1	5011	1	9	8	25	3	648
1	5011	1	10	1	45	2	734
1	5011	1	10	2	31	3	293
1	5011	1	10	3	7	2	771
1	5011	1	10	4	3	1	230
1	5011	1	10	5	28	3	677
1	5011	1	10	6	20	3	931
1	5011	1	10	7	14	3	402
1	5011	1	10	8	39	2	389
1	5011	1	11	1	18	2	697
1	5011	1	11	2	32	2	334
1	5011	1	11	3	26	2	492
1	5011	1	11	4	10	1	274
1	5011	1	11	5	43	2	175
1	5011	1	11	6	6	2	65
1	5011	1	11	7	21	1	597
1	5011	1	11	8	37	1	606
1	5011	1	12	1	2	3	239
1	5011	1	12	2	24	2	15
1	5011	1	12	3	8	3	1019
1	5011	1	12	4	40	3	407
1	5011	1	12	5	27	3	277
1	5011	1	12	6	36	1	4
1	5011	1	12	7	15	3	66
1	5011	1	12	8	47	2	808
1	5011	2	1	1	0	3	7024
1	5011	2	1	2	0	2	8084
1	5011	2	1	3	0	1	4216
1	5011	2	1	4	0	1	4131
1	5011	2	1	5	0	2	3635
1	5011	2	1	6	0	2	2631
1	5011	2	1	7	0	3	4059
1	5011	2	1	8	0	2	3092
1	5011	2	1	9	0	2	2877
1	5011	2	1	10	0	1	2127
1	5011	2	1	11	0	2	4758
1	5011	2	1	12	0	2	2653
1	5011	2	1	13	0	3	4231
1	5011	2	1	14	0	3	1955
1	5011	2	1	15	0	2	3041
1	5011	2	1	16	0	1	1636
1	5011	2	1	17	0	3	2887
1	5011	2	1	18	0	3	3656
1	5011	2	1	19	0	2	2738
1	5011	2	1	20	0	2	2257
1	5011	2	1	21	0	1	2059
1	5011	2	1	22	0	4	2084
1	5011	2	1	23	0	2	5029
1	5011	2	1	24	0	2	2482
1	5011	2	1	25	0	3	3987
1	5011	2	1	26	0	2	3151
1	5011	2	1	27	0	2	4646
1	5011	2	1	28	0	2	4810
1	5011	2	1	29	0	1	3062
1	5011	2	1	30	0	2	2296
1	5015	1	1	1	31	2	2918
1	5015	1	1	2	22	2	1301
1	5015	1	1	3	12	2	1239
1	5015	1	1	4	5	3	1657
1	5015	1	1	5	37	2	1097
1	5015	1	1	6	46	1	2402
1	5015	1	1	7	29	3	2837
1	5015	1	1	8	17	3	1416
1	5015	1	2	1	20	1	752
1	5015	1	2	2	15	3	846
1	5015	1	2	3	27	3	1234
1	5015	1	2	4	43	2	711
1	5015	1	2	5	2	2	615
1	5015	1	2	6	34	3	734
1	5015	1	2	7	11	2	732
1	5015	1	2	8	40	3	649
1	5015	1	3	1	25	1	834
1	5015	1	3	2	1	3	360
1	5015	1	3	3	36	1	778
1	5015	1	3	4	16	2	326
1	5015	1	3	5	10	3	603
1	5015	1	3	6	38	1	619
1	5015	1	3	7	45	2	496
1	5015	1	3	8	21	2	423
1	5015	1	4	1	32	1	753
1	5015	1	4	2	9	3	252
1	5015	1	4	3	23	2	302
1	5015	1	4	4	6	3	692
1	5015	1	4	5	42	2	283
1	5015	1	4	6	26	1	586
1	5015	1	4	7	44	1	276
1	5015	1	4	8	14	1	228
1	5015	1	5	1	3	3	762
1	5015	1	5	2	35	3	686
1	5015	1	5	3	41	2	374
1	5015	1	5	4	18	1	1146
1	5015	1	5	5	19	3	1389
1	5015	1	5	6	47	2	255
1	5015	1	5	7	8	1	2585
1	5015	1	5	8	30	1	713
1	5015	1	6	1	39	3	535
1	5015	1	6	2	24	2	619
1	5015	1	6	3	33	1	621
1	5015	1	6	4	4	2	624
1	5015	1	6	5	7	1	721
1	5015	1	6	6	13	2	844
1	5015	1	6	7	28	2	1205
1	5015	1	6	8	48	3	546
1	5015	1	7	1	16	2	756
1	5015	1	7	2	19	2	727
1	5015	1	7	3	38	3	847
1	5015	1	7	4	46	3	554
1	5015	1	7	5	34	2	698
1	5015	1	7	6	12	2	723
1	5015	1	7	7	6	2	555
1	5015	1	7	8	27	3	976
1	5015	1	8	1	11	3	1633
1	5015	1	8	2	24	2	740
1	5015	1	8	3	42	1	1434
1	5015	1	8	4	44	2	1128
1	5015	1	8	5	17	1	568
1	5015	1	8	6	31	1	702
1	5015	1	8	7	5	1	560
1	5015	1	8	8	25	2	727
1	5015	1	9	1	7	2	709
1	5015	1	9	2	13	2	635
1	5015	1	9	3	36	3	302
1	5015	1	9	4	20	1	670
1	5015	1	9	5	28	2	663
1	5015	1	9	6	39	2	1255
1	5015	1	9	7	4	3	570
1	5015	1	9	8	48	2	500
1	5015	1	10	1	35	2	665
1	5015	1	10	2	41	2	545
1	5015	1	10	3	26	1	546
1	5015	1	10	4	3	2	628
1	5015	1	10	5	23	2	614
1	5015	1	10	6	18	2	903
1	5015	1	10	7	10	1	834
1	5015	1	10	8	43	2	434
1	5015	1	11	1	29	3	644
1	5015	1	11	2	21	2	589
1	5015	1	11	3	47	3	608
1	5015	1	11	4	37	3	592
1	5015	1	11	5	32	1	772
1	5015	1	11	6	8	3	518
1	5015	1	11	7	2	3	516
1	5015	1	11	8	14	2	1690
1	5015	1	12	1	33	2	153
1	5015	1	12	2	30	2	723
1	5015	1	12	3	1	2	668
1	5015	1	12	4	9	1	1384
1	5015	1	12	5	15	1	670
1	5015	1	12	6	45	1	568
1	5015	1	12	7	22	1	1517
1	5015	1	12	8	40	3	658
1	5015	2	1	1	0	3	6344
1	5015	2	1	2	0	1	4584
1	5015	2	1	3	0	3	2966
1	5015	2	1	4	0	2	5404
1	5015	2	1	5	0	2	4929
1	5015	2	1	6	0	4	4553
1	5015	2	1	7	0	3	2489
1	5015	2	1	8	0	4	2425
1	5015	2	1	9	0	3	1908
1	5015	2	1	10	0	3	10364
1	5015	2	1	11	0	1	7380
1	5015	2	1	12	0	4	3092
1	5015	2	1	13	0	1	3557
1	5015	2	1	14	0	1	3507
1	5015	2	1	15	0	4	2203
1	5015	2	1	16	0	1	1879
1	5015	2	1	17	0	1	1616
1	5015	2	1	18	0	1	3772
1	5015	2	1	19	0	2	1546
1	5015	2	1	20	0	4	1448
1	5015	2	1	21	0	1	2497
1	5015	2	1	22	0	2	2306
1	5015	2	1	23	0	1	4242
1	5015	2	1	24	0	1	2613
1	5015	2	1	25	0	1	5696
1	5015	2	1	26	0	4	2723
1	5015	2	1	27	0	1	3962
1	5015	2	1	28	0	1	6073
1	5015	2	1	29	0	3	2035
1	5015	2	1	30	0	3	2542
1	5016	1	1	1	25	2	780
1	5016	1	1	2	12	2	741
1	5016	1	1	3	17	3	730
1	5016	1	1	4	38	3	865
1	5016	1	1	5	20	1	739
1	5016	1	1	6	46	1	1586
1	5016	1	1	7	6	2	1193
1	5016	1	1	8	31	2	1181
1	5016	1	2	1	16	1	691
1	5016	1	2	2	42	2	1297
1	5016	1	2	3	35	2	1387
1	5016	1	2	4	45	1	568
1	5016	1	2	5	8	3	452
1	5016	1	2	6	2	3	693
1	5016	1	2	7	26	2	526
1	5016	1	2	8	22	3	549
1	5016	1	3	1	33	2	124
1	5016	1	3	2	40	1	480
1	5016	1	3	3	13	2	456
1	5016	1	3	4	10	1	729
1	5016	1	3	5	5	3	529
1	5016	1	3	6	29	3	855
1	5016	1	3	7	44	3	537
1	5016	1	3	8	19	2	335
1	5016	1	4	1	18	2	219
1	5016	1	4	2	48	2	253
1	5016	1	4	3	28	2	1936
1	5016	1	4	4	39	1	1713
1	5016	1	4	5	21	2	293
1	5016	1	4	6	4	1	566
1	5016	1	4	7	9	1	479
1	5016	1	4	8	34	2	1887
1	5016	1	5	1	43	2	97
1	5016	1	5	2	37	2	112
1	5016	1	5	3	14	1	558
1	5016	1	5	4	3	2	394
1	5016	1	5	5	27	1	712
1	5016	1	5	6	7	2	423
1	5016	1	5	7	24	3	371
1	5016	1	5	8	36	3	369
1	5016	1	6	1	11	2	240
1	5016	1	6	2	41	3	495
1	5016	1	6	3	23	2	358
1	5016	1	6	4	15	1	890
1	5016	1	6	5	32	1	727
1	5016	1	6	6	30	3	1028
1	5016	1	6	7	1	2	381
1	5016	1	6	8	47	3	694
1	5016	1	7	1	26	1	1020
1	5016	1	7	2	8	3	435
1	5016	1	7	3	46	1	554
1	5016	1	7	4	13	2	326
1	5016	1	7	5	4	1	278
1	5016	1	7	6	24	3	331
1	5016	1	7	7	36	3	466
1	5016	1	7	8	37	2	806
1	5016	1	8	1	18	2	456
1	5016	1	8	2	35	2	403
1	5016	1	8	3	21	1	734
1	5016	1	8	4	27	1	762
1	5016	1	8	5	5	3	514
1	5016	1	8	6	40	1	656
1	5016	1	8	7	10	1	762
1	5016	1	8	8	45	1	640
1	5016	1	9	1	29	2	320
1	5016	1	9	2	48	2	250
1	5016	1	9	3	17	2	286
1	5016	1	9	4	9	1	511
1	5016	1	9	5	20	3	232
1	5016	1	9	6	33	2	205
1	5016	1	9	7	3	1	106
1	5016	1	9	8	39	2	393
1	5016	1	10	1	31	1	549
1	5016	1	10	2	44	3	321
1	5016	1	10	3	22	3	281
1	5016	1	10	4	12	2	241
1	5016	1	10	5	28	3	2307
1	5016	1	10	6	42	1	843
1	5016	1	10	7	6	2	136
1	5016	1	10	8	15	1	237
1	5016	1	11	1	32	1	265
1	5016	1	11	2	38	3	333
1	5016	1	11	3	19	1	648
1	5016	1	11	4	47	3	1129
1	5016	1	11	5	14	1	375
1	5016	1	11	6	25	1	1164
1	5016	1	11	7	2	3	267
1	5016	1	11	8	11	3	269
1	5016	1	12	1	16	1	458
1	5016	1	12	2	23	3	219
1	5016	1	12	3	30	3	759
1	5016	1	12	4	43	2	286
1	5016	1	12	5	41	1	439
1	5016	1	12	6	1	2	329
1	5016	1	12	7	34	3	722
1	5016	1	12	8	7	2	154
1	5016	2	1	1	0	2	6631
1	5016	2	1	2	0	3	3869
1	5016	2	1	3	0	4	3503
1	5016	2	1	4	0	4	2151
1	5016	2	1	5	0	2	1918
1	5016	2	1	6	0	4	1790
1	5016	2	1	7	0	3	2194
1	5016	2	1	8	0	2	1239
1	5016	2	1	9	0	2	2530
1	5016	2	1	10	0	2	4073
1	5016	2	1	11	0	4	4506
1	5016	2	1	12	0	1	1691
1	5016	2	1	13	0	2	2740
1	5016	2	1	14	0	3	1506
1	5016	2	1	15	0	4	2546
1	5016	2	1	16	0	1	2960
1	5016	2	1	17	0	4	2278
1	5016	2	1	18	0	1	3783
1	5016	2	1	19	0	4	1893
1	5016	2	1	20	0	2	1470
1	5016	2	1	21	0	1	1767
1	5016	2	1	22	0	4	1205
1	5016	2	1	23	0	1	2864
1	5016	2	1	24	0	3	2059
1	5016	2	1	25	0	4	3460
1	5016	2	1	26	0	4	2231
1	5016	2	1	27	0	3	4042
1	5016	2	1	28	0	4	2493
1	5016	2	1	29	0	4	1149
1	5016	2	1	30	0	2	1900
1	5023	1	1	1	31	1	1750
1	5023	1	1	2	13	3	273
1	5023	1	1	3	39	1	436
1	5023	1	1	4	3	2	257
1	5023	1	1	5	23	1	512
1	5023	1	1	6	47	1	511
1	5023	1	1	7	9	1	725
1	5023	1	1	8	29	2	820
1	5023	1	2	1	22	1	815
1	5023	1	2	2	45	1	331
1	5023	1	2	3	1	3	966
1	5023	1	2	4	28	2	255
1	5023	1	2	5	11	1	826
1	5023	1	2	6	33	2	1043
1	5023	1	2	7	37	3	548
1	5023	1	2	8	17	1	66
1	5023	1	3	1	6	2	580
1	5023	1	3	2	19	2	464
1	5023	1	3	3	15	1	323
1	5023	1	3	4	34	2	360
1	5023	1	3	5	7	2	925
1	5023	1	3	6	43	2	415
1	5023	1	3	7	25	1	612
1	5023	1	3	8	38	2	602
1	5023	1	4	1	20	2	3483
1	5023	1	4	2	2	2	1828
1	5023	1	4	3	18	1	1167
1	5023	1	4	4	44	3	1034
1	5023	1	4	5	41	1	759
1	5023	1	4	6	27	2	608
1	5023	1	4	7	12	1	584
1	5023	1	4	8	35	2	474
1	5023	1	5	1	14	2	1073
1	5023	1	5	2	8	2	958
1	5023	1	5	3	36	1	862
1	5023	1	5	4	4	2	203
1	5023	1	5	5	48	2	643
1	5023	1	5	6	26	2	689
1	5023	1	5	7	40	1	527
1	5023	1	5	8	24	1	686
1	5023	1	6	1	42	2	1451
1	5023	1	6	2	30	1	169
1	5023	1	6	3	46	1	643
1	5023	1	6	4	10	2	565
1	5023	1	6	5	32	1	1025
1	5023	1	6	6	21	1	900
1	5023	1	6	7	5	1	741
1	5023	1	6	8	16	2	630
1	5023	1	7	1	4	2	724
1	5023	1	7	2	43	2	692
1	5023	1	7	3	34	3	706
1	5023	1	7	4	17	1	668
1	5023	1	7	5	38	1	1087
1	5023	1	7	6	28	2	668
1	5023	1	7	7	19	2	607
1	5023	1	7	8	12	2	732
1	5023	1	8	1	48	2	417
1	5023	1	8	2	11	1	513
1	5023	1	8	3	14	3	581
1	5023	1	8	4	39	1	575
1	5023	1	8	5	20	2	490
1	5023	1	8	6	6	2	641
1	5023	1	8	7	36	3	725
1	5023	1	8	8	25	1	686
1	5023	1	9	1	40	1	988
1	5023	1	9	2	32	1	564
1	5023	1	9	3	13	3	521
1	5023	1	9	4	27	2	888
1	5023	1	9	5	9	2	761
1	5023	1	9	6	3	3	581
1	5023	1	9	7	21	2	1581
1	5023	1	9	8	44	3	505
1	5023	1	10	1	41	3	652
1	5023	1	10	2	10	1	642
1	5023	1	10	3	16	2	909
1	5023	1	10	4	30	3	831
1	5023	1	10	5	31	1	508
1	5023	1	10	6	22	3	446
1	5023	1	10	7	46	3	748
1	5023	1	10	8	1	2	1202
1	5023	1	11	1	24	3	442
1	5023	1	11	2	15	3	467
1	5023	1	11	3	8	1	1102
1	5023	1	11	4	33	2	766
1	5023	1	11	5	37	3	821
1	5023	1	11	6	2	2	574
1	5023	1	11	7	26	3	412
1	5023	1	11	8	45	1	610
1	5023	1	12	1	42	3	469
1	5023	1	12	2	5	1	513
1	5023	1	12	3	7	1	1022
1	5023	1	12	4	29	1	583
1	5023	1	12	5	18	1	615
1	5023	1	12	6	23	2	735
1	5023	1	12	7	47	2	1092
1	5023	1	12	8	35	1	659
1	5023	2	1	1	0	4	10141
1	5023	2	1	2	0	2	5935
1	5023	2	1	3	0	2	3767
1	5023	2	1	4	0	2	2749
1	5023	2	1	5	0	2	3076
1	5023	2	1	6	0	2	2781
1	5023	2	1	7	0	3	3106
1	5023	2	1	8	0	3	2178
1	5023	2	1	9	0	3	3519
1	5023	2	1	10	0	4	2862
1	5023	2	1	11	0	3	4498
1	5023	2	1	12	0	3	2313
1	5023	2	1	13	0	2	4169
1	5023	2	1	14	0	2	2943
1	5023	2	1	15	0	2	3821
1	5023	2	1	16	0	1	3634
1	5023	2	1	17	0	2	3077
1	5023	2	1	18	0	3	4110
1	5023	2	1	19	0	2	2815
1	5023	2	1	20	0	3	2178
1	5023	2	1	21	0	1	3014
1	5023	2	1	22	0	2	4306
1	5023	2	1	23	0	2	3619
1	5023	2	1	24	0	2	2559
1	5023	2	1	25	0	2	6308
1	5023	2	1	26	0	3	3542
1	5023	2	1	27	0	3	4508
1	5023	2	1	28	0	2	3237
1	5023	2	1	29	0	1	2072
1	5023	2	1	30	0	2	2690
1	5024	1	1	1	43	2	2184
1	5024	1	1	2	6	1	1985
1	5024	1	1	3	31	3	716
1	5024	1	1	4	21	2	687
1	5024	1	1	5	37	1	923
1	5024	1	1	6	8	3	653
1	5024	1	1	7	14	3	796
1	5024	1	1	8	26	3	1522
1	5024	1	2	1	2	3	904
1	5024	1	2	2	17	1	1366
1	5024	1	2	3	30	2	1013
1	5024	1	2	4	23	2	515
1	5024	1	2	5	45	2	634
1	5024	1	2	6	34	2	469
1	5024	1	2	7	10	1	1574
1	5024	1	2	8	41	2	937
1	5024	1	3	1	12	2	509
1	5024	1	3	2	25	3	986
1	5024	1	3	3	46	3	666
1	5024	1	3	4	42	2	1450
1	5024	1	3	5	4	2	520
1	5024	1	3	6	20	1	575
1	5024	1	3	7	32	2	517
1	5024	1	3	8	18	1	155
1	5024	1	4	1	24	3	850
1	5024	1	4	2	39	2	455
1	5024	1	4	3	47	2	1615
1	5024	1	4	4	15	3	602
1	5024	1	4	5	7	1	809
1	5024	1	4	6	3	3	459
1	5024	1	4	7	33	3	492
1	5024	1	4	8	27	3	347
1	5024	1	5	1	5	3	1159
1	5024	1	5	2	38	2	555
1	5024	1	5	3	9	2	448
1	5024	1	5	4	48	3	513
1	5024	1	5	5	35	1	400
1	5024	1	5	6	29	1	312
1	5024	1	5	7	13	3	1288
1	5024	1	5	8	22	1	864
1	5024	1	6	1	36	1	582
1	5024	1	6	2	1	3	964
1	5024	1	6	3	44	1	473
1	5024	1	6	4	40	3	387
1	5024	1	6	5	19	2	623
1	5024	1	6	6	16	1	663
1	5024	1	6	7	28	2	517
1	5024	1	6	8	11	3	348
1	5024	1	7	1	33	3	656
1	5024	1	7	2	30	1	394
1	5024	1	7	3	42	3	780
1	5024	1	7	4	6	2	705
1	5024	1	7	5	45	2	433
1	5024	1	7	6	14	2	344
1	5024	1	7	7	21	2	494
1	5024	1	7	8	8	3	495
1	5024	1	8	1	2	3	563
1	5024	1	8	2	15	1	700
1	5024	1	8	3	25	2	568
1	5024	1	8	4	24	2	654
1	5024	1	8	5	47	3	511
1	5024	1	8	6	38	2	1179
1	5024	1	8	7	9	2	511
1	5024	1	8	8	34	2	960
1	5024	1	9	1	17	3	520
1	5024	1	9	2	43	2	909
1	5024	1	9	3	41	1	1267
1	5024	1	9	4	19	1	853
1	5024	1	9	5	1	2	789
1	5024	1	9	6	12	3	1055
1	5024	1	9	7	29	3	1512
1	5024	1	9	8	32	2	695
1	5024	1	10	1	46	3	616
1	5024	1	10	2	7	2	326
1	5024	1	10	3	22	3	625
1	5024	1	10	4	5	3	642
1	5024	1	10	5	13	2	683
1	5024	1	10	6	28	2	859
1	5024	1	10	7	37	1	571
1	5024	1	10	8	36	2	1105
1	5024	1	11	1	40	3	369
1	5024	1	11	2	10	3	388
1	5024	1	11	3	27	1	430
1	5024	1	11	4	23	2	55
1	5024	1	11	5	48	2	1402
1	5024	1	11	6	35	3	522
1	5024	1	11	7	4	1	390
1	5024	1	11	8	16	1	433
1	5024	1	12	1	26	3	902
1	5024	1	12	2	39	2	353
1	5024	1	12	3	44	1	705
1	5024	1	12	4	18	2	490
1	5024	1	12	5	3	1	392
1	5024	1	12	6	11	3	64
1	5024	1	12	7	31	2	720
1	5024	1	12	8	20	3	472
1	5024	2	1	1	0	3	6902
1	5024	2	1	2	0	3	4136
1	5024	2	1	3	0	2	2143
1	5024	2	1	4	0	2	4509
1	5024	2	1	5	0	2	2422
1	5024	2	1	6	0	4	2665
1	5024	2	1	7	0	3	3075
1	5024	2	1	8	0	1	1964
1	5024	2	1	9	0	2	1970
1	5024	2	1	10	0	3	2080
1	5024	2	1	11	0	3	3847
1	5024	2	1	12	0	2	1810
1	5024	2	1	13	0	1	2310
1	5024	2	1	14	0	2	1613
1	5024	2	1	15	0	3	2428
1	5024	2	1	16	0	1	1868
1	5024	2	1	17	0	3	1485
1	5024	2	1	18	0	1	2350
1	5024	2	1	19	0	2	2108
1	5024	2	1	20	0	2	1236
1	5024	2	1	21	0	1	1375
1	5024	2	1	22	0	4	1995
1	5024	2	1	23	0	2	2167
1	5024	2	1	24	0	1	1413
1	5024	2	1	25	0	1	3584
1	5024	2	1	26	0	3	3174
1	5024	2	1	27	0	3	3515
1	5024	2	1	28	0	2	1867
1	5024	2	1	29	0	4	1693
1	5024	2	1	30	0	2	1797
1	5025	1	1	1	5	1	998
1	5025	1	1	2	29	1	1349
1	5025	1	1	3	11	2	667
1	5025	1	1	4	39	2	921
1	5025	1	1	5	32	2	1233
1	5025	1	1	6	44	1	1072
1	5025	1	1	7	14	3	945
1	5025	1	1	8	23	3	1315
1	5025	1	2	1	35	1	1425
1	5025	1	2	2	41	2	1088
1	5025	1	2	3	47	2	903
1	5025	1	2	4	30	1	942
1	5025	1	2	5	7	2	1477
1	5025	1	2	6	20	3	1331
1	5025	1	2	7	3	1	914
1	5025	1	2	8	16	1	931
1	5025	1	3	1	38	1	728
1	5025	1	3	2	46	3	1776
1	5025	1	3	3	13	2	1237
1	5025	1	3	4	12	2	928
1	5025	1	3	5	28	2	1076
1	5025	1	3	6	6	2	743
1	5025	1	3	7	19	2	843
1	5025	1	3	8	31	3	2100
1	5025	1	4	1	48	3	1848
1	5025	1	4	2	10	1	664
1	5025	1	4	3	1	2	589
1	5025	1	4	4	24	2	560
1	5025	1	4	5	37	1	567
1	5025	1	4	6	27	3	914
1	5025	1	4	7	33	3	470
1	5025	1	4	8	15	1	1026
1	5025	1	5	1	8	3	1419
1	5025	1	5	2	42	3	1047
1	5025	1	5	3	17	3	1114
1	5025	1	5	4	43	1	692
1	5025	1	5	5	4	1	892
1	5025	1	5	6	25	3	1084
1	5025	1	5	7	22	1	709
1	5025	1	5	8	36	1	1990
1	5025	1	6	1	45	2	813
1	5025	1	6	2	34	1	1526
1	5025	1	6	3	21	1	809
1	5025	1	6	4	9	1	1070
1	5025	1	6	5	26	2	905
1	5025	1	6	6	40	3	749
1	5025	1	6	7	2	3	1061
1	5025	1	6	8	18	2	1010
1	5025	1	7	1	39	2	898
1	5025	1	7	2	22	1	1875
1	5025	1	7	3	6	2	918
1	5025	1	7	4	12	2	1105
1	5025	1	7	5	48	3	655
1	5025	1	7	6	31	1	1387
1	5025	1	7	7	13	2	779
1	5025	1	7	8	28	1	1237
1	5025	1	8	1	46	3	795
1	5025	1	8	2	34	1	463
1	5025	1	8	3	23	3	790
1	5025	1	8	4	25	3	780
1	5025	1	8	5	18	2	1340
1	5025	1	8	6	38	1	551
1	5025	1	8	7	1	2	584
1	5025	1	8	8	9	2	1068
1	5025	1	9	1	29	1	912
1	5025	1	9	2	43	2	976
1	5025	1	9	3	10	1	754
1	5025	1	9	4	40	3	885
1	5025	1	9	5	21	2	1657
1	5025	1	9	6	14	3	854
1	5025	1	9	7	35	2	1280
1	5025	1	9	8	5	3	869
1	5025	1	10	1	44	1	796
1	5025	1	10	2	26	2	512
1	5025	1	10	3	32	2	370
1	5025	1	10	4	7	2	706
1	5025	1	10	5	2	3	567
1	5025	1	10	6	17	3	317
1	5025	1	10	7	20	3	311
1	5025	1	10	8	41	2	457
1	5025	1	11	1	11	3	835
1	5025	1	11	2	27	3	712
1	5025	1	11	3	45	2	642
1	5025	1	11	4	16	2	724
1	5025	1	11	5	33	3	763
1	5025	1	11	6	42	3	467
1	5025	1	11	7	19	2	718
1	5025	1	11	8	4	1	551
1	5025	1	12	1	47	2	339
1	5025	1	12	2	15	1	1111
1	5025	1	12	3	37	1	699
1	5025	1	12	4	36	2	892
1	5025	1	12	5	24	2	462
1	5025	1	12	6	3	1	810
1	5025	1	12	7	8	3	1151
1	5025	1	12	8	30	1	768
1	5025	2	1	1	0	2	6301
1	5025	2	1	2	0	3	4487
1	5025	2	1	3	0	1	4393
1	5025	2	1	4	0	3	3638
1	5025	2	1	5	0	3	2528
1	5025	2	1	6	0	2	3520
1	5025	2	1	7	0	2	3016
1	5025	2	1	8	0	2	2675
1	5025	2	1	9	0	2	2653
1	5025	2	1	10	0	3	3383
1	5025	2	1	11	0	2	5052
1	5025	2	1	12	0	3	3527
1	5025	2	1	13	0	2	4622
1	5025	2	1	14	0	3	3202
1	5025	2	1	15	0	3	2351
1	5025	2	1	16	0	3	5021
1	5025	2	1	17	0	3	3730
1	5025	2	1	18	0	1	3625
1	5025	2	1	19	0	3	2940
1	5025	2	1	20	0	2	2291
1	5025	2	1	21	0	2	4067
1	5025	2	1	22	0	3	7821
1	5025	2	1	23	0	2	4954
1	5025	2	1	24	0	2	1945
1	5025	2	1	25	0	1	6431
1	5025	2	1	26	0	2	4939
1	5025	2	1	27	0	4	5155
1	5025	2	1	28	0	1	2833
1	5025	2	1	29	0	3	2789
1	5025	2	1	30	0	1	2690
1	5026	1	1	1	26	2	2922
1	5026	1	1	2	40	3	2345
1	5026	1	1	3	46	3	1576
1	5026	1	1	4	32	2	1629
1	5026	1	1	5	16	2	2840
1	5026	1	1	6	9	1	2632
1	5026	1	1	7	22	1	1981
1	5026	1	1	8	1	2	1004
1	5026	1	2	1	44	1	1466
1	5026	1	2	2	35	1	800
1	5026	1	2	3	25	3	1168
1	5026	1	2	4	10	1	1216
1	5026	1	2	5	39	2	1014
1	5026	1	2	6	18	2	1366
1	5026	1	2	7	23	2	922
1	5026	1	2	8	5	3	1137
1	5026	1	3	1	7	2	1391
1	5026	1	3	2	42	2	735
1	5026	1	3	3	20	3	2407
1	5026	1	3	4	45	2	989
1	5026	1	3	5	31	3	980
1	5026	1	3	6	3	1	1464
1	5026	1	3	7	30	1	1199
1	5026	1	3	8	14	3	1897
1	5026	1	4	1	27	3	1094
1	5026	1	4	2	33	3	976
1	5026	1	4	3	19	2	1087
1	5026	1	4	4	48	3	1006
1	5026	1	4	5	2	3	1659
1	5026	1	4	6	11	3	1037
1	5026	1	4	7	38	1	942
1	5026	1	4	8	13	3	1331
1	5026	1	5	1	34	2	744
1	5026	1	5	2	47	2	250
1	5026	1	5	3	21	2	3482
1	5026	1	5	4	28	2	498
1	5026	1	5	5	4	1	1658
1	5026	1	5	6	15	1	1302
1	5026	1	5	7	41	2	830
1	5026	1	5	8	12	2	727
1	5026	1	6	1	29	1	1024
1	5026	1	6	2	24	2	1319
1	5026	1	6	3	8	3	2400
1	5026	1	6	4	37	1	1095
1	5026	1	6	5	6	2	2971
1	5026	1	6	6	17	3	1689
1	5026	1	6	7	43	1	940
1	5026	1	6	8	36	1	600
1	5026	1	7	1	27	3	1109
1	5026	1	7	2	47	2	978
1	5026	1	7	3	10	1	1227
1	5026	1	7	4	38	1	663
1	5026	1	7	5	22	1	2780
1	5026	1	7	6	32	2	1081
1	5026	1	7	7	5	3	1156
1	5026	1	7	8	15	1	1227
1	5026	1	8	1	6	2	811
1	5026	1	8	2	9	1	588
1	5026	1	8	3	36	1	622
1	5026	1	8	4	45	2	753
1	5026	1	8	5	37	1	664
1	5026	1	8	6	24	2	883
1	5026	1	8	7	13	2	1052
1	5026	1	8	8	30	1	828
1	5026	1	9	1	1	2	837
1	5026	1	9	2	44	1	481
1	5026	1	9	3	42	3	758
1	5026	1	9	4	33	3	1074
1	5026	1	9	5	25	3	832
1	5026	1	9	6	21	1	1196
1	5026	1	9	7	16	2	1925
1	5026	1	9	8	12	2	1277
1	5026	1	10	1	23	3	1113
1	5026	1	10	2	18	2	673
1	5026	1	10	3	31	3	809
1	5026	1	10	4	48	3	517
1	5026	1	10	5	40	3	113
1	5026	1	10	6	29	1	530
1	5026	1	10	7	3	1	991
1	5026	1	10	8	7	2	1151
1	5026	1	11	1	26	2	593
1	5026	1	11	2	2	3	1105
1	5026	1	11	3	14	3	800
1	5026	1	11	4	11	3	1306
1	5026	1	11	5	34	2	676
1	5026	1	11	6	43	1	737
1	5026	1	11	7	39	2	714
1	5026	1	11	8	20	3	999
1	5026	1	12	1	46	3	402
1	5026	1	12	2	17	3	878
1	5026	1	12	3	19	2	757
1	5026	1	12	4	41	2	910
1	5026	1	12	5	4	1	968
1	5026	1	12	6	8	3	1052
1	5026	1	12	7	35	1	1016
1	5026	1	12	8	28	2	462
1	5026	2	1	1	0	3	15387
1	5026	2	1	2	0	3	7532
1	5026	2	1	3	0	1	7076
1	5026	2	1	4	0	3	7911
1	5026	2	1	5	0	2	5056
1	5026	2	1	6	0	4	5859
1	5026	2	1	7	0	1	5062
1	5026	2	1	8	0	2	9192
1	5026	2	1	9	0	1	6831
1	5026	2	1	10	0	3	5124
1	5026	2	1	11	0	3	5939
1	5026	2	1	12	0	4	8482
1	5026	2	1	13	0	2	5485
1	5026	2	1	14	0	3	4839
1	5026	2	1	15	0	4	4882
1	5026	2	1	16	0	1	6276
1	5026	2	1	17	0	2	3759
1	5026	2	1	18	0	1	5325
1	5026	2	1	19	0	2	8109
1	5026	2	1	20	0	2	8014
1	5026	2	1	21	0	1	3139
1	5026	2	1	22	0	2	4114
1	5026	2	1	23	0	3	10106
1	5026	2	1	24	0	2	4644
1	5026	2	1	25	0	1	7368
1	5026	2	1	26	0	4	6639
1	5026	2	1	27	0	4	6291
1	5026	2	1	28	0	3	13355
1	5026	2	1	29	0	4	3621
1	5026	2	1	30	0	2	8913
2	5005	1	1	1	34	2	1295
2	5005	1	1	2	21	1	1916
2	5005	1	1	3	10	1	962
2	5005	1	1	4	1	2	862
2	5005	1	1	5	45	2	1106
2	5005	1	1	6	15	1	524
2	5005	1	1	7	27	3	770
2	5005	1	1	8	40	3	539
2	5005	1	2	1	23	3	719
2	5005	1	2	2	29	1	733
2	5005	1	2	3	39	2	597
2	5005	1	2	4	44	1	556
2	5005	1	2	5	2	3	625
2	5005	1	2	6	9	1	555
2	5005	1	2	7	17	3	436
2	5005	1	2	8	33	3	435
2	5005	1	3	1	26	2	491
2	5005	1	3	2	16	1	338
2	5005	1	3	3	24	2	353
2	5005	1	3	4	36	1	419
2	5005	1	3	5	41	1	3100
2	5005	1	3	6	7	2	359
2	5005	1	3	7	43	1	363
2	5005	1	3	8	6	2	334
2	5005	1	4	1	25	3	429
2	5005	1	4	2	47	2	462
2	5005	1	4	3	22	1	400
2	5005	1	4	4	3	1	370
2	5005	1	4	5	31	3	553
2	5005	1	4	6	11	3	385
2	5005	1	4	7	18	2	352
2	5005	1	4	8	38	1	457
2	5005	1	5	1	46	3	344
2	5005	1	5	2	13	2	363
2	5005	1	5	3	8	3	384
2	5005	1	5	4	30	1	329
2	5005	1	5	5	35	1	346
2	5005	1	5	6	19	2	333
2	5005	1	5	7	37	1	375
2	5005	1	5	8	4	1	335
2	5005	1	6	1	48	3	515
2	5005	1	6	2	28	2	421
2	5005	1	6	3	32	2	361
2	5005	1	6	4	5	3	463
2	5005	1	6	5	12	2	404
2	5005	1	6	6	42	3	381
2	5005	1	6	7	14	3	349
2	5005	1	6	8	20	3	352
2	5005	1	7	1	44	1	312
2	5005	1	7	2	31	3	465
2	5005	1	7	3	18	2	349
2	5005	1	7	4	26	2	472
2	5005	1	7	5	41	2	1354
2	5005	1	7	6	6	2	269
2	5005	1	7	7	23	3	346
2	5005	1	7	8	10	1	366
2	5005	1	8	1	13	2	357
2	5005	1	8	2	39	2	341
2	5005	1	8	3	9	1	352
2	5005	1	8	4	45	2	382
2	5005	1	8	5	29	1	364
2	5005	1	8	6	21	1	399
2	5005	1	8	7	5	3	330
2	5005	1	8	8	35	1	245
2	5005	1	9	1	43	1	295
2	5005	1	9	2	3	1	289
2	5005	1	9	3	37	1	308
2	5005	1	9	4	25	3	361
2	5005	1	9	5	32	2	438
2	5005	1	9	6	24	2	296
2	5005	1	9	7	7	2	312
2	5005	1	9	8	14	3	322
2	5005	1	10	1	11	3	400
2	5005	1	10	2	34	2	384
2	5005	1	10	3	30	1	812
2	5005	1	10	4	19	2	316
2	5005	1	10	5	38	1	1804
2	5005	1	10	6	46	3	332
2	5005	1	10	7	17	3	384
2	5005	1	10	8	4	1	303
2	5005	1	11	1	20	3	317
2	5005	1	11	2	47	2	328
2	5005	1	11	3	12	2	344
2	5005	1	11	4	1	2	320
2	5005	1	11	5	16	1	282
2	5005	1	11	6	42	3	323
2	5005	1	11	7	28	2	306
2	5005	1	11	8	36	1	318
2	5005	1	12	1	2	3	351
2	5005	1	12	2	40	3	325
2	5005	1	12	3	48	3	320
2	5005	1	12	4	8	3	3190
2	5005	1	12	5	33	3	300
2	5005	1	12	6	27	3	341
2	5005	1	12	7	22	1	278
2	5005	1	12	8	15	1	310
2	5005	2	1	1	0	3	7455
2	5005	2	1	2	0	2	4771
2	5005	2	1	3	0	3	3762
2	5005	2	1	4	0	4	4984
2	5005	2	1	5	0	3	4502
2	5005	2	1	6	0	2	4111
2	5005	2	1	7	0	2	2112
2	5005	2	1	8	0	2	3512
2	5005	2	1	9	0	2	2287
2	5005	2	1	10	0	2	5360
2	5005	2	1	11	0	1	8192
2	5005	2	1	12	0	2	3366
2	5005	2	1	13	0	3	3164
2	5005	2	1	14	0	3	2547
2	5005	2	1	15	0	1	3409
2	5005	2	1	16	0	1	3781
2	5005	2	1	17	0	3	2739
2	5005	2	1	18	0	3	4146
2	5005	2	1	19	0	3	3097
2	5005	2	1	20	0	2	1842
2	5005	2	1	21	0	2	7347
2	5005	2	1	22	0	4	1820
2	5005	2	1	23	0	2	4224
2	5005	2	1	24	0	2	1979
2	5005	2	1	25	0	4	6016
2	5005	2	1	26	0	3	6710
2	5005	2	1	27	0	2	6463
2	5005	2	1	28	0	3	5042
2	5005	2	1	29	0	2	1334
2	5005	2	1	30	0	3	2397
2	5006	1	1	1	26	2	1025
2	5006	1	1	2	47	2	654
2	5006	1	1	3	1	2	854
2	5006	1	1	4	33	3	887
2	5006	1	1	5	13	2	647
2	5006	1	1	6	21	2	602
2	5006	1	1	7	41	2	436
2	5006	1	1	8	9	2	814
2	5006	1	2	1	4	1	675
2	5006	1	2	2	16	2	1007
2	5006	1	2	3	32	2	1281
2	5006	1	2	4	37	1	1130
2	5006	1	2	5	24	2	1094
2	5006	1	2	6	7	2	1058
2	5006	1	2	7	29	3	1740
2	5006	1	2	8	45	1	1734
2	5006	1	3	1	38	1	807
2	5006	1	3	2	2	3	928
2	5006	1	3	3	17	1	796
2	5006	1	3	4	12	2	403
2	5006	1	3	5	48	2	1355
2	5006	1	3	6	27	3	1089
2	5006	1	3	7	19	2	557
2	5006	1	3	8	31	1	1670
2	5006	1	4	1	18	2	485
2	5006	1	4	2	42	3	419
2	5006	1	4	3	35	1	381
2	5006	1	4	4	44	1	336
2	5006	1	4	5	8	3	494
2	5006	1	4	6	25	3	717
2	5006	1	4	7	5	3	551
2	5006	1	4	8	23	2	338
2	5006	1	5	1	40	3	707
2	5006	1	5	2	11	2	488
2	5006	1	5	3	14	3	565
2	5006	1	5	4	20	3	566
2	5006	1	5	5	46	3	612
2	5006	1	5	6	30	1	636
2	5006	1	5	7	6	2	766
2	5006	1	5	8	34	2	790
2	5006	1	6	1	3	1	458
2	5006	1	6	2	39	2	939
2	5006	1	6	3	43	1	542
2	5006	1	6	4	10	1	570
2	5006	1	6	5	28	2	427
2	5006	1	6	6	36	1	427
2	5006	1	6	7	15	1	295
2	5006	1	6	8	22	1	614
2	5006	1	7	1	11	2	301
2	5006	1	7	2	6	2	1241
2	5006	1	7	3	46	3	432
2	5006	1	7	4	27	3	597
2	5006	1	7	5	20	1	323
2	5006	1	7	6	17	3	612
2	5006	1	7	7	40	3	326
2	5006	1	7	8	33	3	408
2	5006	1	8	1	24	3	375
2	5006	1	8	2	29	1	457
2	5006	1	8	3	44	1	355
2	5006	1	8	4	2	3	686
2	5006	1	8	5	35	1	1011
2	5006	1	8	6	42	3	503
2	5006	1	8	7	15	1	1152
2	5006	1	8	8	12	2	352
2	5006	1	9	1	25	3	360
2	5006	1	9	2	34	2	319
2	5006	1	9	3	5	3	529
2	5006	1	9	4	9	1	718
2	5006	1	9	5	48	2	610
2	5006	1	9	6	37	1	1223
2	5006	1	9	7	18	2	399
2	5006	1	9	8	19	2	509
2	5006	1	10	1	10	1	512
2	5006	1	10	2	43	1	759
2	5006	1	10	3	3	1	972
2	5006	1	10	4	16	1	312
2	5006	1	10	5	23	3	343
2	5006	1	10	6	32	2	775
2	5006	1	10	7	39	2	701
2	5006	1	10	8	30	1	392
2	5006	1	11	1	13	2	521
2	5006	1	11	2	31	3	752
2	5006	1	11	3	22	1	345
2	5006	1	11	4	8	3	552
2	5006	1	11	5	28	1	1056
2	5006	1	11	6	45	2	352
2	5006	1	11	7	1	2	294
2	5006	1	11	8	41	2	571
2	5006	1	12	1	26	3	348
2	5006	1	12	2	14	3	339
2	5006	1	12	3	47	2	483
2	5006	1	12	4	7	2	443
2	5006	1	12	5	36	1	782
2	5006	1	12	6	38	1	470
2	5006	1	12	7	21	2	407
2	5006	1	12	8	4	1	557
2	5006	2	1	1	0	3	7399
2	5006	2	1	2	0	2	5014
2	5006	2	1	3	0	1	3204
2	5006	2	1	4	0	3	4793
2	5006	2	1	5	0	2	3742
2	5006	2	1	6	0	4	3621
2	5006	2	1	7	0	2	3569
2	5006	2	1	8	0	3	2079
2	5006	2	1	9	0	4	2113
2	5006	2	1	10	0	1	2727
2	5006	2	1	11	0	2	8263
2	5006	2	1	12	0	4	1956
2	5006	2	1	13	0	4	1666
2	5006	2	1	14	0	2	3579
2	5006	2	1	15	0	4	2097
2	5006	2	1	16	0	1	1817
2	5006	2	1	17	0	2	2069
2	5006	2	1	18	0	1	3647
2	5006	2	1	19	0	2	1922
2	5006	2	1	20	0	4	1921
2	5006	2	1	21	0	1	3120
2	5006	2	1	22	0	3	3017
2	5006	2	1	23	0	1	2437
2	5006	2	1	24	0	1	2928
2	5006	2	1	25	0	2	3671
2	5006	2	1	26	0	3	5089
2	5006	2	1	27	0	2	3475
2	5006	2	1	28	0	1	2501
2	5006	2	1	29	0	1	1829
2	5006	2	1	30	0	4	2415
2	5007	1	1	1	34	3	1190
2	5007	1	1	2	8	1	912
2	5007	1	1	3	25	3	670
2	5007	1	1	4	22	1	690
2	5007	1	1	5	5	1	483
2	5007	1	1	6	43	1	668
2	5007	1	1	7	16	2	604
2	5007	1	1	8	42	3	465
2	5007	1	2	1	14	2	719
2	5007	1	2	2	36	1	468
2	5007	1	2	3	7	2	876
2	5007	1	2	4	19	2	466
2	5007	1	2	5	48	3	1672
2	5007	1	2	6	26	2	537
2	5007	1	2	7	4	1	637
2	5007	1	2	8	40	3	499
2	5007	1	3	1	9	2	572
2	5007	1	3	2	23	2	448
2	5007	1	3	3	18	2	502
2	5007	1	3	4	47	3	820
2	5007	1	3	5	3	1	1420
2	5007	1	3	6	33	2	407
2	5007	1	3	7	29	1	544
2	5007	1	3	8	39	2	530
2	5007	1	4	1	35	1	656
2	5007	1	4	2	6	2	859
2	5007	1	4	3	38	3	2261
2	5007	1	4	4	30	1	822
2	5007	1	4	5	10	1	581
2	5007	1	4	6	17	3	1568
2	5007	1	4	7	21	2	699
2	5007	1	4	8	45	2	737
2	5007	1	5	1	13	3	412
2	5007	1	5	2	37	3	562
2	5007	1	5	3	24	2	568
2	5007	1	5	4	27	3	981
2	5007	1	5	5	12	2	423
2	5007	1	5	6	2	2	569
2	5007	1	5	7	46	3	413
2	5007	1	5	8	32	2	405
2	5007	1	6	1	11	3	567
2	5007	1	6	2	44	3	1693
2	5007	1	6	3	28	2	495
2	5007	1	6	4	20	3	2439
2	5007	1	6	5	31	1	650
2	5007	1	6	6	41	2	496
2	5007	1	6	7	15	1	2673
2	5007	1	6	8	1	2	744
2	5007	1	7	1	27	3	535
2	5007	1	7	2	35	1	618
2	5007	1	7	3	47	3	666
2	5007	1	7	4	24	3	1234
2	5007	1	7	5	8	3	503
2	5007	1	7	6	3	1	319
2	5007	1	7	7	16	2	503
2	5007	1	7	8	42	2	680
2	5007	1	8	1	28	2	469
2	5007	1	8	2	2	2	508
2	5007	1	8	3	31	1	2245
2	5007	1	8	4	20	3	463
2	5007	1	8	5	48	2	443
2	5007	1	8	6	40	2	1129
2	5007	1	8	7	15	1	333
2	5007	1	8	8	10	1	317
2	5007	1	9	1	1	2	679
2	5007	1	9	2	32	1	303
2	5007	1	9	3	14	3	565
2	5007	1	9	4	23	2	352
2	5007	1	9	5	37	1	2220
2	5007	1	9	6	30	1	357
2	5007	1	9	7	44	1	920
2	5007	1	9	8	9	1	1388
2	5007	1	10	1	26	2	449
2	5007	1	10	2	21	2	359
2	5007	1	10	3	43	1	520
2	5007	1	10	4	6	1	1292
2	5007	1	10	5	17	1	734
2	5007	1	10	6	36	3	1746
2	5007	1	10	7	12	2	438
2	5007	1	10	8	39	2	382
2	5007	1	11	1	46	3	364
2	5007	1	11	2	7	2	375
2	5007	1	11	3	29	3	364
2	5007	1	11	4	33	1	327
2	5007	1	11	5	41	2	420
2	5007	1	11	6	18	2	519
2	5007	1	11	7	19	2	389
2	5007	1	11	8	4	1	360
2	5007	1	12	1	22	1	332
2	5007	1	12	2	11	3	415
2	5007	1	12	3	25	2	353
2	5007	1	12	4	34	2	356
2	5007	1	12	5	38	3	864
2	5007	1	12	6	45	2	328
2	5007	1	12	7	13	2	357
2	5007	1	12	8	5	3	385
2	5007	2	1	1	0	2	6700
2	5007	2	1	2	0	3	8182
2	5007	2	1	3	0	3	5558
2	5007	2	1	4	0	3	5861
2	5007	2	1	5	0	3	3505
2	5007	2	1	6	0	3	3280
2	5007	2	1	7	0	1	5026
2	5007	2	1	8	0	3	6206
2	5007	2	1	9	0	2	3684
2	5007	2	1	10	0	4	4694
2	5007	2	1	11	0	3	4375
2	5007	2	1	12	0	2	2469
2	5007	2	1	13	0	3	3974
2	5007	2	1	14	0	2	4165
2	5007	2	1	15	0	2	6379
2	5007	2	1	16	0	1	3122
2	5007	2	1	17	0	2	3314
2	5007	2	1	18	0	3	3841
2	5007	2	1	19	0	2	3445
2	5007	2	1	20	0	3	4728
2	5007	2	1	21	0	1	2224
2	5007	2	1	22	0	1	3315
2	5007	2	1	23	0	3	4244
2	5007	2	1	24	0	2	3614
2	5007	2	1	25	0	1	3787
2	5007	2	1	26	0	4	2408
2	5007	2	1	27	0	3	4108
2	5007	2	1	28	0	3	3597
2	5007	2	1	29	0	1	2498
2	5007	2	1	30	0	2	2866
2	5012	1	1	1	37	3	1118
2	5012	1	1	2	21	1	624
2	5012	1	1	3	17	3	772
2	5012	1	1	4	29	1	508
2	5012	1	1	5	3	1	540
2	5012	1	1	6	44	1	925
2	5012	1	1	7	11	3	540
2	5012	1	1	8	35	2	347
2	5012	1	2	1	40	3	387
2	5012	1	2	2	12	2	424
2	5012	1	2	3	25	3	594
2	5012	1	2	4	45	1	274
2	5012	1	2	5	23	3	375
2	5012	1	2	6	18	2	358
2	5012	1	2	7	36	2	593
2	5012	1	2	8	6	2	339
2	5012	1	3	1	15	1	474
2	5012	1	3	2	31	1	441
2	5012	1	3	3	20	3	1252
2	5012	1	3	4	47	3	334
2	5012	1	3	5	2	1	881
2	5012	1	3	6	28	2	382
2	5012	1	3	7	10	1	329
2	5012	1	3	8	38	1	306
2	5012	1	4	1	5	3	299
2	5012	1	4	2	22	1	1002
2	5012	1	4	3	30	1	332
2	5012	1	4	4	13	1	298
2	5012	1	4	5	42	3	424
2	5012	1	4	6	48	3	818
2	5012	1	4	7	32	1	267
2	5012	1	4	8	9	1	231
2	5012	1	5	1	43	2	300
2	5012	1	5	2	41	2	388
2	5012	1	5	3	4	1	290
2	5012	1	5	4	8	3	266
2	5012	1	5	5	24	2	458
2	5012	1	5	6	16	1	287
2	5012	1	5	7	34	3	327
2	5012	1	5	8	27	3	334
2	5012	1	6	1	46	3	554
2	5012	1	6	2	19	2	235
2	5012	1	6	3	33	2	379
2	5012	1	6	4	39	2	281
2	5012	1	6	5	1	2	241
2	5012	1	6	6	14	3	215
2	5012	1	6	7	7	2	229
2	5012	1	6	8	26	2	288
2	5012	1	7	1	44	1	258
2	5012	1	7	2	42	3	219
2	5012	1	7	3	28	2	237
2	5012	1	7	4	8	3	266
2	5012	1	7	5	32	1	376
2	5012	1	7	6	23	2	254
2	5012	1	7	7	6	1	298
2	5012	1	7	8	16	1	275
2	5012	1	8	1	22	1	230
2	5012	1	8	2	25	3	305
2	5012	1	8	3	47	3	305
2	5012	1	8	4	17	3	224
2	5012	1	8	5	39	2	385
2	5012	1	8	6	12	2	252
2	5012	1	8	7	36	3	277
2	5012	1	8	8	1	2	333
2	5012	1	9	1	10	1	302
2	5012	1	9	2	2	3	238
2	5012	1	9	3	27	3	187
2	5012	1	9	4	48	2	303
2	5012	1	9	5	24	2	407
2	5012	1	9	6	14	3	254
2	5012	1	9	7	31	1	263
2	5012	1	9	8	38	1	226
2	5012	1	10	1	43	2	257
2	5012	1	10	2	30	1	229
2	5012	1	10	3	3	1	359
2	5012	1	10	4	37	1	338
2	5012	1	10	5	35	2	314
2	5012	1	10	6	18	1	283
2	5012	1	10	7	11	3	301
2	5012	1	10	8	21	1	220
2	5012	1	11	1	15	1	289
2	5012	1	11	2	46	1	431
2	5012	1	11	3	40	3	573
2	5012	1	11	4	4	2	503
2	5012	1	11	5	20	3	655
2	5012	1	11	6	9	1	273
2	5012	1	11	7	26	2	270
2	5012	1	11	8	33	2	272
2	5012	1	12	1	7	2	381
2	5012	1	12	2	5	3	314
2	5012	1	12	3	34	3	334
2	5012	1	12	4	13	1	285
2	5012	1	12	5	19	2	262
2	5012	1	12	6	41	2	223
2	5012	1	12	7	45	2	331
2	5012	1	12	8	29	1	271
2	5012	2	1	1	0	2	15404
2	5012	2	1	2	0	2	6357
2	5012	2	1	3	0	2	6676
2	5012	2	1	4	0	4	4143
2	5012	2	1	5	0	2	2942
2	5012	2	1	6	0	3	7389
2	5012	2	1	7	0	3	8275
2	5012	2	1	8	0	4	4783
2	5012	2	1	9	0	2	6652
2	5012	2	1	10	0	2	2872
2	5012	2	1	11	0	3	5634
2	5012	2	1	12	0	4	2342
2	5012	2	1	13	0	4	4484
2	5012	2	1	14	0	1	4502
2	5012	2	1	15	0	3	2872
2	5012	2	1	16	0	3	1665
2	5012	2	1	17	0	2	2826
2	5012	2	1	18	0	3	3749
2	5012	2	1	19	0	2	2749
2	5012	2	1	20	0	3	1668
2	5012	2	1	21	0	2	4628
2	5012	2	1	22	0	1	4376
2	5012	2	1	23	0	2	2983
2	5012	2	1	24	0	1	2188
2	5012	2	1	25	0	2	7096
2	5012	2	1	26	0	4	4275
2	5012	2	1	27	0	3	8045
2	5012	2	1	28	0	2	3730
2	5012	2	1	29	0	1	2225
2	5012	2	1	30	0	4	2773
2	5013	1	1	1	2	2	987
2	5013	1	1	2	7	1	1079
2	5013	1	1	3	32	2	906
2	5013	1	1	4	16	2	965
2	5013	1	1	5	37	3	1348
2	5013	1	1	6	21	2	729
2	5013	1	1	7	25	1	1156
2	5013	1	1	8	43	1	819
2	5013	1	2	1	41	2	765
2	5013	1	2	2	11	3	582
2	5013	1	2	3	14	2	908
2	5013	1	2	4	45	2	875
2	5013	1	2	5	23	2	652
2	5013	1	2	6	3	1	542
2	5013	1	2	7	28	2	629
2	5013	1	2	8	33	3	1008
2	5013	1	3	1	26	2	530
2	5013	1	3	2	22	3	345
2	5013	1	3	3	1	3	532
2	5013	1	3	4	44	1	486
2	5013	1	3	5	8	3	552
2	5013	1	3	6	17	3	598
2	5013	1	3	7	35	1	455
2	5013	1	3	8	40	3	516
2	5013	1	4	1	12	2	354
2	5013	1	4	2	4	1	379
2	5013	1	4	3	15	1	373
2	5013	1	4	4	42	3	447
2	5013	1	4	5	19	2	626
2	5013	1	4	6	34	2	458
2	5013	1	4	7	29	1	481
2	5013	1	4	8	48	3	575
2	5013	1	5	1	9	2	476
2	5013	1	5	2	31	3	367
2	5013	1	5	3	13	2	366
2	5013	1	5	4	24	2	386
2	5013	1	5	5	6	2	324
2	5013	1	5	6	30	1	458
2	5013	1	5	7	47	2	369
2	5013	1	5	8	38	1	309
2	5013	1	6	1	27	3	378
2	5013	1	6	2	46	3	306
2	5013	1	6	3	20	1	1021
2	5013	1	6	4	5	3	543
2	5013	1	6	5	39	2	576
2	5013	1	6	6	10	1	450
2	5013	1	6	7	18	2	659
2	5013	1	6	8	36	1	588
2	5013	1	7	1	40	3	409
2	5013	1	7	2	14	3	304
2	5013	1	7	3	3	1	404
2	5013	1	7	4	12	2	391
2	5013	1	7	5	22	1	377
2	5013	1	7	6	48	3	447
2	5013	1	7	7	31	2	429
2	5013	1	7	8	25	3	381
2	5013	1	8	1	17	3	440
2	5013	1	8	2	1	2	374
2	5013	1	8	3	36	1	384
2	5013	1	8	4	11	3	476
2	5013	1	8	5	38	1	396
2	5013	1	8	6	45	2	468
2	5013	1	8	7	20	3	423
2	5013	1	8	8	27	3	472
2	5013	1	9	1	39	2	1170
2	5013	1	9	2	32	3	685
2	5013	1	9	3	13	3	1212
2	5013	1	9	4	21	3	989
2	5013	1	9	5	7	2	465
2	5013	1	9	6	6	2	325
2	5013	1	9	7	30	1	314
2	5013	1	9	8	46	3	325
2	5013	1	10	1	9	1	322
2	5013	1	10	2	47	2	337
2	5013	1	10	3	16	1	294
2	5013	1	10	4	23	3	365
2	5013	1	10	5	4	1	1262
2	5013	1	10	6	33	3	344
2	5013	1	10	7	42	3	339
2	5013	1	10	8	28	2	350
2	5013	1	11	1	8	1	507
2	5013	1	11	2	29	1	340
2	5013	1	11	3	15	1	416
2	5013	1	11	4	37	1	307
2	5013	1	11	5	24	2	306
2	5013	1	11	6	5	3	359
2	5013	1	11	7	43	1	382
2	5013	1	11	8	35	1	559
2	5013	1	12	1	10	1	528
2	5013	1	12	2	18	2	354
2	5013	1	12	3	19	2	315
2	5013	1	12	4	44	1	584
2	5013	1	12	5	26	2	734
2	5013	1	12	6	2	2	634
2	5013	1	12	7	34	2	903
2	5013	1	12	8	41	2	486
2	5013	2	1	1	0	4	10159
2	5013	2	1	2	0	2	3288
2	5013	2	1	3	0	1	6633
2	5013	2	1	4	0	1	4421
2	5013	2	1	5	0	2	6377
2	5013	2	1	6	0	2	2593
2	5013	2	1	7	0	4	2356
2	5013	2	1	8	0	4	1530
2	5013	2	1	9	0	2	1953
2	5013	2	1	10	0	2	3184
2	5013	2	1	11	0	4	3854
2	5013	2	1	12	0	3	1792
2	5013	2	1	13	0	4	2500
2	5013	2	1	14	0	3	1957
2	5013	2	1	15	0	3	2850
2	5013	2	1	16	0	1	2053
2	5013	2	1	17	0	3	1672
2	5013	2	1	18	0	3	3337
2	5013	2	1	19	0	2	2624
2	5013	2	1	20	0	4	1692
2	5013	2	1	21	0	1	4740
2	5013	2	1	22	0	3	2452
2	5013	2	1	23	0	2	3127
2	5013	2	1	24	0	1	1893
2	5013	2	1	25	0	2	3534
2	5013	2	1	26	0	3	4198
2	5013	2	1	27	0	2	4723
2	5013	2	1	28	0	4	3171
2	5013	2	1	29	0	4	1504
2	5013	2	1	30	0	4	993
2	5014	1	1	1	21	2	939
2	5014	1	1	2	29	1	441
2	5014	1	1	3	1	2	388
2	5014	1	1	4	8	3	380
2	5014	1	1	5	44	1	554
2	5014	1	1	6	32	2	725
2	5014	1	1	7	38	1	508
2	5014	1	1	8	16	1	342
2	5014	1	2	1	34	2	311
2	5014	1	2	2	17	3	349
2	5014	1	2	3	30	1	340
2	5014	1	2	4	2	3	297
2	5014	1	2	5	10	1	289
2	5014	1	2	6	43	1	666
2	5014	1	2	7	40	3	1002
2	5014	1	2	8	20	3	429
2	5014	1	3	1	4	1	330
2	5014	1	3	2	31	2	1653
2	5014	1	3	3	13	2	345
2	5014	1	3	4	23	3	335
2	5014	1	3	5	42	3	354
2	5014	1	3	6	28	2	247
2	5014	1	3	7	46	3	491
2	5014	1	3	8	11	3	265
2	5014	1	4	1	39	2	348
2	5014	1	4	2	14	3	322
2	5014	1	4	3	47	2	290
2	5014	1	4	4	6	2	283
2	5014	1	4	5	36	1	279
2	5014	1	4	6	19	2	279
2	5014	1	4	7	7	2	283
2	5014	1	4	8	25	3	285
2	5014	1	5	1	37	1	309
2	5014	1	5	2	45	2	261
2	5014	1	5	3	9	1	52
2	5014	1	5	4	22	1	424
2	5014	1	5	5	15	1	350
2	5014	1	5	6	26	2	285
2	5014	1	5	7	5	3	262
2	5014	1	5	8	35	1	277
2	5014	1	6	1	41	2	197
2	5014	1	6	2	48	3	323
2	5014	1	6	3	3	1	284
2	5014	1	6	4	27	3	311
2	5014	1	6	5	24	2	392
2	5014	1	6	6	18	2	232
2	5014	1	6	7	33	3	237
2	5014	1	6	8	12	2	218
2	5014	1	7	1	14	3	335
2	5014	1	7	2	42	3	65
2	5014	1	7	3	45	2	82
2	5014	1	7	4	36	1	255
2	5014	1	7	5	25	3	174
2	5014	1	7	6	8	3	268
2	5014	1	7	7	6	2	279
2	5014	1	7	8	20	3	455
2	5014	1	8	1	10	1	333
2	5014	1	8	2	48	3	362
2	5014	1	8	3	28	2	289
2	5014	1	8	4	2	3	477
2	5014	1	8	5	19	2	320
2	5014	1	8	6	39	2	228
2	5014	1	8	7	16	1	314
2	5014	1	8	8	32	2	237
2	5014	1	9	1	15	1	300
2	5014	1	9	2	3	1	287
2	5014	1	9	3	43	1	268
2	5014	1	9	4	27	3	223
2	5014	1	9	5	37	1	322
2	5014	1	9	6	12	2	188
2	5014	1	9	7	22	1	262
2	5014	1	9	8	34	2	308
2	5014	1	10	1	13	2	308
2	5014	1	10	2	47	2	292
2	5014	1	10	3	30	1	256
2	5014	1	10	4	5	3	252
2	5014	1	10	5	23	3	273
2	5014	1	10	6	33	3	275
2	5014	1	10	7	38	1	246
2	5014	1	10	8	7	2	254
2	5014	1	11	1	29	1	246
2	5014	1	11	2	17	3	343
2	5014	1	11	3	4	1	242
2	5014	1	11	4	11	3	351
2	5014	1	11	5	35	1	256
2	5014	1	11	6	40	1	572
2	5014	1	11	7	24	1	436
2	5014	1	11	8	46	3	444
2	5014	1	12	1	26	2	221
2	5014	1	12	2	21	1	460
2	5014	1	12	3	1	2	267
2	5014	1	12	4	9	1	320
2	5014	1	12	5	31	3	331
2	5014	1	12	6	18	2	253
2	5014	1	12	7	44	1	259
2	5014	1	12	8	41	2	281
2	5014	2	1	1	0	2	9284
2	5014	2	1	2	0	3	6175
2	5014	2	1	3	0	4	3903
2	5014	2	1	4	0	3	3431
2	5014	2	1	5	0	3	2771
2	5014	2	1	6	0	2	2882
2	5014	2	1	7	0	3	2778
2	5014	2	1	8	0	3	2832
2	5014	2	1	9	0	3	2771
2	5014	2	1	10	0	2	1849
2	5014	2	1	11	0	1	3747
2	5014	2	1	12	0	2	2682
2	5014	2	1	13	0	2	3716
2	5014	2	1	14	0	3	4019
2	5014	2	1	15	0	2	3408
2	5014	2	1	16	0	1	2421
2	5014	2	1	17	0	2	1777
2	5014	2	1	18	0	3	5541
2	5014	2	1	19	0	2	1733
2	5014	2	1	20	0	2	2204
2	5014	2	1	21	0	1	2248
2	5014	2	1	22	0	3	2859
2	5014	2	1	23	0	4	2901
2	5014	2	1	24	0	1	2149
2	5014	2	1	25	0	3	4524
2	5014	2	1	26	0	2	3364
2	5014	2	1	27	0	1	2842
2	5014	2	1	28	0	3	5277
2	5014	2	1	29	0	2	3096
2	5014	2	1	30	0	3	3360
2	5017	1	1	1	27	2	2173
2	5017	1	1	2	41	2	1243
2	5017	1	1	3	45	2	1197
2	5017	1	1	4	5	3	1268
2	5017	1	1	5	33	3	919
2	5017	1	1	6	11	3	880
2	5017	1	1	7	19	2	542
2	5017	1	1	8	14	3	981
2	5017	1	2	1	36	1	350
2	5017	1	2	2	43	1	911
2	5017	1	2	3	20	3	1042
2	5017	1	2	4	4	1	583
2	5017	1	2	5	39	2	821
2	5017	1	2	6	17	3	590
2	5017	1	2	7	26	2	409
2	5017	1	2	8	8	3	657
2	5017	1	3	1	38	1	595
2	5017	1	3	2	25	3	541
2	5017	1	3	3	7	2	560
2	5017	1	3	4	3	1	698
2	5017	1	3	5	23	3	760
2	5017	1	3	6	32	2	877
2	5017	1	3	7	44	1	438
2	5017	1	3	8	16	1	668
2	5017	1	4	1	46	3	464
2	5017	1	4	2	24	2	733
2	5017	1	4	3	28	2	494
2	5017	1	4	4	1	2	1170
2	5017	1	4	5	35	1	701
2	5017	1	4	6	10	1	399
2	5017	1	4	7	15	1	418
2	5017	1	4	8	40	3	471
2	5017	1	5	1	9	1	577
2	5017	1	5	2	21	1	535
2	5017	1	5	3	2	3	511
2	5017	1	5	4	47	2	373
2	5017	1	5	5	37	1	799
2	5017	1	5	6	29	1	422
2	5017	1	5	7	13	2	350
2	5017	1	5	8	34	2	491
2	5017	1	6	1	12	2	633
2	5017	1	6	2	48	3	498
2	5017	1	6	3	42	3	488
2	5017	1	6	4	18	2	607
2	5017	1	6	5	22	1	500
2	5017	1	6	6	31	3	468
2	5017	1	6	7	6	2	354
2	5017	1	6	8	30	1	484
2	5017	1	7	1	15	1	328
2	5017	1	7	2	44	1	518
2	5017	1	7	3	33	3	450
2	5017	1	7	4	26	2	432
2	5017	1	7	5	1	2	709
2	5017	1	7	6	11	3	627
2	5017	1	7	7	37	1	522
2	5017	1	7	8	24	2	327
2	5017	1	8	1	35	1	415
2	5017	1	8	2	18	2	305
2	5017	1	8	3	45	2	439
2	5017	1	8	4	27	3	392
2	5017	1	8	5	23	3	688
2	5017	1	8	6	9	1	403
2	5017	1	8	7	41	2	370
2	5017	1	8	8	3	1	338
2	5017	1	9	1	34	2	261
2	5017	1	9	2	39	2	889
2	5017	1	9	3	10	1	512
2	5017	1	9	4	2	3	379
2	5017	1	9	5	25	3	395
2	5017	1	9	6	13	2	396
2	5017	1	9	7	47	2	411
2	5017	1	9	8	21	1	401
2	5017	1	10	1	5	3	449
2	5017	1	10	2	38	1	535
2	5017	1	10	3	17	3	450
2	5017	1	10	4	28	2	511
2	5017	1	10	5	48	3	516
2	5017	1	10	6	32	2	1197
2	5017	1	10	7	7	2	796
2	5017	1	10	8	20	3	693
2	5017	1	11	1	42	3	345
2	5017	1	11	2	19	2	593
2	5017	1	11	3	31	3	509
2	5017	1	11	4	43	1	542
2	5017	1	11	5	12	2	510
2	5017	1	11	6	4	1	340
2	5017	1	11	7	29	1	391
2	5017	1	11	8	16	1	555
2	5017	1	12	1	36	1	390
2	5017	1	12	2	6	2	596
2	5017	1	12	3	40	3	430
2	5017	1	12	4	30	1	709
2	5017	1	12	5	46	3	533
2	5017	1	12	6	8	3	422
2	5017	1	12	7	22	1	422
2	5017	1	12	8	14	3	376
2	5017	2	1	1	0	3	7224
2	5017	2	1	2	0	2	4806
2	5017	2	1	3	0	3	3355
2	5017	2	1	4	0	2	5352
2	5017	2	1	5	0	2	3792
2	5017	2	1	6	0	3	3349
2	5017	2	1	7	0	3	5100
2	5017	2	1	8	0	2	3325
2	5017	2	1	9	0	1	4941
2	5017	2	1	10	0	3	2541
2	5017	2	1	11	0	3	4467
2	5017	2	1	12	0	2	2165
2	5017	2	1	13	0	3	4923
2	5017	2	1	14	0	1	3908
2	5017	2	1	15	0	2	3947
2	5017	2	1	16	0	1	3603
2	5017	2	1	17	0	2	4256
2	5017	2	1	18	0	4	4067
2	5017	2	1	19	0	2	2380
2	5017	2	1	20	0	2	2162
2	5017	2	1	21	0	1	2608
2	5017	2	1	22	0	2	2804
2	5017	2	1	23	0	3	3744
2	5017	2	1	24	0	2	2911
2	5017	2	1	25	0	1	3263
2	5017	2	1	26	0	2	3609
2	5017	2	1	27	0	2	6957
2	5017	2	1	28	0	4	3525
2	5017	2	1	29	0	2	2653
2	5017	2	1	30	0	2	2975
2	5018	1	1	1	4	2	1427
2	5018	1	1	2	38	1	1310
2	5018	1	1	3	48	3	594
2	5018	1	1	4	8	3	376
2	5018	1	1	5	35	1	590
2	5018	1	1	6	18	2	674
2	5018	1	1	7	28	2	815
2	5018	1	1	8	21	1	379
2	5018	1	2	1	41	2	573
2	5018	1	2	2	36	1	430
2	5018	1	2	3	44	1	529
2	5018	1	2	4	30	1	508
2	5018	1	2	5	7	2	606
2	5018	1	2	6	2	3	346
2	5018	1	2	7	16	1	344
2	5018	1	2	8	24	2	410
2	5018	1	3	1	17	3	296
2	5018	1	3	2	42	3	405
2	5018	1	3	3	6	2	376
2	5018	1	3	4	22	1	1616
2	5018	1	3	5	11	3	435
2	5018	1	3	6	26	2	358
2	5018	1	3	7	45	2	309
2	5018	1	3	8	31	3	739
2	5018	1	4	1	27	3	255
2	5018	1	4	2	5	1	2915
2	5018	1	4	3	13	2	530
2	5018	1	4	4	40	3	323
2	5018	1	4	5	46	3	338
2	5018	1	4	6	33	3	281
2	5018	1	4	7	19	2	302
2	5018	1	4	8	12	2	278
2	5018	1	5	1	3	1	290
2	5018	1	5	2	39	2	462
2	5018	1	5	3	47	2	312
2	5018	1	5	4	20	3	425
2	5018	1	5	5	15	1	298
2	5018	1	5	6	29	1	274
2	5018	1	5	7	32	2	294
2	5018	1	5	8	10	1	268
2	5018	1	6	1	14	3	304
2	5018	1	6	2	37	1	226
2	5018	1	6	3	23	3	300
2	5018	1	6	4	43	1	326
2	5018	1	6	5	9	1	250
2	5018	1	6	6	1	2	316
2	5018	1	6	7	34	2	280
2	5018	1	6	8	25	3	331
2	5018	1	7	1	10	1	339
2	5018	1	7	2	41	2	403
2	5018	1	7	3	18	2	242
2	5018	1	7	4	28	2	224
2	5018	1	7	5	33	3	278
2	5018	1	7	6	47	2	258
2	5018	1	7	7	22	1	291
2	5018	1	7	8	4	1	376
2	5018	1	8	1	39	2	271
2	5018	1	8	2	35	1	262
2	5018	1	8	3	45	2	287
2	5018	1	8	4	27	3	263
2	5018	1	8	5	11	3	277
2	5018	1	8	6	24	2	285
2	5018	1	8	7	1	2	301
2	5018	1	8	8	15	1	248
2	5018	1	9	1	43	1	242
2	5018	1	9	2	38	1	267
2	5018	1	9	3	30	1	212
2	5018	1	9	4	16	1	271
2	5018	1	9	5	32	2	319
2	5018	1	9	6	20	3	269
2	5018	1	9	7	6	2	500
2	5018	1	9	8	9	1	265
2	5018	1	10	1	5	3	521
2	5018	1	10	2	37	1	234
2	5018	1	10	3	13	2	396
2	5018	1	10	4	44	1	343
2	5018	1	10	5	8	3	220
2	5018	1	10	6	19	2	261
2	5018	1	10	7	36	1	262
2	5018	1	10	8	26	2	279
2	5018	1	11	1	14	3	315
2	5018	1	11	2	29	1	313
2	5018	1	11	3	31	3	437
2	5018	1	11	4	3	1	230
2	5018	1	11	5	21	1	316
2	5018	1	11	6	40	3	346
2	5018	1	11	7	7	2	230
2	5018	1	11	8	46	3	232
2	5018	1	12	1	23	3	430
2	5018	1	12	2	2	3	278
2	5018	1	12	3	42	3	252
2	5018	1	12	4	34	2	225
2	5018	1	12	5	12	2	283
2	5018	1	12	6	17	3	283
2	5018	1	12	7	48	3	283
2	5018	1	12	8	25	3	292
2	5018	2	1	1	0	3	8402
2	5018	2	1	2	0	1	8240
2	5018	2	1	3	0	2	6957
2	5018	2	1	4	0	3	6277
2	5018	2	1	5	0	2	4296
2	5018	2	1	6	0	2	5985
2	5018	2	1	7	0	4	2600
2	5018	2	1	8	0	4	2029
2	5018	2	1	9	0	3	2375
2	5018	2	1	10	0	1	3173
2	5018	2	1	11	0	3	4218
2	5018	2	1	12	0	3	1783
2	5018	2	1	13	0	1	4940
2	5018	2	1	14	0	1	3747
2	5018	2	1	15	0	2	2730
2	5018	2	1	16	0	1	4018
2	5018	2	1	17	0	1	2751
2	5018	2	1	18	0	2	4165
2	5018	2	1	19	0	2	6131
2	5018	2	1	20	0	2	16131
2	5018	2	1	21	0	1	2209
2	5018	2	1	22	0	3	2637
2	5018	2	1	23	0	2	3398
2	5018	2	1	24	0	2	2715
2	5018	2	1	25	0	3	3908
2	5018	2	1	26	0	2	3436
2	5018	2	1	27	0	2	4840
2	5018	2	1	28	0	3	3955
2	5018	2	1	29	0	3	1922
2	5018	2	1	30	0	4	9177
2	5019	1	1	1	24	2	920
2	5019	1	1	2	41	2	849
2	5019	1	1	3	9	1	829
2	5019	1	1	4	32	2	535
2	5019	1	1	5	3	1	1238
2	5019	1	1	6	25	3	957
2	5019	1	1	7	17	3	750
2	5019	1	1	8	47	2	2448
2	5019	1	2	1	30	1	742
2	5019	1	2	2	16	3	626
2	5019	1	2	3	6	3	995
2	5019	1	2	4	11	3	6133
2	5019	1	2	5	31	3	1101
2	5019	1	2	6	45	2	904
2	5019	1	2	7	39	2	1422
2	5019	1	2	8	21	1	701
2	5019	1	3	1	38	1	1305
2	5019	1	3	2	46	3	1241
2	5019	1	3	3	19	2	679
2	5019	1	3	4	10	1	750
2	5019	1	3	5	18	2	1968
2	5019	1	3	6	29	1	985
2	5019	1	3	7	33	3	818
2	5019	1	3	8	2	3	1006
2	5019	1	4	1	13	2	1290
2	5019	1	4	2	35	1	1044
2	5019	1	4	3	44	1	1497
2	5019	1	4	4	40	3	1285
2	5019	1	4	5	1	2	1881
2	5019	1	4	6	27	3	1549
2	5019	1	4	7	20	3	816
2	5019	1	4	8	12	2	1315
2	5019	1	5	1	22	1	750
2	5019	1	5	2	28	2	2129
2	5019	1	5	3	34	2	872
2	5019	1	5	4	5	3	679
2	5019	1	5	5	15	1	1064
2	5019	1	5	6	7	2	1025
2	5019	1	5	7	43	1	1904
2	5019	1	5	8	42	3	919
2	5019	1	6	1	23	3	844
2	5019	1	6	2	8	3	2324
2	5019	1	6	3	26	2	1025
2	5019	1	6	4	4	1	717
2	5019	1	6	5	14	3	747
2	5019	1	6	6	37	1	640
2	5019	1	6	7	48	3	1104
2	5019	1	6	8	36	1	896
2	5019	1	7	1	18	2	835
2	5019	1	7	2	10	1	1236
2	5019	1	7	3	24	2	1091
2	5019	1	7	4	30	1	622
2	5019	1	7	5	39	2	1382
2	5019	1	7	6	33	3	681
2	5019	1	7	7	3	1	628
2	5019	1	7	8	47	2	639
2	5019	1	8	1	34	2	998
2	5019	1	8	2	41	2	651
2	5019	1	8	3	13	3	515
2	5019	1	8	4	28	2	665
2	5019	1	8	5	7	2	427
2	5019	1	8	6	48	3	479
2	5019	1	8	7	5	3	605
2	5019	1	8	8	22	1	479
2	5019	1	9	1	40	3	1483
2	5019	1	9	2	9	1	784
2	5019	1	9	3	23	3	1197
2	5019	1	9	4	2	3	816
2	5019	1	9	5	32	2	1345
2	5019	1	9	6	25	3	538
2	5019	1	9	7	14	3	768
2	5019	1	9	8	45	2	598
2	5019	1	10	1	35	1	889
2	5019	1	10	2	12	2	395
2	5019	1	10	3	26	2	518
2	5019	1	10	4	37	1	912
2	5019	1	10	5	19	2	378
2	5019	1	10	6	43	1	1141
2	5019	1	10	7	16	2	850
2	5019	1	10	8	4	1	1013
2	5019	1	11	1	36	1	894
2	5019	1	11	2	17	3	821
2	5019	1	11	3	8	3	966
2	5019	1	11	4	20	3	795
2	5019	1	11	5	46	3	416
2	5019	1	11	6	27	3	665
2	5019	1	11	7	1	2	869
2	5019	1	11	8	42	3	608
2	5019	1	12	1	6	2	391
2	5019	1	12	2	44	1	868
2	5019	1	12	3	38	1	439
2	5019	1	12	4	11	3	468
2	5019	1	12	5	31	3	1092
2	5019	1	12	6	15	1	268
2	5019	1	12	7	21	1	615
2	5019	1	12	8	29	1	516
2	5019	2	1	1	0	2	8377
2	5019	2	1	2	0	3	6456
2	5019	2	1	3	0	2	3315
2	5019	2	1	4	0	1	3811
2	5019	2	1	5	0	3	4719
2	5019	2	1	6	0	3	4894
2	5019	2	1	7	0	1	4672
2	5019	2	1	8	0	2	2977
2	5019	2	1	9	0	2	3711
2	5019	2	1	10	0	4	4695
2	5019	2	1	11	0	3	5152
2	5019	2	1	12	0	2	2191
2	5019	2	1	13	0	2	5220
2	5019	2	1	14	0	4	5504
2	5019	2	1	15	0	2	4369
2	5019	2	1	16	0	1	3319
2	5019	2	1	17	0	2	3486
2	5019	2	1	18	0	2	8104
2	5019	2	1	19	0	2	3433
2	5019	2	1	20	0	3	2109
2	5019	2	1	21	0	1	2892
2	5019	2	1	22	0	3	3709
2	5019	2	1	23	0	3	3661
2	5019	2	1	24	0	2	5199
2	5019	2	1	25	0	1	5220
2	5019	2	1	26	0	2	3449
2	5019	2	1	27	0	3	7764
2	5019	2	1	28	0	2	3899
2	5019	2	1	29	0	3	1747
2	5019	2	1	30	0	2	2265
2	5020	1	1	1	33	2	1043
2	5020	1	1	2	13	3	536
2	5020	1	1	3	24	3	1243
2	5020	1	1	4	3	1	898
2	5020	1	1	5	9	1	537
2	5020	1	1	6	37	2	998
2	5020	1	1	7	29	1	508
2	5020	1	1	8	43	1	1165
2	5020	1	2	1	1	2	1030
2	5020	1	2	2	15	1	574
2	5020	1	2	3	47	2	953
2	5020	1	2	4	21	1	504
2	5020	1	2	5	12	2	386
2	5020	1	2	6	39	3	2040
2	5020	1	2	7	31	3	549
2	5020	1	2	8	28	2	459
2	5020	1	3	1	20	3	602
2	5020	1	3	2	7	2	459
2	5020	1	3	3	27	3	546
2	5020	1	3	4	14	3	388
2	5020	1	3	5	40	2	1010
2	5020	1	3	6	46	2	1164
2	5020	1	3	7	5	3	387
2	5020	1	3	8	34	2	367
2	5020	1	4	1	38	2	832
2	5020	1	4	2	16	1	832
2	5020	1	4	3	44	1	816
2	5020	1	4	4	32	2	315
2	5020	1	4	5	10	1	381
2	5020	1	4	6	25	3	362
2	5020	1	4	7	4	1	361
2	5020	1	4	8	23	3	532
2	5020	1	5	1	45	1	857
2	5020	1	5	2	17	3	490
2	5020	1	5	3	22	1	360
2	5020	1	5	4	11	3	509
2	5020	1	5	5	36	1	399
2	5020	1	5	6	42	3	636
2	5020	1	5	7	6	2	502
2	5020	1	5	8	30	1	300
2	5020	1	6	1	35	1	1337
2	5020	1	6	2	8	3	456
2	5020	1	6	3	19	2	414
2	5020	1	6	4	26	2	380
2	5020	1	6	5	18	2	405
2	5020	1	6	6	41	2	893
2	5020	1	6	7	2	3	1246
2	5020	1	6	8	48	2	366
2	5020	1	7	1	34	2	436
2	5020	1	7	2	25	3	348
2	5020	1	7	3	20	3	389
2	5020	1	7	4	7	2	419
2	5020	1	7	5	39	2	2380
2	5020	1	7	6	44	1	358
2	5020	1	7	7	16	1	349
2	5020	1	7	8	5	3	399
2	5020	1	8	1	37	1	584
2	5020	1	8	2	32	2	393
2	5020	1	8	3	27	3	588
2	5020	1	8	4	8	3	669
2	5020	1	8	5	21	1	420
2	5020	1	8	6	2	3	615
2	5020	1	8	7	47	2	466
2	5020	1	8	8	13	2	360
2	5020	1	9	1	45	2	360
2	5020	1	9	2	15	1	403
2	5020	1	9	3	26	2	389
2	5020	1	9	4	31	3	605
2	5020	1	9	5	41	2	751
2	5020	1	9	6	22	1	345
2	5020	1	9	7	12	2	366
2	5020	1	9	8	1	2	384
2	5020	1	10	1	48	3	912
2	5020	1	10	2	28	2	345
2	5020	1	10	3	10	1	445
2	5020	1	10	4	23	3	947
2	5020	1	10	5	40	2	987
2	5020	1	10	6	36	1	393
2	5020	1	10	7	14	3	880
2	5020	1	10	8	3	1	773
2	5020	1	11	1	33	3	282
2	5020	1	11	2	38	1	900
2	5020	1	11	3	43	1	332
2	5020	1	11	4	9	1	334
2	5020	1	11	5	24	2	392
2	5020	1	11	6	18	2	356
2	5020	1	11	7	30	1	408
2	5020	1	11	8	6	2	365
2	5020	1	12	1	46	1	354
2	5020	1	12	2	29	1	447
2	5020	1	12	3	11	3	770
2	5020	1	12	4	17	3	353
2	5020	1	12	5	4	1	274
2	5020	1	12	6	19	2	471
2	5020	1	12	7	42	3	766
2	5020	1	12	8	35	1	305
2	5020	2	1	1	0	3	8530
2	5020	2	1	2	0	2	4682
2	5020	2	1	3	0	1	3604
2	5020	2	1	4	0	2	3553
2	5020	2	1	5	0	2	2904
2	5020	2	1	6	0	2	3320
2	5020	2	1	7	0	3	2352
2	5020	2	1	8	0	2	3871
2	5020	2	1	9	0	2	1753
2	5020	2	1	10	0	4	3095
2	5020	2	1	11	0	2	4480
2	5020	2	1	12	0	2	2209
2	5020	2	1	13	0	3	2189
2	5020	2	1	14	0	2	1641
2	5020	2	1	15	0	3	2539
2	5020	2	1	16	0	1	2849
2	5020	2	1	17	0	3	2740
2	5020	2	1	18	0	2	3146
2	5020	2	1	19	0	2	2457
2	5020	2	1	20	0	3	1531
2	5020	2	1	21	0	2	2633
2	5020	2	1	22	0	3	2165
2	5020	2	1	23	0	3	2658
2	5020	2	1	24	0	2	2428
2	5020	2	1	25	0	1	4143
2	5020	2	1	26	0	3	2134
2	5020	2	1	27	0	2	2301
2	5020	2	1	28	0	3	3021
2	5020	2	1	29	0	1	1625
2	5020	2	1	30	0	2	2627
2	5021	1	1	1	34	3	921
2	5021	1	1	2	12	2	1896
2	5021	1	1	3	30	2	564
2	5021	1	1	4	1	3	614
2	5021	1	1	5	21	2	527
2	5021	1	1	6	16	2	733
2	5021	1	1	7	46	1	423
2	5021	1	1	8	42	1	531
2	5021	1	2	1	4	2	694
2	5021	1	2	2	11	2	831
2	5021	1	2	3	43	2	629
2	5021	1	2	4	19	1	1561
2	5021	1	2	5	25	3	878
2	5021	1	2	6	40	3	602
2	5021	1	2	7	14	2	794
2	5021	1	2	8	36	3	454
2	5021	1	3	1	5	1	441
2	5021	1	3	2	37	2	531
2	5021	1	3	3	27	2	851
2	5021	1	3	4	7	2	582
2	5021	1	3	5	23	3	451
2	5021	1	3	6	48	3	1363
2	5021	1	3	7	35	1	1333
2	5021	1	3	8	15	1	630
2	5021	1	4	1	41	2	704
2	5021	1	4	2	31	1	591
2	5021	1	4	3	24	2	577
2	5021	1	4	4	9	1	483
2	5021	1	4	5	47	3	475
2	5021	1	4	6	13	2	503
2	5021	1	4	7	2	3	586
2	5021	1	4	8	28	2	568
2	5021	1	5	1	10	1	633
2	5021	1	5	2	17	3	568
2	5021	1	5	3	33	2	1115
2	5021	1	5	4	44	1	719
2	5021	1	5	5	26	2	461
2	5021	1	5	6	20	3	533
2	5021	1	5	7	39	2	618
2	5021	1	5	8	6	2	484
2	5021	1	6	1	8	3	478
2	5021	1	6	2	32	2	655
2	5021	1	6	3	22	1	1142
2	5021	1	6	4	38	1	747
2	5021	1	6	5	3	1	471
2	5021	1	6	6	29	1	649
2	5021	1	6	7	45	2	498
2	5021	1	6	8	18	2	372
2	5021	1	7	1	25	3	418
2	5021	1	7	2	36	1	616
2	5021	1	7	3	7	2	347
2	5021	1	7	4	15	1	362
2	5021	1	7	5	41	2	420
2	5021	1	7	6	21	1	689
2	5021	1	7	7	43	1	529
2	5021	1	7	8	4	1	822
2	5021	1	8	1	48	3	432
2	5021	1	8	2	24	2	369
2	5021	1	8	3	17	3	394
2	5021	1	8	4	1	2	368
2	5021	1	8	5	42	3	557
2	5021	1	8	6	26	2	533
2	5021	1	8	7	10	1	455
2	5021	1	8	8	31	3	643
2	5021	1	9	1	8	3	705
2	5021	1	9	2	2	3	549
2	5021	1	9	3	33	3	558
2	5021	1	9	4	22	1	504
2	5021	1	9	5	39	2	390
2	5021	1	9	6	30	1	609
2	5021	1	9	7	16	1	386
2	5021	1	9	8	46	3	418
2	5021	1	10	1	13	2	503
2	5021	1	10	2	6	2	360
2	5021	1	10	3	9	1	468
2	5021	1	10	4	34	2	547
2	5021	1	10	5	19	2	437
2	5021	1	10	6	40	3	397
2	5021	1	10	7	47	2	354
2	5021	1	10	8	28	2	320
2	5021	1	11	1	23	3	787
2	5021	1	11	2	44	1	857
2	5021	1	11	3	5	3	403
2	5021	1	11	4	14	2	633
2	5021	1	11	5	32	2	464
2	5021	1	11	6	27	3	357
2	5021	1	11	7	11	3	609
2	5021	1	11	8	38	1	357
2	5021	1	12	1	45	2	504
2	5021	1	12	2	37	1	629
2	5021	1	12	3	35	1	589
2	5021	1	12	4	3	1	1466
2	5021	1	12	5	20	3	508
2	5021	1	12	6	12	2	468
2	5021	1	12	7	18	2	426
2	5021	1	12	8	29	1	395
2	5021	2	1	1	0	3	9106
2	5021	2	1	2	0	2	4338
2	5021	2	1	3	0	2	5617
2	5021	2	1	4	0	3	4102
2	5021	2	1	5	0	3	6191
2	5021	2	1	6	0	4	4068
2	5021	2	1	7	0	2	4695
2	5021	2	1	8	0	4	5680
2	5021	2	1	9	0	2	5434
2	5021	2	1	10	0	1	3302
2	5021	2	1	11	0	2	5655
2	5021	2	1	12	0	3	5160
2	5021	2	1	13	0	1	3407
2	5021	2	1	14	0	2	2483
2	5021	2	1	15	0	2	5404
2	5021	2	1	16	0	3	7097
2	5021	2	1	17	0	2	4483
2	5021	2	1	18	0	3	3205
2	5021	2	1	19	0	2	2017
2	5021	2	1	20	0	3	2565
2	5021	2	1	21	0	1	3275
2	5021	2	1	22	0	2	2076
2	5021	2	1	23	0	2	3477
2	5021	2	1	24	0	3	2206
2	5021	2	1	25	0	3	3330
2	5021	2	1	26	0	3	3040
2	5021	2	1	27	0	2	4002
2	5021	2	1	28	0	2	3847
2	5021	2	1	29	0	3	1474
2	5021	2	1	30	0	2	1315
2	5022	1	1	1	24	2	4696
2	5022	1	1	2	40	3	954
2	5022	1	1	3	33	3	3371
2	5022	1	1	4	9	2	318
2	5022	1	1	5	27	3	403
2	5022	1	1	6	16	2	1619
2	5022	1	1	7	6	1	1074
2	5022	1	1	8	48	2	2418
2	5022	1	2	1	3	1	1364
2	5022	1	2	2	29	1	1771
2	5022	1	2	3	37	1	475
2	5022	1	2	4	18	1	1009
2	5022	1	2	5	45	2	805
2	5022	1	2	6	20	3	756
2	5022	1	2	7	12	2	790
2	5022	1	2	8	32	2	350
2	5022	1	3	1	14	3	1729
2	5022	1	3	2	36	1	613
2	5022	1	3	3	19	1	1194
2	5022	1	3	4	39	2	219
2	5022	1	3	5	1	2	939
2	5022	1	3	6	46	3	384
2	5022	1	3	7	30	1	489
2	5022	1	3	8	10	1	382
2	5022	1	4	1	42	2	233
2	5022	1	4	2	23	2	344
2	5022	1	4	3	11	3	346
2	5022	1	4	4	31	3	333
2	5022	1	4	5	47	2	1793
2	5022	1	4	6	28	1	297
2	5022	1	4	7	13	3	454
2	5022	1	4	8	2	2	1044
2	5022	1	5	1	38	1	867
2	5022	1	5	2	25	3	239
2	5022	1	5	3	44	1	277
2	5022	1	5	4	17	3	283
2	5022	1	5	5	7	2	912
2	5022	1	5	6	34	2	283
2	5022	1	5	7	5	3	528
2	5022	1	5	8	22	2	787
2	5022	1	6	1	43	1	252
2	5022	1	6	2	41	2	1572
2	5022	1	6	3	15	3	239
2	5022	1	6	4	26	2	311
2	5022	1	6	5	35	1	1604
2	5022	1	6	6	21	2	341
2	5022	1	6	7	8	2	667
2	5022	1	6	8	4	1	366
2	5022	1	7	1	32	2	405
2	5022	1	7	2	1	2	296
2	5022	1	7	3	17	3	437
2	5022	1	7	4	30	1	292
2	5022	1	7	5	12	2	255
2	5022	1	7	6	19	2	302
2	5022	1	7	7	37	1	291
2	5022	1	7	8	44	1	263
2	5022	1	8	1	33	1	574
2	5022	1	8	2	25	3	217
2	5022	1	8	3	38	1	256
2	5022	1	8	4	9	1	192
2	5022	1	8	5	22	1	258
2	5022	1	8	6	48	3	241
2	5022	1	8	7	18	3	762
2	5022	1	8	8	5	3	220
2	5022	1	9	1	28	2	237
2	5022	1	9	2	40	3	269
2	5022	1	9	3	36	1	831
2	5022	1	9	4	20	3	242
2	5022	1	9	5	45	2	509
2	5022	1	9	6	6	2	241
2	5022	1	9	7	14	3	394
2	5022	1	9	8	11	3	234
2	5022	1	10	1	23	3	190
2	5022	1	10	2	16	1	383
2	5022	1	10	3	4	2	392
2	5022	1	10	4	47	2	217
2	5022	1	10	5	10	1	241
2	5022	1	10	6	39	1	580
2	5022	1	10	7	29	2	739
2	5022	1	10	8	35	1	219
2	5022	1	11	1	15	1	322
2	5022	1	11	2	34	1	378
2	5022	1	11	3	21	1	907
2	5022	1	11	4	42	3	272
2	5022	1	11	5	27	3	343
2	5022	1	11	6	8	3	203
2	5022	1	11	7	43	1	365
2	5022	1	11	8	2	3	200
2	5022	1	12	1	13	3	1232
2	5022	1	12	2	3	1	517
2	5022	1	12	3	24	2	260
2	5022	1	12	4	7	2	227
2	5022	1	12	5	41	2	267
2	5022	1	12	6	31	3	186
2	5022	1	12	7	26	2	939
2	5022	1	12	8	46	3	670
2	5022	2	1	1	0	2	5107
2	5022	2	1	2	0	4	6052
2	5022	2	1	3	0	4	5823
2	5022	2	1	4	0	3	2900
2	5022	2	1	5	0	2	2675
2	5022	2	1	6	0	4	2196
2	5022	2	1	7	0	2	1769
2	5022	2	1	8	0	3	2246
2	5022	2	1	9	0	2	1696
2	5022	2	1	10	0	1	1768
2	5022	2	1	11	0	4	2982
2	5022	2	1	12	0	1	1499
2	5022	2	1	13	0	2	1483
2	5022	2	1	14	0	4	1356
2	5022	2	1	15	0	1	2009
2	5022	2	1	16	0	1	1693
2	5022	2	1	17	0	4	1829
2	5022	2	1	18	0	4	2624
2	5022	2	1	19	0	4	1299
2	5022	2	1	20	0	1	1467
2	5022	2	1	21	0	3	2348
2	5022	2	1	22	0	4	2074
2	5022	2	1	23	0	3	2298
2	5022	2	1	24	0	3	1227
2	5022	2	1	25	0	2	3013
2	5022	2	1	26	0	2	2641
2	5022	2	1	27	0	4	1788
2	5022	2	1	28	0	4	1657
2	5022	2	1	29	0	1	1362
2	5022	2	1	30	0	2	2255
2	5027	1	1	1	11	2	1009
2	5027	1	1	2	23	2	829
2	5027	1	1	3	44	3	678
2	5027	1	1	4	6	2	1303
2	5027	1	1	5	39	3	587
2	5027	1	1	6	31	3	875
2	5027	1	1	7	13	2	823
2	5027	1	1	8	28	2	1345
2	5027	1	2	1	43	2	870
2	5027	1	2	2	9	3	1075
2	5027	1	2	3	20	3	1010
2	5027	1	2	4	42	2	1104
2	5027	1	2	5	26	2	1212
2	5027	1	2	6	2	3	878
2	5027	1	2	7	34	3	756
2	5027	1	2	8	17	1	352
2	5027	1	3	1	38	3	441
2	5027	1	3	2	3	1	381
2	5027	1	3	3	29	1	1158
2	5027	1	3	4	19	2	412
2	5027	1	3	5	35	2	544
2	5027	1	3	6	18	2	403
2	5027	1	3	7	7	2	787
2	5027	1	3	8	45	1	501
2	5027	1	4	1	24	2	387
2	5027	1	4	2	36	3	410
2	5027	1	4	3	12	2	607
2	5027	1	4	4	5	3	924
2	5027	1	4	5	47	3	908
2	5027	1	4	6	37	2	914
2	5027	1	4	7	30	2	1108
2	5027	1	4	8	15	2	907
2	5027	1	5	1	33	2	405
2	5027	1	5	2	27	3	632
2	5027	1	5	3	46	1	968
2	5027	1	5	4	14	3	1030
2	5027	1	5	5	21	1	360
2	5027	1	5	6	40	3	1193
2	5027	1	5	7	1	2	288
2	5027	1	5	8	10	1	911
2	5027	1	6	1	22	1	957
2	5027	1	6	2	8	3	1000
2	5027	1	6	3	41	3	1048
2	5027	1	6	4	48	3	1039
2	5027	1	6	5	4	1	722
2	5027	1	6	6	16	1	698
2	5027	1	6	7	32	1	949
2	5027	1	6	8	25	3	1262
2	5027	1	7	1	12	2	736
2	5027	1	7	2	21	1	925
2	5027	1	7	3	28	3	750
2	5027	1	7	4	33	2	883
2	5027	1	7	5	43	2	888
2	5027	1	7	6	6	2	916
2	5027	1	7	7	38	1	914
2	5027	1	7	8	17	2	886
2	5027	1	8	1	4	1	1111
2	5027	1	8	2	29	2	698
2	5027	1	8	3	35	2	1246
2	5027	1	8	4	23	3	1029
2	5027	1	8	5	18	2	784
2	5027	1	8	6	8	3	521
2	5027	1	8	7	40	3	4839
2	5027	1	8	8	45	2	1013
2	5027	1	9	1	27	1	580
2	5027	1	9	2	10	3	1182
2	5027	1	9	3	47	2	991
2	5027	1	9	4	16	1	439
2	5027	1	9	5	22	1	1020
2	5027	1	9	6	34	3	908
2	5027	1	9	7	1	2	825
2	5027	1	9	8	37	3	1166
2	5027	1	10	1	46	2	764
2	5027	1	10	2	14	1	1071
2	5027	1	10	3	9	1	746
2	5027	1	10	4	5	3	661
2	5027	1	10	5	39	3	1153
2	5027	1	10	6	26	3	4042
2	5027	1	10	7	31	2	610
2	5027	1	10	8	20	3	765
2	5027	1	11	1	32	3	361
2	5027	1	11	2	48	1	485
2	5027	1	11	3	30	3	1309
2	5027	1	11	4	24	2	2075
2	5027	1	11	5	15	1	495
2	5027	1	11	6	7	2	484
2	5027	1	11	7	2	3	645
2	5027	1	11	8	41	1	502
2	5027	1	12	1	3	1	891
2	5027	1	12	2	36	2	777
2	5027	1	12	3	44	3	1575
2	5027	1	12	4	25	2	606
2	5027	1	12	5	13	2	1845
2	5027	1	12	6	11	3	580
2	5027	1	12	7	19	2	2417
2	5027	1	12	8	42	3	863
2	5027	2	1	1	0	3	11312
2	5027	2	1	2	0	2	5379
2	5027	2	1	3	0	2	6393
2	5027	2	1	4	0	3	3791
2	5027	2	1	5	0	3	3964
2	5027	2	1	6	0	4	4010
2	5027	2	1	7	0	2	7117
2	5027	2	1	8	0	1	3702
2	5027	2	1	9	0	4	3615
2	5027	2	1	10	0	4	1971
2	5027	2	1	11	0	2	7040
2	5027	2	1	12	0	3	2564
2	5027	2	1	13	0	4	5314
2	5027	2	1	14	0	4	3539
2	5027	2	1	15	0	1	4097
2	5027	2	1	16	0	1	2362
2	5027	2	1	17	0	1	2463
2	5027	2	1	18	0	1	5201
2	5027	2	1	19	0	1	2534
2	5027	2	1	20	0	2	2597
2	5027	2	1	21	0	4	3170
2	5027	2	1	22	0	2	7023
2	5027	2	1	23	0	1	5172
2	5027	2	1	24	0	1	2250
2	5027	2	1	25	0	1	6180
2	5027	2	1	26	0	1	5554
2	5027	2	1	27	0	2	4729
2	5027	2	1	28	0	2	5097
2	5027	2	1	29	0	1	2306
2	5027	2	1	30	0	2	3434
2	5028	1	1	1	6	2	3834
2	5028	1	1	2	23	2	1167
2	5028	1	1	3	36	1	1481
2	5028	1	1	4	11	3	390
2	5028	1	1	5	46	3	1805
2	5028	1	1	6	39	2	583
2	5028	1	1	7	27	3	400
2	5028	1	1	8	17	3	1185
2	5028	1	2	1	31	3	706
2	5028	1	2	2	43	1	397
2	5028	1	2	3	1	2	711
2	5028	1	2	4	38	1	1045
2	5028	1	2	5	15	1	989
2	5028	1	2	6	30	1	1174
2	5028	1	2	7	21	1	767
2	5028	1	2	8	7	2	1957
2	5028	1	3	1	32	2	543
2	5028	1	3	2	29	1	349
2	5028	1	3	3	42	3	1163
2	5028	1	3	4	45	2	1507
2	5028	1	3	5	18	2	1035
2	5028	1	3	6	19	2	288
2	5028	1	3	7	3	1	335
2	5028	1	3	8	8	3	674
2	5028	1	4	1	14	3	517
2	5028	1	4	2	5	3	350
2	5028	1	4	3	12	2	712
2	5028	1	4	4	25	3	1047
2	5028	1	4	5	40	3	368
2	5028	1	4	6	35	1	840
2	5028	1	4	7	48	3	875
2	5028	1	4	8	20	3	501
2	5028	1	5	1	2	3	735
2	5028	1	5	2	47	2	883
2	5028	1	5	3	37	1	468
2	5028	1	5	4	28	2	871
2	5028	1	5	5	13	2	447
2	5028	1	5	6	9	1	528
2	5028	1	5	7	22	1	326
2	5028	1	5	8	34	2	330
2	5028	1	6	1	44	1	860
2	5028	1	6	2	10	1	609
2	5028	1	6	3	33	3	923
2	5028	1	6	4	26	2	385
2	5028	1	6	5	24	2	379
2	5028	1	6	6	16	1	1367
2	5028	1	6	7	41	2	505
2	5028	1	6	8	4	1	540
2	5028	1	7	1	9	1	535
2	5028	1	7	2	35	1	469
2	5028	1	7	3	42	3	424
2	5028	1	7	4	23	3	524
2	5028	1	7	5	14	3	369
2	5028	1	7	6	47	2	807
2	5028	1	7	7	28	2	527
2	5028	1	7	8	1	2	1225
2	5028	1	8	1	36	1	420
2	5028	1	8	2	38	1	442
2	5028	1	8	3	43	1	801
2	5028	1	8	4	8	3	898
2	5028	1	8	5	20	3	1360
2	5028	1	8	6	13	2	489
2	5028	1	8	7	4	1	529
2	5028	1	8	8	29	1	2007
2	5028	1	9	1	44	1	468
2	5028	1	9	2	39	2	813
2	5028	1	9	3	2	3	799
2	5028	1	9	4	33	3	513
2	5028	1	9	5	12	2	411
2	5028	1	9	6	25	2	1119
2	5028	1	9	7	21	1	495
2	5028	1	9	8	17	3	566
2	5028	1	10	1	34	2	392
2	5028	1	10	2	30	1	506
2	5028	1	10	3	7	2	448
2	5028	1	10	4	46	3	565
2	5028	1	10	5	41	2	503
2	5028	1	10	6	3	1	526
2	5028	1	10	7	24	2	678
2	5028	1	10	8	15	1	514
2	5028	1	11	1	11	3	320
2	5028	1	11	2	32	2	440
2	5028	1	11	3	40	3	371
2	5028	1	11	4	26	2	371
2	5028	1	11	5	19	2	363
2	5028	1	11	6	5	3	756
2	5028	1	11	7	45	2	447
2	5028	1	11	8	16	1	417
2	5028	1	12	1	37	1	360
2	5028	1	12	2	31	3	479
2	5028	1	12	3	18	2	352
2	5028	1	12	4	27	3	488
2	5028	1	12	5	6	2	528
2	5028	1	12	6	10	1	330
2	5028	1	12	7	22	1	333
2	5028	1	12	8	48	3	1208
2	5028	2	1	1	0	2	7267
2	5028	2	1	2	0	3	4142
2	5028	2	1	3	0	2	4005
2	5028	2	1	4	0	2	4666
2	5028	2	1	5	0	2	3196
2	5028	2	1	6	0	2	2896
2	5028	2	1	7	0	1	3969
2	5028	2	1	8	0	3	2039
2	5028	2	1	9	0	2	1729
2	5028	2	1	10	0	3	1728
2	5028	2	1	11	0	2	4903
2	5028	2	1	12	0	2	2352
2	5028	2	1	13	0	2	2174
2	5028	2	1	14	0	3	1579
2	5028	2	1	15	0	2	1552
2	5028	2	1	16	0	1	2214
2	5028	2	1	17	0	2	1442
2	5028	2	1	18	0	2	2148
2	5028	2	1	19	0	3	1066
2	5028	2	1	20	0	2	1851
2	5028	2	1	21	0	2	2213
2	5028	2	1	22	0	3	1457
2	5028	2	1	23	0	3	2314
2	5028	2	1	24	0	4	2154
2	5028	2	1	25	0	2	3191
2	5028	2	1	26	0	2	2676
2	5028	2	1	27	0	1	3285
2	5028	2	1	28	0	1	2958
2	5028	2	1	29	0	2	2684
2	5028	2	1	30	0	4	2293
2	5029	1	1	1	48	3	2141
2	5029	1	1	2	19	2	711
2	5029	1	1	3	25	3	925
2	5029	1	1	4	16	1	550
2	5029	1	1	5	1	2	491
2	5029	1	1	6	35	1	841
2	5029	1	1	7	39	2	624
2	5029	1	1	8	7	2	503
2	5029	1	2	1	13	2	686
2	5029	1	2	2	30	1	452
2	5029	1	2	3	10	1	975
2	5029	1	2	4	24	2	522
2	5029	1	2	5	4	1	1043
2	5029	1	2	6	38	1	598
2	5029	1	2	7	36	1	422
2	5029	1	2	8	45	2	1047
2	5029	1	3	1	40	3	687
2	5029	1	3	2	9	1	1404
2	5029	1	3	3	20	3	644
2	5029	1	3	4	31	3	736
2	5029	1	3	5	3	1	606
2	5029	1	3	6	18	2	528
2	5029	1	3	7	47	2	586
2	5029	1	3	8	29	1	629
2	5029	1	4	1	14	3	543
2	5029	1	4	2	11	3	462
2	5029	1	4	3	21	1	521
2	5029	1	4	4	5	3	656
2	5029	1	4	5	32	2	300
2	5029	1	4	6	27	3	392
2	5029	1	4	7	42	3	387
2	5029	1	4	8	46	3	554
2	5029	1	5	1	34	2	352
2	5029	1	5	2	37	1	406
2	5029	1	5	3	12	2	329
2	5029	1	5	4	43	1	380
2	5029	1	5	5	28	2	469
2	5029	1	5	6	15	1	348
2	5029	1	5	7	2	3	363
2	5029	1	5	8	23	3	314
2	5029	1	6	1	44	1	719
2	5029	1	6	2	26	2	606
2	5029	1	6	3	41	2	359
2	5029	1	6	4	17	3	759
2	5029	1	6	5	8	3	537
2	5029	1	6	6	33	3	342
2	5029	1	6	7	6	2	367
2	5029	1	6	8	22	1	450
2	5029	1	7	1	47	2	363
2	5029	1	7	2	12	2	345
2	5029	1	7	3	28	2	324
2	5029	1	7	4	1	2	310
2	5029	1	7	5	37	1	363
2	5029	1	7	6	16	1	402
2	5029	1	7	7	23	3	602
2	5029	1	7	8	31	3	597
2	5029	1	8	1	48	3	643
2	5029	1	8	2	5	3	451
2	5029	1	8	3	22	1	255
2	5029	1	8	4	26	2	276
2	5029	1	8	5	34	2	329
2	5029	1	8	6	39	2	302
2	5029	1	8	7	11	3	458
2	5029	1	8	8	15	1	368
2	5029	1	9	1	35	1	314
2	5029	1	9	2	27	3	583
2	5029	1	9	3	46	3	291
2	5029	1	9	4	8	3	244
2	5029	1	9	5	3	1	314
2	5029	1	9	6	14	3	348
2	5029	1	9	7	19	2	292
2	5029	1	9	8	41	2	256
2	5029	1	10	1	10	1	307
2	5029	1	10	2	36	1	303
2	5029	1	10	3	30	1	372
2	5029	1	10	4	20	3	356
2	5029	1	10	5	6	2	492
2	5029	1	10	6	43	1	283
2	5029	1	10	7	38	1	264
2	5029	1	10	8	17	3	271
2	5029	1	11	1	33	3	486
2	5029	1	11	2	40	3	588
2	5029	1	11	3	4	1	385
2	5029	1	11	4	45	2	386
2	5029	1	11	5	7	2	353
2	5029	1	11	6	18	2	438
2	5029	1	11	7	25	3	331
2	5029	1	11	8	21	1	249
2	5029	1	12	1	13	2	299
2	5029	1	12	2	32	2	248
2	5029	1	12	3	24	2	290
2	5029	1	12	4	2	3	477
2	5029	1	12	5	29	1	373
2	5029	1	12	6	9	1	328
2	5029	1	12	7	44	1	416
2	5029	1	12	8	42	3	495
2	5029	2	1	1	0	3	7464
2	5029	2	1	2	0	2	6955
2	5029	2	1	3	0	3	3642
2	5029	2	1	4	0	2	5405
2	5029	2	1	5	0	1	12490
2	5029	2	1	6	0	1	5160
2	5029	2	1	7	0	3	6435
2	5029	2	1	8	0	3	4792
2	5029	2	1	9	0	3	2533
2	5029	2	1	10	0	2	2876
2	5029	2	1	11	0	2	4893
2	5029	2	1	12	0	3	2350
2	5029	2	1	13	0	3	2605
2	5029	2	1	14	0	1	3139
2	5029	2	1	15	0	4	3962
2	5029	2	1	16	0	2	6094
2	5029	2	1	17	0	2	2130
2	5029	2	1	18	0	1	5505
2	5029	2	1	19	0	2	2016
2	5029	2	1	20	0	3	1671
2	5029	2	1	21	0	2	6580
2	5029	2	1	22	0	3	3300
2	5029	2	1	23	0	2	3227
2	5029	2	1	24	0	1	2998
2	5029	2	1	25	0	2	4171
2	5029	2	1	26	0	2	2761
2	5029	2	1	27	0	2	4642
2	5029	2	1	28	0	2	3314
2	5029	2	1	29	0	4	5709
2	5029	2	1	30	0	3	1987
1	5030	1	1	1	39	2	1956
1	5030	1	1	2	21	1	3399
1	5030	1	1	3	8	3	1217
1	5030	1	1	4	44	1	1049
1	5030	1	1	5	2	2	668
1	5030	1	1	6	34	2	989
1	5030	1	1	7	16	1	705
1	5030	1	1	8	30	2	1240
1	5030	1	2	1	35	2	634
1	5030	1	2	2	10	1	381
1	5030	1	2	3	38	3	840
1	5030	1	2	4	24	2	458
1	5030	1	2	5	18	2	330
1	5030	1	2	6	1	2	297
1	5030	1	2	7	46	3	1089
1	5030	1	2	8	25	3	336
1	5030	1	3	1	32	2	662
1	5030	1	3	2	11	3	1713
1	5030	1	3	3	41	2	371
1	5030	1	3	4	48	3	560
1	5030	1	3	5	26	2	256
1	5030	1	3	6	4	2	261
1	5030	1	3	7	15	1	1239
1	5030	1	3	8	19	2	342
1	5030	1	4	1	17	2	1087
1	5030	1	4	2	47	2	685
1	5030	1	4	3	20	1	34
1	5030	1	4	4	33	2	2373
1	5030	1	4	5	37	2	428
1	5030	1	4	6	9	1	197
1	5030	1	4	7	27	2	1161
1	5030	1	4	8	6	1	744
1	5030	1	5	1	29	3	572
1	5030	1	5	2	43	2	137
1	5030	1	5	3	42	3	52
1	5030	1	5	4	3	3	606
1	5030	1	5	5	12	3	300
1	5030	1	5	6	36	3	484
1	5030	1	5	7	14	1	754
1	5030	1	5	8	23	2	7
1	5030	1	6	1	45	1	586
1	5030	1	6	2	5	3	689
1	5030	1	6	3	7	2	505
1	5030	1	6	4	13	2	1575
1	5030	1	6	5	28	2	1075
1	5030	1	6	6	31	2	662
1	5030	1	6	7	22	3	351
1	5030	1	6	8	40	3	340
1	5030	1	7	1	43	2	630
1	5030	1	7	2	36	1	691
1	5030	1	7	3	37	2	787
1	5030	1	7	4	20	1	222
1	5030	1	7	5	8	1	865
1	5030	1	7	6	17	2	362
1	5030	1	7	7	27	3	716
1	5030	1	7	8	2	1	945
1	5030	1	8	1	33	2	1315
1	5030	1	8	2	48	3	452
1	5030	1	8	3	21	2	1687
1	5030	1	8	4	39	2	597
1	5030	1	8	5	25	2	580
1	5030	1	8	6	7	1	232
1	5030	1	8	7	15	1	694
1	5030	1	8	8	3	1	1112
1	5030	1	9	1	22	3	213
1	5030	1	9	2	31	2	259
1	5030	1	9	3	38	2	977
1	5030	1	9	4	16	2	682
1	5030	1	9	5	5	1	549
1	5030	1	9	6	26	2	582
1	5030	1	9	7	9	2	240
1	5030	1	9	8	47	2	471
1	5030	1	10	1	11	2	1161
1	5030	1	10	2	44	1	678
1	5030	1	10	3	42	3	831
1	5030	1	10	4	29	1	648
1	5030	1	10	5	1	2	503
1	5030	1	10	6	13	2	360
1	5030	1	10	7	19	2	394
1	5030	1	10	8	34	2	314
1	5030	1	11	1	28	2	521
1	5030	1	11	2	35	1	1276
1	5030	1	11	3	24	2	1359
1	5030	1	11	4	4	1	514
1	5030	1	11	5	41	2	1273
1	5030	1	11	6	12	3	270
1	5030	1	11	7	14	2	270
1	5030	1	11	8	46	3	240
1	5030	1	12	1	18	1	359
1	5030	1	12	2	45	2	722
1	5030	1	12	3	10	3	928
1	5030	1	12	4	32	2	461
1	5030	1	12	5	40	3	287
1	5030	1	12	6	23	2	441
1	5030	1	12	7	30	2	125
1	5030	1	12	8	6	1	156
1	5030	2	1	1	0	2	4879
1	5030	2	1	2	0	3	3817
1	5030	2	1	3	0	3	4902
1	5030	2	1	4	0	4	2488
1	5030	2	1	5	0	2	2520
1	5030	2	1	6	0	2	2984
1	5030	2	1	7	0	2	3806
1	5030	2	1	8	0	3	2850
1	5030	2	1	9	0	2	2932
1	5030	2	1	10	0	4	5060
1	5030	2	1	11	0	2	4311
1	5030	2	1	12	0	2	1880
1	5030	2	1	13	0	1	2144
1	5030	2	1	14	0	3	4038
1	5030	2	1	15	0	2	2786
1	5030	2	1	16	0	2	5647
1	5030	2	1	17	0	3	1498
1	5030	2	1	18	0	1	4003
1	5030	2	1	19	0	4	2480
1	5030	2	1	20	0	2	1913
1	5030	2	1	21	0	1	2160
1	5030	2	1	22	0	3	2638
1	5030	2	1	23	0	2	4433
1	5030	2	1	24	0	3	2637
1	5030	2	1	25	0	4	4575
1	5030	2	1	26	0	2	3982
1	5030	2	1	27	0	3	3044
1	5030	2	1	28	0	2	2735
1	5030	2	1	29	0	3	2390
1	5030	2	1	30	0	2	3874
1	5031	1	1	1	5	1	3287
1	5031	1	1	2	23	3	2039
1	5031	1	1	3	37	2	2043
1	5031	1	1	4	46	3	1070
1	5031	1	1	5	28	2	1090
1	5031	1	1	6	34	2	781
1	5031	1	1	7	16	1	856
1	5031	1	1	8	9	1	927
1	5031	1	2	1	26	2	869
1	5031	1	2	2	11	3	1226
1	5031	1	2	3	45	2	834
1	5031	1	2	4	20	3	793
1	5031	1	2	5	6	2	679
1	5031	1	2	6	17	3	641
1	5031	1	2	7	33	3	1332
1	5031	1	2	8	39	2	572
1	5031	1	3	1	35	1	926
1	5031	1	3	2	3	1	636
1	5031	1	3	3	12	2	449
1	5031	1	3	4	48	3	543
1	5031	1	3	5	30	1	426
1	5031	1	3	6	13	2	411
1	5031	1	3	7	41	2	377
1	5031	1	3	8	19	2	301
1	5031	1	4	1	2	3	316
1	5031	1	4	2	36	1	945
1	5031	1	4	3	8	3	381
1	5031	1	4	4	40	3	511
1	5031	1	4	5	14	3	326
1	5031	1	4	6	21	1	367
1	5031	1	4	7	47	2	275
1	5031	1	4	8	25	3	269
1	5031	1	5	1	15	1	378
1	5031	1	5	2	4	1	306
1	5031	1	5	3	32	2	590
1	5031	1	5	4	7	2	488
1	5031	1	5	5	44	1	914
1	5031	1	5	6	27	3	433
1	5031	1	5	7	42	3	444
1	5031	1	5	8	22	1	422
1	5031	1	6	1	38	3	1877
1	5031	1	6	2	31	2	479
1	5031	1	6	3	10	1	562
1	5031	1	6	4	29	1	463
1	5031	1	6	5	43	1	297
1	5031	1	6	6	1	2	323
1	5031	1	6	7	18	2	325
1	5031	1	6	8	24	2	653
1	5031	1	7	1	27	3	484
1	5031	1	7	2	48	3	253
1	5031	1	7	3	42	3	312
1	5031	1	7	4	33	3	567
1	5031	1	7	5	5	1	1247
1	5031	1	7	6	11	3	1571
1	5031	1	7	7	17	3	350
1	5031	1	7	8	23	3	516
1	5031	1	8	1	44	1	375
1	5031	1	8	2	19	2	401
1	5031	1	8	3	28	2	723
1	5031	1	8	4	32	2	2602
1	5031	1	8	5	14	3	279
1	5031	1	8	6	37	1	305
1	5031	1	8	7	9	3	2209
1	5031	1	8	8	6	2	349
1	5031	1	9	1	22	1	242
1	5031	1	9	2	10	1	307
1	5031	1	9	3	47	2	616
1	5031	1	9	4	41	2	250
1	5031	1	9	5	18	2	265
1	5031	1	9	6	30	1	332
1	5031	1	9	7	4	1	267
1	5031	1	9	8	34	2	255
1	5031	1	10	1	7	2	255
1	5031	1	10	2	36	1	244
1	5031	1	10	3	1	2	267
1	5031	1	10	4	45	2	906
1	5031	1	10	5	39	2	677
1	5031	1	10	6	25	3	237
1	5031	1	10	7	13	2	231
1	5031	1	10	8	20	3	216
1	5031	1	11	1	38	1	207
1	5031	1	11	2	12	2	304
1	5031	1	11	3	3	1	1396
1	5031	1	11	4	21	1	535
1	5031	1	11	5	15	1	570
1	5031	1	11	6	43	1	250
1	5031	1	11	7	29	1	504
1	5031	1	11	8	35	2	2576
1	5031	1	12	1	2	3	702
1	5031	1	12	2	24	2	1132
1	5031	1	12	3	40	3	251
1	5031	1	12	4	8	3	250
1	5031	1	12	5	26	2	861
1	5031	1	12	6	16	1	1465
1	5031	1	12	7	46	3	623
1	5031	1	12	8	31	3	269
1	5031	2	1	1	0	2	7235
1	5031	2	1	2	0	2	6159
1	5031	2	1	3	0	3	2166
1	5031	2	1	4	0	3	1300
1	5031	2	1	5	0	2	1956
1	5031	2	1	6	0	3	2378
1	5031	2	1	7	0	2	2000
1	5031	2	1	8	0	2	1324
1	5031	2	1	9	0	3	3954
1	5031	2	1	10	0	3	1113
1	5031	2	1	11	0	2	4536
1	5031	2	1	12	0	3	1528
1	5031	2	1	13	0	3	3559
1	5031	2	1	14	0	2	1566
1	5031	2	1	15	0	3	1731
1	5031	2	1	16	0	1	2842
1	5031	2	1	17	0	3	1829
1	5031	2	1	18	0	2	3495
1	5031	2	1	19	0	2	1552
1	5031	2	1	20	0	3	1271
1	5031	2	1	21	0	2	1784
1	5031	2	1	22	0	3	3309
1	5031	2	1	23	0	2	3854
1	5031	2	1	24	0	2	2543
1	5031	2	1	25	0	2	5502
1	5031	2	1	26	0	2	3864
1	5031	2	1	27	0	2	2739
1	5031	2	1	28	0	2	3601
1	5031	2	1	29	0	4	2831
1	5031	2	1	30	0	2	1913
1	5037	1	1	1	44	3	1536
1	5037	1	1	2	6	2	1252
1	5037	1	1	3	15	1	979
1	5037	1	1	4	38	2	877
1	5037	1	1	5	25	3	436
1	5037	1	1	6	36	1	32
1	5037	1	1	7	22	2	2514
1	5037	1	1	8	10	2	678
1	5037	1	2	1	29	1	640
1	5037	1	2	2	48	2	78
1	5037	1	2	3	12	1	179
1	5037	1	2	4	2	3	948
1	5037	1	2	5	23	3	712
1	5037	1	2	6	31	1	58
1	5037	1	2	7	14	2	8
1	5037	1	2	8	39	3	437
1	5037	1	3	1	18	2	2053
1	5037	1	3	2	20	2	201
1	5037	1	3	3	4	1	2255
1	5037	1	3	4	42	2	35
1	5037	1	3	5	11	3	683
1	5037	1	3	6	47	3	359
1	5037	1	3	7	26	2	10
1	5037	1	3	8	32	1	291
1	5037	1	4	1	27	3	1530
1	5037	1	4	2	41	2	1411
1	5037	1	4	3	35	3	515
1	5037	1	4	4	9	3	24
1	5037	1	4	5	21	2	6
1	5037	1	4	6	17	3	71
1	5037	1	4	7	46	2	1497
1	5037	1	4	8	3	3	1535
1	5037	1	5	1	24	2	22
1	5037	1	5	2	30	1	361
1	5037	1	5	3	13	2	1678
1	5037	1	5	4	40	2	1963
1	5037	1	5	5	8	3	566
1	5037	1	5	6	33	2	130
1	5037	1	5	7	1	2	49
1	5037	1	5	8	45	2	50
1	5037	1	6	1	28	2	1029
1	5037	1	6	2	7	2	970
1	5037	1	6	3	43	2	319
1	5037	1	6	4	19	2	1273
1	5037	1	6	5	34	1	754
1	5037	1	6	6	37	2	38
1	5037	1	6	7	5	2	1884
1	5037	1	6	8	16	1	932
1	5037	1	7	1	36	3	35
1	5037	1	7	2	45	2	2108
1	5037	1	7	3	6	2	75
1	5037	1	7	4	17	3	14
1	5037	1	7	5	25	1	2123
1	5037	1	7	6	10	1	1246
1	5037	1	7	7	41	2	206
1	5037	1	7	8	22	1	2656
1	5037	1	8	1	28	1	994
1	5037	1	8	2	32	2	298
1	5037	1	8	3	14	3	265
1	5037	1	8	4	42	3	1539
1	5037	1	8	5	24	2	1788
1	5037	1	8	6	12	2	488
1	5037	1	8	7	44	1	1401
1	5037	1	8	8	4	1	564
1	5037	1	9	1	20	3	56
1	5037	1	9	2	26	1	100
1	5037	1	9	3	31	3	167
1	5037	1	9	4	16	1	1906
1	5037	1	9	5	11	3	1746
1	5037	1	9	6	37	1	287
1	5037	1	9	7	46	3	1667
1	5037	1	9	8	3	1	362
1	5037	1	10	1	9	2	249
1	5037	1	10	2	27	3	2252
1	5037	1	10	3	34	3	237
1	5037	1	10	4	39	2	1926
1	5037	1	10	5	18	2	2159
1	5037	1	10	6	19	2	58
1	5037	1	10	7	5	3	1856
1	5037	1	10	8	43	2	2270
1	5037	1	11	1	15	1	1652
1	5037	1	11	2	35	2	1447
1	5037	1	11	3	48	3	636
1	5037	1	11	4	7	2	230
1	5037	1	11	5	40	3	201
1	5037	1	11	6	1	2	168
1	5037	1	11	7	30	2	395
1	5037	1	11	8	23	3	102
1	5037	1	12	1	38	2	247
1	5037	1	12	2	33	3	109
1	5037	1	12	3	8	3	1184
1	5037	1	12	4	29	1	207
1	5037	1	12	5	2	3	26
1	5037	1	12	6	13	2	134
1	5037	1	12	7	47	3	21
1	5037	1	12	8	21	1	1446
1	5037	2	1	1	0	2	7876
1	5037	2	1	2	0	2	4447
1	5037	2	1	3	0	4	5427
1	5037	2	1	4	0	2	4471
1	5037	2	1	5	0	3	3065
1	5037	2	1	6	0	3	3923
1	5037	2	1	7	0	2	5106
1	5037	2	1	8	0	1	4715
1	5037	2	1	9	0	2	3796
1	5037	2	1	10	0	1	3274
1	5037	2	1	11	0	2	5314
1	5037	2	1	12	0	3	3139
1	5037	2	1	13	0	1	3250
1	5037	2	1	14	0	1	3684
1	5037	2	1	15	0	3	4406
1	5037	2	1	16	0	2	4195
1	5037	2	1	17	0	4	2473
1	5037	2	1	18	0	1	3025
1	5037	2	1	19	0	3	3077
1	5037	2	1	20	0	2	3014
1	5037	2	1	21	0	1	2483
1	5037	2	1	22	0	4	1812
1	5037	2	1	23	0	1	4775
1	5037	2	1	24	0	1	2341
1	5037	2	1	25	0	4	4492
1	5037	2	1	26	0	3	4788
1	5037	2	1	27	0	4	5098
1	5037	2	1	28	0	3	4596
1	5037	2	1	29	0	4	1409
1	5037	2	1	30	0	1	1972
1	5038	1	1	1	18	3	1841
1	5038	1	1	2	8	3	2592
1	5038	1	1	3	21	2	303
1	5038	1	1	4	39	3	709
1	5038	1	1	5	26	2	372
1	5038	1	1	6	4	2	494
1	5038	1	1	7	43	2	804
1	5038	1	1	8	32	1	872
1	5038	1	2	1	23	2	3283
1	5038	1	2	2	42	2	499
1	5038	1	2	3	36	2	1347
1	5038	1	2	4	16	2	842
1	5038	1	2	5	5	1	164
1	5038	1	2	6	9	3	480
1	5038	1	2	7	48	2	579
1	5038	1	2	8	28	2	590
1	5038	1	3	1	46	1	324
1	5038	1	3	2	17	2	407
1	5038	1	3	3	30	2	887
1	5038	1	3	4	35	2	628
1	5038	1	3	5	19	2	1981
1	5038	1	3	6	6	2	351
1	5038	1	3	7	37	2	677
1	5038	1	3	8	12	1	551
1	5038	1	4	1	27	3	432
1	5038	1	4	2	3	3	52
1	5038	1	4	3	31	1	73
1	5038	1	4	4	24	2	529
1	5038	1	4	5	15	1	356
1	5038	1	4	6	44	3	444
1	5038	1	4	7	41	3	49
1	5038	1	4	8	11	3	518
1	5038	1	5	1	34	3	327
1	5038	1	5	2	20	1	242
1	5038	1	5	3	45	1	281
1	5038	1	5	4	38	3	228
1	5038	1	5	5	25	1	750
1	5038	1	5	6	14	3	486
1	5038	1	5	7	10	1	468
1	5038	1	5	8	1	3	278
1	5038	1	6	1	47	3	1235
1	5038	1	6	2	22	1	571
1	5038	1	6	3	7	1	631
1	5038	1	6	4	2	3	969
1	5038	1	6	5	33	3	1048
1	5038	1	6	6	29	3	427
1	5038	1	6	7	40	2	1383
1	5038	1	6	8	13	1	417
1	5038	1	7	1	32	1	261
1	5038	1	7	2	16	1	376
1	5038	1	7	3	5	3	768
1	5038	1	7	4	45	1	625
1	5038	1	7	5	12	2	1598
1	5038	1	7	6	24	3	310
1	5038	1	7	7	28	3	1154
1	5038	1	7	8	41	3	1388
1	5038	1	8	1	27	1	766
1	5038	1	8	2	47	3	254
1	5038	1	8	3	13	2	699
1	5038	1	8	4	22	1	655
1	5038	1	8	5	4	2	453
1	5038	1	8	6	39	1	1137
1	5038	1	8	7	34	3	491
1	5038	1	8	8	11	2	649
1	5038	1	9	1	42	2	1084
1	5038	1	9	2	14	3	264
1	5038	1	9	3	33	2	797
1	5038	1	9	4	44	1	1524
1	5038	1	9	5	21	1	567
1	5038	1	9	6	29	2	1216
1	5038	1	9	7	6	2	615
1	5038	1	9	8	8	1	1014
1	5038	1	10	1	15	1	336
1	5038	1	10	2	3	1	240
1	5038	1	10	3	48	2	61
1	5038	1	10	4	30	3	846
1	5038	1	10	5	10	3	879
1	5038	1	10	6	19	2	490
1	5038	1	10	7	35	2	206
1	5038	1	10	8	38	1	716
1	5038	1	11	1	36	2	1539
1	5038	1	11	2	43	2	254
1	5038	1	11	3	26	1	700
1	5038	1	11	4	2	3	199
1	5038	1	11	5	17	3	828
1	5038	1	11	6	37	2	611
1	5038	1	11	7	20	3	186
1	5038	1	11	8	7	2	255
1	5038	1	12	1	46	1	222
1	5038	1	12	2	1	2	315
1	5038	1	12	3	23	3	235
1	5038	1	12	4	9	2	16
1	5038	1	12	5	31	2	409
1	5038	1	12	6	40	1	303
1	5038	1	12	7	25	2	564
1	5038	1	12	8	18	2	430
1	5038	2	1	1	0	2	8800
1	5038	2	1	2	0	2	5935
1	5038	2	1	3	0	2	3064
1	5038	2	1	4	0	3	5226
1	5038	2	1	5	0	2	5006
1	5038	2	1	6	0	3	3979
1	5038	2	1	7	0	3	3553
1	5038	2	1	8	0	2	4040
1	5038	2	1	9	0	2	2756
1	5038	2	1	10	0	3	3274
1	5038	2	1	11	0	3	5419
1	5038	2	1	12	0	2	3624
1	5038	2	1	13	0	2	2724
1	5038	2	1	14	0	2	4555
1	5038	2	1	15	0	2	2042
1	5038	2	1	16	0	1	3221
1	5038	2	1	17	0	2	2520
1	5038	2	1	18	0	2	2560
1	5038	2	1	19	0	3	2230
1	5038	2	1	20	0	3	1313
1	5038	2	1	21	0	2	3001
1	5038	2	1	22	0	2	1742
1	5038	2	1	23	0	3	2740
1	5038	2	1	24	0	2	3186
1	5038	2	1	25	0	2	2248
1	5038	2	1	26	0	3	3202
1	5038	2	1	27	0	2	3551
1	5038	2	1	28	0	2	4414
1	5038	2	1	29	0	1	1339
1	5038	2	1	30	0	2	1912
1	5039	1	1	1	45	1	802
1	5039	1	1	2	27	1	550
1	5039	1	1	3	18	2	851
1	5039	1	1	4	3	1	180
1	5039	1	1	5	12	2	503
1	5039	1	1	6	35	2	614
1	5039	1	1	7	20	3	612
1	5039	1	1	8	40	3	1603
1	5039	1	2	1	24	2	298
1	5039	1	2	2	1	2	1176
1	5039	1	2	3	48	2	1025
1	5039	1	2	4	9	1	773
1	5039	1	2	5	38	2	809
1	5039	1	2	6	17	3	386
1	5039	1	2	7	26	3	734
1	5039	1	2	8	34	2	680
1	5039	1	3	1	37	1	1173
1	5039	1	3	2	22	1	613
1	5039	1	3	3	47	2	567
1	5039	1	3	4	29	1	549
1	5039	1	3	5	10	3	631
1	5039	1	3	6	13	2	563
1	5039	1	3	7	5	3	378
1	5039	1	3	8	33	3	674
1	5039	1	4	1	23	3	120
1	5039	1	4	2	6	2	349
1	5039	1	4	3	36	3	281
1	5039	1	4	4	42	3	734
1	5039	1	4	5	28	2	384
1	5039	1	4	6	46	3	655
1	5039	1	4	7	8	3	362
1	5039	1	4	8	14	2	450
1	5039	1	5	1	19	2	711
1	5039	1	5	2	31	1	569
1	5039	1	5	3	2	3	269
1	5039	1	5	4	43	3	2127
1	5039	1	5	5	16	1	272
1	5039	1	5	6	30	2	608
1	5039	1	5	7	7	2	1205
1	5039	1	5	8	41	2	541
1	5039	1	6	1	32	2	359
1	5039	1	6	2	11	2	842
1	5039	1	6	3	25	2	727
1	5039	1	6	4	44	3	1342
1	5039	1	6	5	4	2	353
1	5039	1	6	6	21	2	417
1	5039	1	6	7	39	2	638
1	5039	1	6	8	15	1	354
1	5039	1	7	1	6	2	141
1	5039	1	7	2	35	2	704
1	5039	1	7	3	18	2	433
1	5039	1	7	4	23	3	71
1	5039	1	7	5	12	2	333
1	5039	1	7	6	47	2	917
1	5039	1	7	7	28	3	1305
1	5039	1	7	8	40	3	537
1	5039	1	8	1	31	2	1138
1	5039	1	8	2	5	1	660
1	5039	1	8	3	46	1	589
1	5039	1	8	4	25	2	648
1	5039	1	8	5	11	2	644
1	5039	1	8	6	14	2	1323
1	5039	1	8	7	37	2	1211
1	5039	1	8	8	19	1	404
1	5039	1	9	1	45	2	853
1	5039	1	9	2	27	1	691
1	5039	1	9	3	38	3	132
1	5039	1	9	4	15	1	913
1	5039	1	9	5	7	2	454
1	5039	1	9	6	20	1	14
1	5039	1	9	7	2	1	1495
1	5039	1	9	8	36	3	603
1	5039	1	10	1	22	3	952
1	5039	1	10	2	29	3	557
1	5039	1	10	3	39	2	238
1	5039	1	10	4	8	1	52
1	5039	1	10	5	43	2	451
1	5039	1	10	6	4	2	286
1	5039	1	10	7	17	1	972
1	5039	1	10	8	32	3	332
1	5039	1	11	1	41	2	468
1	5039	1	11	2	10	3	701
1	5039	1	11	3	16	1	431
1	5039	1	11	4	48	3	489
1	5039	1	11	5	30	2	384
1	5039	1	11	6	21	2	329
1	5039	1	11	7	34	2	395
1	5039	1	11	8	1	3	1107
1	5039	1	12	1	42	3	642
1	5039	1	12	2	24	3	1410
1	5039	1	12	3	9	2	101
1	5039	1	12	4	33	2	556
1	5039	1	12	5	26	3	250
1	5039	1	12	6	13	1	560
1	5039	1	12	7	44	1	576
1	5039	1	12	8	3	3	982
1	5039	2	1	1	0	4	6758
1	5039	2	1	2	0	3	3046
1	5039	2	1	3	0	3	2505
1	5039	2	1	4	0	2	2777
1	5039	2	1	5	0	2	3085
1	5039	2	1	6	0	3	3807
1	5039	2	1	7	0	4	2660
1	5039	2	1	8	0	2	3510
1	5039	2	1	9	0	2	2406
1	5039	2	1	10	0	2	2338
1	5039	2	1	11	0	3	4249
1	5039	2	1	12	0	3	1964
1	5039	2	1	13	0	3	2194
1	5039	2	1	14	0	2	2767
1	5039	2	1	15	0	1	4452
1	5039	2	1	16	0	2	2952
1	5039	2	1	17	0	2	2335
1	5039	2	1	18	0	3	7445
1	5039	2	1	19	0	2	1850
1	5039	2	1	20	0	2	2533
1	5039	2	1	21	0	3	3348
1	5039	2	1	22	0	3	1803
1	5039	2	1	23	0	2	2519
1	5039	2	1	24	0	1	2079
1	5039	2	1	25	0	2	3520
1	5039	2	1	26	0	1	3712
1	5039	2	1	27	0	2	3129
1	5039	2	1	28	0	3	3888
1	5039	2	1	29	0	2	1985
1	5039	2	1	30	0	3	1742
1	5040	1	1	1	2	1	47593
1	5040	1	1	2	13	3	2076
1	5040	1	1	3	38	3	3325
1	5040	1	1	4	29	1	992
1	5040	1	1	5	43	2	892
1	5040	1	1	6	8	1	569
1	5040	1	1	7	20	1	1195
1	5040	1	1	8	35	1	630
1	5040	1	2	1	24	3	271
1	5040	1	2	2	11	2	476
1	5040	1	2	3	34	2	564
1	5040	1	2	4	42	3	610
1	5040	1	2	5	1	3	476
1	5040	1	2	6	16	2	541
1	5040	1	2	7	44	3	778
1	5040	1	2	8	28	2	439
1	5040	1	3	1	46	1	161
1	5040	1	3	2	6	1	56
1	5040	1	3	3	9	2	2161
1	5040	1	3	4	39	1	123
1	5040	1	3	5	15	3	261
1	5040	1	3	6	23	1	356
1	5040	1	3	7	31	3	482
1	5040	1	3	8	27	3	609
1	5040	1	4	1	5	2	2983
1	5040	1	4	2	14	2	167
1	5040	1	4	3	37	2	904
1	5040	1	4	4	12	3	332
1	5040	1	4	5	19	1	176
1	5040	1	4	6	33	3	194
1	5040	1	4	7	47	3	153
1	5040	1	4	8	26	2	298
1	5040	1	5	1	17	1	180
1	5040	1	5	2	25	2	669
1	5040	1	5	3	36	1	425
1	5040	1	5	4	3	2	1258
1	5040	1	5	5	7	3	66
1	5040	1	5	6	40	3	921
1	5040	1	5	7	45	1	433
1	5040	1	5	8	22	3	394
1	5040	1	6	1	4	1	773
1	5040	1	6	2	30	3	2439
1	5040	1	6	3	32	3	542
1	5040	1	6	4	18	1	708
1	5040	1	6	5	48	2	287
1	5040	1	6	6	41	3	379
1	5040	1	6	7	21	2	464
1	5040	1	6	8	10	2	251
1	5040	1	7	1	6	1	29
1	5040	1	7	2	43	2	496
1	5040	1	7	3	23	2	225
1	5040	1	7	4	31	3	280
1	5040	1	7	5	16	2	414
1	5040	1	7	6	28	2	416
1	5040	1	7	7	11	1	246
1	5040	1	7	8	42	2	371
1	5040	1	8	1	7	3	628
1	5040	1	8	2	34	2	431
1	5040	1	8	3	15	3	381
1	5040	1	8	4	46	2	459
1	5040	1	8	5	21	3	218
1	5040	1	8	6	27	2	1167
1	5040	1	8	7	2	2	388
1	5040	1	8	8	38	3	392
1	5040	1	9	1	25	3	307
1	5040	1	9	2	37	1	561
1	5040	1	9	3	4	2	364
1	5040	1	9	4	32	2	479
1	5040	1	9	5	47	2	509
1	5040	1	9	6	18	1	583
1	5040	1	9	7	12	3	978
1	5040	1	9	8	19	1	886
1	5040	1	10	1	35	2	460
1	5040	1	10	2	44	3	373
1	5040	1	10	3	17	1	508
1	5040	1	10	4	10	3	389
1	5040	1	10	5	39	1	805
1	5040	1	10	6	1	3	431
1	5040	1	10	7	30	2	827
1	5040	1	10	8	22	3	322
1	5040	1	11	1	8	1	419
1	5040	1	11	2	29	3	244
1	5040	1	11	3	40	3	275
1	5040	1	11	4	45	2	261
1	5040	1	11	5	3	3	294
1	5040	1	11	6	33	2	437
1	5040	1	11	7	14	1	296
1	5040	1	11	8	24	3	296
1	5040	1	12	1	9	2	41
1	5040	1	12	2	5	1	345
1	5040	1	12	3	41	2	385
1	5040	1	12	4	20	1	14
1	5040	1	12	5	48	3	910
1	5040	1	12	6	26	3	347
1	5040	1	12	7	36	1	274
1	5040	1	12	8	13	3	880
1	5040	2	1	1	0	2	6975
1	5040	2	1	2	0	3	2631
1	5040	2	1	3	0	3	1442
1	5040	2	1	4	0	3	1180
1	5040	2	1	5	0	3	2224
1	5040	2	1	6	0	3	1195
1	5040	2	1	7	0	2	2103
1	5040	2	1	8	0	4	4312
1	5040	2	1	9	0	3	2721
1	5040	2	1	10	0	2	1759
1	5040	2	1	11	0	2	4621
1	5040	2	1	12	0	3	1833
1	5040	2	1	13	0	3	2932
1	5040	2	1	14	0	2	2851
1	5040	2	1	15	0	3	4598
1	5040	2	1	16	0	2	2475
1	5040	2	1	17	0	3	1285
1	5040	2	1	18	0	2	4589
1	5040	2	1	19	0	3	1498
1	5040	2	1	20	0	3	1643
1	5040	2	1	21	0	2	3597
1	5040	2	1	22	0	3	1266
1	5040	2	1	23	0	3	3939
1	5040	2	1	24	0	4	2106
1	5040	2	1	25	0	4	5138
1	5040	2	1	26	0	2	5089
1	5040	2	1	27	0	2	3491
1	5040	2	1	28	0	3	3356
1	5040	2	1	29	0	3	794
1	5040	2	1	30	0	4	1630
1	5045	1	1	1	16	2	4283
1	5045	1	1	2	26	2	1968
1	5045	1	1	3	31	3	1236
1	5045	1	1	4	42	1	1381
1	5045	1	1	5	24	1	1301
1	5045	1	1	6	47	3	2603
1	5045	1	1	7	6	1	987
1	5045	1	1	8	7	3	1243
1	5045	1	2	1	45	2	999
1	5045	1	2	2	33	2	1014
1	5045	1	2	3	12	1	866
1	5045	1	2	4	21	2	1533
1	5045	1	2	5	17	2	536
1	5045	1	2	6	25	3	874
1	5045	1	2	7	5	1	1160
1	5045	1	2	8	40	2	1686
1	5045	1	3	1	2	2	669
1	5045	1	3	2	29	1	696
1	5045	1	3	3	23	2	646
1	5045	1	3	4	37	1	830
1	5045	1	3	5	15	2	721
1	5045	1	3	6	34	3	1686
1	5045	1	3	7	8	2	3278
1	5045	1	3	8	43	1	831
1	5045	1	4	1	3	3	697
1	5045	1	4	2	44	3	821
1	5045	1	4	3	11	1	1159
1	5045	1	4	4	32	2	1073
1	5045	1	4	5	19	1	2118
1	5045	1	4	6	39	2	1284
1	5045	1	4	7	30	2	1213
1	5045	1	4	8	14	1	1141
1	5045	1	5	1	48	1	1082
1	5045	1	5	2	4	3	1849
1	5045	1	5	3	38	1	897
1	5045	1	5	4	28	1	1366
1	5045	1	5	5	10	3	1125
1	5045	1	5	6	35	3	1109
1	5045	1	5	7	20	1	303
1	5045	1	5	8	13	3	3911
1	5045	1	6	1	22	2	1810
1	5045	1	6	2	1	3	1177
1	5045	1	6	3	18	1	767
1	5045	1	6	4	46	3	1912
1	5045	1	6	5	36	2	5554
1	5045	1	6	6	9	2	952
1	5045	1	6	7	41	2	2203
1	5045	1	6	8	27	3	759
1	5045	1	7	1	32	1	286
1	5045	1	7	2	8	1	428
1	5045	1	7	3	5	3	855
1	5045	1	7	4	28	1	686
1	5045	1	7	5	16	3	1324
1	5045	1	7	6	40	1	886
1	5045	1	7	7	19	1	702
1	5045	1	7	8	48	3	918
1	5045	1	8	1	37	1	676
1	5045	1	8	2	29	2	1146
1	5045	1	8	3	22	3	674
1	5045	1	8	4	33	1	669
1	5045	1	8	5	10	3	686
1	5045	1	8	6	6	3	628
1	5045	1	8	7	15	3	1373
1	5045	1	8	8	44	1	659
