"DAU","Participant","Condition","Block","SubBlock","Trial","StimulusNo","Frequency","Orientation","Category","Difficulty","Response","Correct","RT"
"PLY22",22001,"EasyMed",1,1,1,30,285,151.82,1,"Easy",68,0,0.67224
"PLY22",22001,"EasyMed",1,1,2,1,25,158.15,0,"Easy",75,0,1.0004
"PLY22",22001,"EasyMed",1,1,3,29,252.16,120.1,1,"Easy",75,1,0.90559
"PLY22",22001,"EasyMed",1,1,4,2,56.474,189.87,0,"Easy",68,1,0.65676
"PLY22",22001,"EasyMed",1,1,5,27,189.21,56.691,1,"Easy",75,1,0.53033
"PLY22",22001,"EasyMed",1,1,6,29,252.16,120.1,1,"Easy",75,1,0.70559
"PLY22",22001,"EasyMed",1,1,7,28,220.68,88.411,1,"Easy",75,1,0.52581
"PLY22",22001,"EasyMed",1,1,8,26,157.74,25,1,"Easy",75,1,0.86077
"PLY22",22001,"EasyMed",1,1,9,26,157.74,25,1,"Easy",68,0,0.68027
"PLY22",22001,"EasyMed",1,1,10,5,150.89,285,0,"Easy",75,0,0.43518
"PLY22",22001,"EasyMed",1,1,11,28,220.68,88.411,1,"Easy",75,1,0.62516
"PLY22",22001,"EasyMed",1,1,12,27,189.21,56.691,1,"Easy",75,1,0.57001
"PLY22",22001,"EasyMed",1,1,13,3,87.947,221.56,0,"Easy",68,1,0.77487
"PLY22",22001,"EasyMed",1,1,14,4,119.42,253.28,0,"Easy",68,1,0.89576
"PLY22",22001,"EasyMed",1,1,15,5,150.89,285,0,"Easy",75,0,0.64535
"PLY22",22001,"EasyMed",1,1,16,4,119.42,253.28,0,"Easy",75,0,1.0213
"PLY22",22001,"EasyMed",1,1,17,1,25,158.15,0,"Easy",68,1,0.62018
"PLY22",22001,"EasyMed",1,1,18,27,189.21,56.691,1,"Easy",75,1,0.63081
"PLY22",22001,"EasyMed",1,1,19,26,157.74,25,1,"Easy",75,1,0.53564
"PLY22",22001,"EasyMed",1,1,20,5,150.89,285,0,"Easy",75,0,0.44492
"PLY22",22001,"EasyMed",1,1,21,3,87.947,221.56,0,"Easy",68,1,0.76528
"PLY22",22001,"EasyMed",1,1,22,4,119.42,253.28,0,"Easy",68,1,0.64039
"PLY22",22001,"EasyMed",1,1,23,4,119.42,253.28,0,"Easy",68,1,0.53068
"PLY22",22001,"EasyMed",1,1,24,3,87.947,221.56,0,"Easy",68,1,0.39016
"PLY22",22001,"EasyMed",1,1,25,26,157.74,25,1,"Easy",68,0,0.83611
"PLY22",22001,"EasyMed",1,1,26,28,220.68,88.411,1,"Easy",75,1,0.65053
"PLY22",22001,"EasyMed",1,1,27,27,189.21,56.691,1,"Easy",75,1,0.59049
"PLY22",22001,"EasyMed",1,1,28,30,285,151.82,1,"Easy",75,1,0.67568
"PLY22",22001,"EasyMed",1,1,29,3,87.947,221.56,0,"Easy",68,1,1.45
"PLY22",22001,"EasyMed",1,1,30,27,189.21,56.691,1,"Easy",75,1,1.2653
"PLY22",22001,"EasyMed",1,2,31,29,252.16,120.1,1,"Easy",75,1,0.72086
"PLY22",22001,"EasyMed",1,2,32,28,220.68,88.411,1,"Easy",75,1,0.58071
"PLY22",22001,"EasyMed",1,2,33,26,157.74,25,1,"Easy",68,0,1.1206
"PLY22",22001,"EasyMed",1,2,34,27,189.21,56.691,1,"Easy",75,1,1.7706
"PLY22",22001,"EasyMed",1,2,35,29,252.16,120.1,1,"Easy",75,1,0.50119
"PLY22",22001,"EasyMed",1,2,36,2,56.474,189.87,0,"Easy",68,1,0.45553
"PLY22",22001,"EasyMed",1,2,37,30,285,151.82,1,"Easy",75,1,0.95012
"PLY22",22001,"EasyMed",1,2,38,28,220.68,88.411,1,"Easy",75,1,1.0254
"PLY22",22001,"EasyMed",1,2,39,30,285,151.82,1,"Easy",75,1,0.54553
"PLY22",22001,"EasyMed",1,2,40,3,87.947,221.56,0,"Easy",68,1,0.69079
"PLY22",22001,"EasyMed",1,2,41,1,25,158.15,0,"Easy",68,1,0.48569
"PLY22",22001,"EasyMed",1,2,42,3,87.947,221.56,0,"Easy",68,1,0.64082
"PLY22",22001,"EasyMed",1,2,43,4,119.42,253.28,0,"Easy",68,1,0.54513
"PLY22",22001,"EasyMed",1,2,44,26,157.74,25,1,"Easy",68,0,0.73061
"PLY22",22001,"EasyMed",1,2,45,4,119.42,253.28,0,"Easy",68,1,0.9604
"PLY22",22001,"EasyMed",1,2,46,30,285,151.82,1,"Easy",75,1,0.43544
"PLY22",22001,"EasyMed",1,2,47,2,56.474,189.87,0,"Easy",68,1,0.43522
"PLY22",22001,"EasyMed",1,2,48,26,157.74,25,1,"Easy",68,0,0.72061
"PLY22",22001,"EasyMed",1,2,49,28,220.68,88.411,1,"Easy",75,1,1.1549
"PLY22",22001,"EasyMed",1,2,50,30,285,151.82,1,"Easy",75,1,0.54039
"PLY22",22001,"EasyMed",1,2,51,5,150.89,285,0,"Easy",68,1,0.72062
"PLY22",22001,"EasyMed",1,2,52,29,252.16,120.1,1,"Easy",75,1,1.0059
"PLY22",22001,"EasyMed",1,2,53,1,25,158.15,0,"Easy",68,1,0.50518
"PLY22",22001,"EasyMed",1,2,54,26,157.74,25,1,"Easy",75,1,1.5453
"PLY22",22001,"EasyMed",1,2,55,28,220.68,88.411,1,"Easy",75,1,0.94566
"PLY22",22001,"EasyMed",1,2,56,1,25,158.15,0,"Easy",68,1,0.54997
"PLY22",22001,"EasyMed",1,2,57,28,220.68,88.411,1,"Easy",75,1,0.8908
"PLY22",22001,"EasyMed",1,2,58,1,25,158.15,0,"Easy",68,1,0.57575
"PLY22",22001,"EasyMed",1,2,59,27,189.21,56.691,1,"Easy",75,1,1.2514
"PLY22",22001,"EasyMed",1,2,60,29,252.16,120.1,1,"Easy",75,1,0.60656
"PLY22",22001,"EasyMed",1,3,61,29,252.16,120.1,1,"Easy",75,1,0.50176
"PLY22",22001,"EasyMed",1,3,62,3,87.947,221.56,0,"Easy",68,1,1.095
"PLY22",22001,"EasyMed",1,3,63,30,285,151.82,1,"Easy",75,1,0.52987
"PLY22",22001,"EasyMed",1,3,64,2,56.474,189.87,0,"Easy",68,1,0.48003
"PLY22",22001,"EasyMed",1,3,65,3,87.947,221.56,0,"Easy",68,1,0.70063
"PLY22",22001,"EasyMed",1,3,66,2,56.474,189.87,0,"Easy",68,1,0.4149
"PLY22",22001,"EasyMed",1,3,67,4,119.42,253.28,0,"Easy",68,1,0.57544
"PLY22",22001,"EasyMed",1,3,68,4,119.42,253.28,0,"Easy",68,1,0.46547
"PLY22",22001,"EasyMed",1,3,69,1,25,158.15,0,"Easy",68,1,0.49015
"PLY22",22001,"EasyMed",1,3,70,4,119.42,253.28,0,"Easy",68,1,0.56575
"PLY22",22001,"EasyMed",1,3,71,5,150.89,285,0,"Easy",68,1,0.71563
"PLY22",22001,"EasyMed",1,3,72,2,56.474,189.87,0,"Easy",68,1,0.43999
"PLY22",22001,"EasyMed",1,3,73,28,220.68,88.411,1,"Easy",75,1,0.71019
"PLY22",22001,"EasyMed",1,3,74,27,189.21,56.691,1,"Easy",75,1,0.47064
"PLY22",22001,"EasyMed",1,3,75,3,87.947,221.56,0,"Easy",68,1,1.0302
"PLY22",22001,"EasyMed",1,3,76,28,220.68,88.411,1,"Easy",75,1,0.55565
"PLY22",22001,"EasyMed",1,3,77,1,25,158.15,0,"Easy",68,1,0.52011
"PLY22",22001,"EasyMed",1,3,78,27,189.21,56.691,1,"Easy",75,1,1.1006
"PLY22",22001,"EasyMed",1,3,79,28,220.68,88.411,1,"Easy",75,1,0.56087
"PLY22",22001,"EasyMed",1,3,80,2,56.474,189.87,0,"Easy",68,1,0.80039
"PLY22",22001,"EasyMed",1,3,81,30,285,151.82,1,"Easy",75,1,2.0704
"PLY22",22001,"EasyMed",1,3,82,2,56.474,189.87,0,"Easy",68,1,0.87064
"PLY22",22001,"EasyMed",1,3,83,26,157.74,25,1,"Easy",68,0,2.1803
"PLY22",22001,"EasyMed",1,3,84,27,189.21,56.691,1,"Easy",75,1,1.12
"PLY22",22001,"EasyMed",1,3,85,29,252.16,120.1,1,"Easy",75,1,0.48562
"PLY22",22001,"EasyMed",1,3,86,3,87.947,221.56,0,"Easy",68,1,0.92073
"PLY22",22001,"EasyMed",1,3,87,1,25,158.15,0,"Easy",68,1,0.62532
"PLY22",22001,"EasyMed",1,3,88,27,189.21,56.691,1,"Easy",75,1,1.12
"PLY22",22001,"EasyMed",1,3,89,5,150.89,285,0,"Easy",68,1,0.95574
"PLY22",22001,"EasyMed",1,3,90,28,220.68,88.411,1,"Easy",75,1,0.54574
"PLY22",22001,"EasyMed",1,4,91,30,285,151.82,1,"Easy",75,1,0.67046
"PLY22",22001,"EasyMed",1,4,92,4,119.42,253.28,0,"Easy",68,1,0.73076
"PLY22",22001,"EasyMed",1,4,93,26,157.74,25,1,"Easy",68,0,0.64034
"PLY22",22001,"EasyMed",1,4,94,3,87.947,221.56,0,"Easy",68,1,0.72999
"PLY22",22001,"EasyMed",1,4,95,3,87.947,221.56,0,"Easy",68,1,1.1751
"PLY22",22001,"EasyMed",1,4,96,4,119.42,253.28,0,"Easy",68,1,0.75552
"PLY22",22001,"EasyMed",1,4,97,26,157.74,25,1,"Easy",75,1,0.48592
"PLY22",22001,"EasyMed",1,4,98,30,285,151.82,1,"Easy",75,1,0.48509
"PLY22",22001,"EasyMed",1,4,99,26,157.74,25,1,"Easy",75,1,0.46007
"PLY22",22001,"EasyMed",1,4,100,5,150.89,285,0,"Easy",68,1,0.83511
"PLY22",22001,"EasyMed",1,4,101,29,252.16,120.1,1,"Easy",75,1,0.38032
"PLY22",22001,"EasyMed",1,4,102,1,25,158.15,0,"Easy",68,1,0.44516
"PLY22",22001,"EasyMed",1,4,103,3,87.947,221.56,0,"Easy",68,1,0.48031
"PLY22",22001,"EasyMed",1,4,104,1,25,158.15,0,"Easy",68,1,0.49571
"PLY22",22001,"EasyMed",1,4,105,26,157.74,25,1,"Easy",75,1,1.0755
"PLY22",22001,"EasyMed",1,4,106,27,189.21,56.691,1,"Easy",75,1,0.52521
"PLY22",22001,"EasyMed",1,4,107,1,25,158.15,0,"Easy",68,1,0.54499
"PLY22",22001,"EasyMed",1,4,108,2,56.474,189.87,0,"Easy",68,1,0.4209
"PLY22",22001,"EasyMed",1,4,109,26,157.74,25,1,"Easy",75,1,0.72072
"PLY22",22001,"EasyMed",1,4,110,5,150.89,285,0,"Easy",68,1,0.75063
"PLY22",22001,"EasyMed",1,4,111,1,25,158.15,0,"Easy",68,1,0.59525
"PLY22",22001,"EasyMed",1,4,112,1,25,158.15,0,"Easy",68,1,0.44553
"PLY22",22001,"EasyMed",1,4,113,27,189.21,56.691,1,"Easy",75,1,0.74001
"PLY22",22001,"EasyMed",1,4,114,30,285,151.82,1,"Easy",75,1,0.56001
"PLY22",22001,"EasyMed",1,4,115,27,189.21,56.691,1,"Easy",75,1,0.58063
"PLY22",22001,"EasyMed",1,4,116,30,285,151.82,1,"Easy",75,1,0.54039
"PLY22",22001,"EasyMed",1,4,117,5,150.89,285,0,"Easy",68,1,0.77103
"PLY22",22001,"EasyMed",1,4,118,5,150.89,285,0,"Easy",68,1,0.70087
"PLY22",22001,"EasyMed",1,4,119,28,220.68,88.411,1,"Easy",75,1,0.70539
"PLY22",22001,"EasyMed",1,4,120,2,56.474,189.87,0,"Easy",68,1,0.59068
"PLY22",22001,"EasyMed",1,5,121,4,119.42,253.28,0,"Easy",68,1,1.7006
"PLY22",22001,"EasyMed",1,5,122,29,252.16,120.1,1,"Easy",75,1,1.5509
"PLY22",22001,"EasyMed",1,5,123,30,285,151.82,1,"Easy",75,1,1.1905
"PLY22",22001,"EasyMed",1,5,124,2,56.474,189.87,0,"Easy",68,1,0.63037
"PLY22",22001,"EasyMed",1,5,125,3,87.947,221.56,0,"Easy",68,1,0.77016
"PLY22",22001,"EasyMed",1,5,126,30,285,151.82,1,"Easy",75,1,0.53996
"PLY22",22001,"EasyMed",1,5,127,29,252.16,120.1,1,"Easy",75,1,0.44019
"PLY22",22001,"EasyMed",1,5,128,2,56.474,189.87,0,"Easy",68,1,0.57072
"PLY22",22001,"EasyMed",1,5,129,28,220.68,88.411,1,"Easy",75,1,0.90555
"PLY22",22001,"EasyMed",1,5,130,2,56.474,189.87,0,"Easy",68,1,0.50577
"PLY22",22001,"EasyMed",1,5,131,26,157.74,25,1,"Easy",75,1,2.1001
"PLY22",22001,"EasyMed",1,5,132,29,252.16,120.1,1,"Easy",75,1,0.5303
"PLY22",22001,"EasyMed",1,5,133,4,119.42,253.28,0,"Easy",68,1,0.49004
"PLY22",22001,"EasyMed",1,5,134,29,252.16,120.1,1,"Easy",75,1,0.6408
"PLY22",22001,"EasyMed",1,5,135,2,56.474,189.87,0,"Easy",68,1,0.57537
"PLY22",22001,"EasyMed",1,5,136,29,252.16,120.1,1,"Easy",75,1,0.56085
"PLY22",22001,"EasyMed",1,5,137,5,150.89,285,0,"Easy",68,1,1.0554
"PLY22",22001,"EasyMed",1,5,138,3,87.947,221.56,0,"Easy",68,1,0.83513
"PLY22",22001,"EasyMed",1,5,139,29,252.16,120.1,1,"Easy",75,1,0.47513
"PLY22",22001,"EasyMed",1,5,140,5,150.89,285,0,"Easy",68,1,1.2852
"PLY22",22001,"EasyMed",1,5,141,2,56.474,189.87,0,"Easy",68,1,0.53017
"PLY22",22001,"EasyMed",1,5,142,5,150.89,285,0,"Easy",68,1,0.755
"PLY22",22001,"EasyMed",1,5,143,5,150.89,285,0,"Easy",68,1,0.62019
"PLY22",22001,"EasyMed",1,5,144,5,150.89,285,0,"Easy",68,1,0.51054
"PLY22",22001,"EasyMed",1,5,145,4,119.42,253.28,0,"Easy",68,1,0.57544
"PLY22",22001,"EasyMed",1,5,146,28,220.68,88.411,1,"Easy",75,1,0.79564
"PLY22",22001,"EasyMed",1,5,147,27,189.21,56.691,1,"Easy",75,1,0.58036
"PLY22",22001,"EasyMed",1,5,148,30,285,151.82,1,"Easy",75,1,0.53065
"PLY22",22001,"EasyMed",1,5,149,4,119.42,253.28,0,"Easy",68,1,1.7053
"PLY22",22001,"EasyMed",1,5,150,1,25,158.15,0,"Easy",68,1,0.66052
"PLY22",22001,"EasyMed",2,1,151,10,172.79,262.78,0,"Medium",68,1,1.505
"PLY22",22001,"EasyMed",2,1,152,23,198.79,110.6,1,"Medium",75,1,0.86055
"PLY22",22001,"EasyMed",2,1,153,6,46.895,135.96,0,"Medium",68,1,0.79021
"PLY22",22001,"EasyMed",2,1,154,8,109.84,199.37,0,"Medium",75,0,2.4964
"PLY22",22001,"EasyMed",2,1,155,7,78.368,167.68,0,"Medium",68,1,1.4303
"PLY22",22001,"EasyMed",2,1,156,23,198.79,110.6,1,"Medium",75,1,0.65086
"PLY22",22001,"EasyMed",2,1,157,6,46.895,135.96,0,"Medium",68,1,0.53025
"PLY22",22001,"EasyMed",2,1,158,25,261.74,174.01,1,"Medium",75,1,0.5102
"PLY22",22001,"EasyMed",2,1,159,25,261.74,174.01,1,"Medium",75,1,0.43539
"PLY22",22001,"EasyMed",2,1,160,23,198.79,110.6,1,"Medium",75,1,0.90026
"PLY22",22001,"EasyMed",2,1,161,8,109.84,199.37,0,"Medium",68,1,1.5706
"PLY22",22001,"EasyMed",2,1,162,7,78.368,167.68,0,"Medium",68,1,0.47082
"PLY22",22001,"EasyMed",2,1,163,9,141.32,231.09,0,"Medium",68,1,0.94033
"PLY22",22001,"EasyMed",2,1,164,10,172.79,262.78,0,"Medium",68,1,0.775
"PLY22",22001,"EasyMed",2,1,165,8,109.84,199.37,0,"Medium",68,1,0.4356
"PLY22",22001,"EasyMed",2,1,166,9,141.32,231.09,0,"Medium",68,1,0.41084
"PLY22",22001,"EasyMed",2,1,167,7,78.368,167.68,0,"Medium",68,1,0.64507
"PLY22",22001,"EasyMed",2,1,168,9,141.32,231.09,0,"Medium",68,1,0.69048
"PLY22",22001,"EasyMed",2,1,169,7,78.368,167.68,0,"Medium",68,1,0.42545
"PLY22",22001,"EasyMed",2,1,170,7,78.368,167.68,0,"Medium",68,1,0.56072
"PLY22",22001,"EasyMed",2,1,171,23,198.79,110.6,1,"Medium",75,1,0.53495
"PLY22",22001,"EasyMed",2,1,172,22,167.32,78.878,1,"Medium",75,1,0.3455
"PLY22",22001,"EasyMed",2,1,173,24,230.26,142.32,1,"Medium",75,1,0.43992
"PLY22",22001,"EasyMed",2,1,174,23,198.79,110.6,1,"Medium",75,1,0.37504
"PLY22",22001,"EasyMed",2,1,175,25,261.74,174.01,1,"Medium",75,1,0.41072
"PLY22",22001,"EasyMed",2,1,176,7,78.368,167.68,0,"Medium",68,1,0.54603
"PLY22",22001,"EasyMed",2,1,177,22,167.32,78.878,1,"Medium",75,1,0.44515
"PLY22",22001,"EasyMed",2,1,178,21,135.84,47.187,1,"Medium",75,1,1.0807
"PLY22",22001,"EasyMed",2,1,179,6,46.895,135.96,0,"Medium",68,1,0.58562
"PLY22",22001,"EasyMed",2,1,180,10,172.79,262.78,0,"Medium",68,1,0.87062
"PLY22",22001,"EasyMed",2,2,181,22,167.32,78.878,1,"Medium",68,0,0.42022
"PLY22",22001,"EasyMed",2,2,182,10,172.79,262.78,0,"Medium",68,1,0.84496
"PLY22",22001,"EasyMed",2,2,183,10,172.79,262.78,0,"Medium",68,1,0.67056
"PLY22",22001,"EasyMed",2,2,184,24,230.26,142.32,1,"Medium",75,1,0.58037
"PLY22",22001,"EasyMed",2,2,185,25,261.74,174.01,1,"Medium",75,1,0.47502
"PLY22",22001,"EasyMed",2,2,186,25,261.74,174.01,1,"Medium",75,1,0.47061
"PLY22",22001,"EasyMed",2,2,187,8,109.84,199.37,0,"Medium",75,0,1.7952
"PLY22",22001,"EasyMed",2,2,188,21,135.84,47.187,1,"Medium",75,1,2.0749
"PLY22",22001,"EasyMed",2,2,189,23,198.79,110.6,1,"Medium",75,1,0.71046
"PLY22",22001,"EasyMed",2,2,190,24,230.26,142.32,1,"Medium",75,1,0.34489
"PLY22",22001,"EasyMed",2,2,191,21,135.84,47.187,1,"Medium",75,1,0.74054
"PLY22",22001,"EasyMed",2,2,192,7,78.368,167.68,0,"Medium",68,1,2.0506
"PLY22",22001,"EasyMed",2,2,193,10,172.79,262.78,0,"Medium",68,1,0.84025
"PLY22",22001,"EasyMed",2,2,194,10,172.79,262.78,0,"Medium",68,1,0.90507
"PLY22",22001,"EasyMed",2,2,195,7,78.368,167.68,0,"Medium",68,1,1.2953
"PLY22",22001,"EasyMed",2,2,196,22,167.32,78.878,1,"Medium",75,1,0.81086
"PLY22",22001,"EasyMed",2,2,197,21,135.84,47.187,1,"Medium",75,1,0.90019
"PLY22",22001,"EasyMed",2,2,198,25,261.74,174.01,1,"Medium",75,1,0.66013
"PLY22",22001,"EasyMed",2,2,199,10,172.79,262.78,0,"Medium",68,1,2.4507
"PLY22",22001,"EasyMed",2,2,200,9,141.32,231.09,0,"Medium",68,1,0.75998
"PLY22",22001,"EasyMed",2,2,201,6,46.895,135.96,0,"Medium",68,1,0.55553
"PLY22",22001,"EasyMed",2,2,202,24,230.26,142.32,1,"Medium",68,0,0.53001
"PLY22",22001,"EasyMed",2,2,203,6,46.895,135.96,0,"Medium",68,1,0.5901
"PLY22",22001,"EasyMed",2,2,204,9,141.32,231.09,0,"Medium",68,1,0.92055
"PLY22",22001,"EasyMed",2,2,205,9,141.32,231.09,0,"Medium",68,1,0.55516
"PLY22",22001,"EasyMed",2,2,206,22,167.32,78.878,1,"Medium",75,1,0.73536
"PLY22",22001,"EasyMed",2,2,207,25,261.74,174.01,1,"Medium",75,1,0.50014
"PLY22",22001,"EasyMed",2,2,208,25,261.74,174.01,1,"Medium",75,1,0.62583
"PLY22",22001,"EasyMed",2,2,209,6,46.895,135.96,0,"Medium",68,1,0.4651
"PLY22",22001,"EasyMed",2,2,210,24,230.26,142.32,1,"Medium",75,1,0.57534
"PLY22",22001,"EasyMed",2,3,211,21,135.84,47.187,1,"Medium",75,1,1.5151
"PLY22",22001,"EasyMed",2,3,212,25,261.74,174.01,1,"Medium",75,1,0.63152
"PLY22",22001,"EasyMed",2,3,213,8,109.84,199.37,0,"Medium",75,0,2.7202
"PLY22",22001,"EasyMed",2,3,214,23,198.79,110.6,1,"Medium",75,1,0.62065
"PLY22",22001,"EasyMed",2,3,215,25,261.74,174.01,1,"Medium",75,1,0.49027
"PLY22",22001,"EasyMed",2,3,216,10,172.79,262.78,0,"Medium",68,1,0.80551
"PLY22",22001,"EasyMed",2,3,217,22,167.32,78.878,1,"Medium",75,1,0.92156
"PLY22",22001,"EasyMed",2,3,218,24,230.26,142.32,1,"Medium",75,1,0.52995
"PLY22",22001,"EasyMed",2,3,219,8,109.84,199.37,0,"Medium",68,1,1.0756
"PLY22",22001,"EasyMed",2,3,220,6,46.895,135.96,0,"Medium",68,1,0.53517
"PLY22",22001,"EasyMed",2,3,221,8,109.84,199.37,0,"Medium",68,1,0.71501
"PLY22",22001,"EasyMed",2,3,222,9,141.32,231.09,0,"Medium",68,1,0.61537
"PLY22",22001,"EasyMed",2,3,223,9,141.32,231.09,0,"Medium",68,1,0.49551
"PLY22",22001,"EasyMed",2,3,224,25,261.74,174.01,1,"Medium",75,1,0.55045
"PLY22",22001,"EasyMed",2,3,225,22,167.32,78.878,1,"Medium",68,0,1.01
"PLY22",22001,"EasyMed",2,3,226,7,78.368,167.68,0,"Medium",68,1,2.4753
"PLY22",22001,"EasyMed",2,3,227,9,141.32,231.09,0,"Medium",68,1,0.74527
"PLY22",22001,"EasyMed",2,3,228,9,141.32,231.09,0,"Medium",68,1,0.49538
"PLY22",22001,"EasyMed",2,3,229,6,46.895,135.96,0,"Medium",68,1,0.53007
"PLY22",22001,"EasyMed",2,3,230,10,172.79,262.78,0,"Medium",68,1,0.71067
"PLY22",22001,"EasyMed",2,3,231,21,135.84,47.187,1,"Medium",75,1,1.5955
"PLY22",22001,"EasyMed",2,3,232,23,198.79,110.6,1,"Medium",75,1,0.79039
"PLY22",22001,"EasyMed",2,3,233,23,198.79,110.6,1,"Medium",75,1,0.53572
"PLY22",22001,"EasyMed",2,3,234,23,198.79,110.6,1,"Medium",75,1,0.46053
"PLY22",22001,"EasyMed",2,3,235,21,135.84,47.187,1,"Medium",75,1,0.63013
"PLY22",22001,"EasyMed",2,3,236,21,135.84,47.187,1,"Medium",75,1,0.38086
"PLY22",22001,"EasyMed",2,3,237,6,46.895,135.96,0,"Medium",68,1,0.4904
"PLY22",22001,"EasyMed",2,3,238,25,261.74,174.01,1,"Medium",75,1,1.3053
"PLY22",22001,"EasyMed",2,3,239,9,141.32,231.09,0,"Medium",68,1,1.5554
"PLY22",22001,"EasyMed",2,3,240,24,230.26,142.32,1,"Medium",75,1,3.0067
"PLY22",22001,"EasyMed",2,4,241,21,135.84,47.187,1,"Medium",75,1,5.8219
"PLY22",22001,"EasyMed",2,4,242,24,230.26,142.32,1,"Medium",75,1,0.5502
"PLY22",22001,"EasyMed",2,4,243,25,261.74,174.01,1,"Medium",75,1,0.47699
"PLY22",22001,"EasyMed",2,4,244,10,172.79,262.78,0,"Medium",75,0,0.39034
"PLY22",22001,"EasyMed",2,4,245,7,78.368,167.68,0,"Medium",68,1,0.54491
"PLY22",22001,"EasyMed",2,4,246,24,230.26,142.32,1,"Medium",75,1,0.50015
"PLY22",22001,"EasyMed",2,4,247,23,198.79,110.6,1,"Medium",75,1,0.54502
"PLY22",22001,"EasyMed",2,4,248,22,167.32,78.878,1,"Medium",75,1,1.2409
"PLY22",22001,"EasyMed",2,4,249,7,78.368,167.68,0,"Medium",68,1,0.89085
"PLY22",22001,"EasyMed",2,4,250,21,135.84,47.187,1,"Medium",75,1,1.0502
"PLY22",22001,"EasyMed",2,4,251,10,172.79,262.78,0,"Medium",68,1,0.75075
"PLY22",22001,"EasyMed",2,4,252,24,230.26,142.32,1,"Medium",75,1,0.54525
"PLY22",22001,"EasyMed",2,4,253,23,198.79,110.6,1,"Medium",75,1,0.53515
"PLY22",22001,"EasyMed",2,4,254,8,109.84,199.37,0,"Medium",68,1,0.64076
"PLY22",22001,"EasyMed",2,4,255,25,261.74,174.01,1,"Medium",75,1,0.57075
"PLY22",22001,"EasyMed",2,4,256,21,135.84,47.187,1,"Medium",68,0,1.5559
"PLY22",22001,"EasyMed",2,4,257,22,167.32,78.878,1,"Medium",75,1,0.85015
"PLY22",22001,"EasyMed",2,4,258,9,141.32,231.09,0,"Medium",68,1,0.59003
"PLY22",22001,"EasyMed",2,4,259,24,230.26,142.32,1,"Medium",75,1,0.62024
"PLY22",22001,"EasyMed",2,4,260,9,141.32,231.09,0,"Medium",68,1,0.61056
"PLY22",22001,"EasyMed",2,4,261,8,109.84,199.37,0,"Medium",68,1,0.77582
"PLY22",22001,"EasyMed",2,4,262,7,78.368,167.68,0,"Medium",68,1,0.65051
"PLY22",22001,"EasyMed",2,4,263,22,167.32,78.878,1,"Medium",68,0,0.77028
"PLY22",22001,"EasyMed",2,4,264,23,198.79,110.6,1,"Medium",75,1,0.87496
"PLY22",22001,"EasyMed",2,4,265,6,46.895,135.96,0,"Medium",68,1,0.43582
"PLY22",22001,"EasyMed",2,4,266,22,167.32,78.878,1,"Medium",75,1,0.55531
"PLY22",22001,"EasyMed",2,4,267,6,46.895,135.96,0,"Medium",68,1,0.45548
"PLY22",22001,"EasyMed",2,4,268,22,167.32,78.878,1,"Medium",75,1,0.79003
"PLY22",22001,"EasyMed",2,4,269,7,78.368,167.68,0,"Medium",68,1,0.99031
"PLY22",22001,"EasyMed",2,4,270,10,172.79,262.78,0,"Medium",75,0,0.37051
"PLY22",22001,"EasyMed",2,5,271,24,230.26,142.32,1,"Medium",75,1,0.66005
"PLY22",22001,"EasyMed",2,5,272,9,141.32,231.09,0,"Medium",68,1,0.85037
"PLY22",22001,"EasyMed",2,5,273,22,167.32,78.878,1,"Medium",75,1,0.6408
"PLY22",22001,"EasyMed",2,5,274,23,198.79,110.6,1,"Medium",75,1,0.40082
"PLY22",22001,"EasyMed",2,5,275,7,78.368,167.68,0,"Medium",68,1,0.67555
"PLY22",22001,"EasyMed",2,5,276,7,78.368,167.68,0,"Medium",68,1,0.57581
"PLY22",22001,"EasyMed",2,5,277,21,135.84,47.187,1,"Medium",75,1,0.66544
"PLY22",22001,"EasyMed",2,5,278,10,172.79,262.78,0,"Medium",68,1,0.61035
"PLY22",22001,"EasyMed",2,5,279,8,109.84,199.37,0,"Medium",68,1,1.3355
"PLY22",22001,"EasyMed",2,5,280,8,109.84,199.37,0,"Medium",68,1,0.46069
"PLY22",22001,"EasyMed",2,5,281,22,167.32,78.878,1,"Medium",75,1,0.63534
"PLY22",22001,"EasyMed",2,5,282,25,261.74,174.01,1,"Medium",75,1,0.55495
"PLY22",22001,"EasyMed",2,5,283,8,109.84,199.37,0,"Medium",68,1,0.88051
"PLY22",22001,"EasyMed",2,5,284,21,135.84,47.187,1,"Medium",68,0,0.56566
"PLY22",22001,"EasyMed",2,5,285,22,167.32,78.878,1,"Medium",68,0,1.556
"PLY22",22001,"EasyMed",2,5,286,21,135.84,47.187,1,"Medium",75,1,1.3503
"PLY22",22001,"EasyMed",2,5,287,24,230.26,142.32,1,"Medium",75,1,0.53006
"PLY22",22001,"EasyMed",2,5,288,6,46.895,135.96,0,"Medium",68,1,0.51572
"PLY22",22001,"EasyMed",2,5,289,24,230.26,142.32,1,"Medium",75,1,0.65069
"PLY22",22001,"EasyMed",2,5,290,24,230.26,142.32,1,"Medium",75,1,0.58486
"PLY22",22001,"EasyMed",2,5,291,6,46.895,135.96,0,"Medium",68,1,0.57991
"PLY22",22001,"EasyMed",2,5,292,8,109.84,199.37,0,"Medium",68,1,1.1104
"PLY22",22001,"EasyMed",2,5,293,23,198.79,110.6,1,"Medium",75,1,0.57021
"PLY22",22001,"EasyMed",2,5,294,8,109.84,199.37,0,"Medium",68,1,1.0853
"PLY22",22001,"EasyMed",2,5,295,9,141.32,231.09,0,"Medium",68,1,0.49013
"PLY22",22001,"EasyMed",2,5,296,21,135.84,47.187,1,"Medium",75,1,0.70995
"PLY22",22001,"EasyMed",2,5,297,8,109.84,199.37,0,"Medium",75,0,0.56532
"PLY22",22001,"EasyMed",2,5,298,6,46.895,135.96,0,"Medium",68,1,0.53054
"PLY22",22001,"EasyMed",2,5,299,10,172.79,262.78,0,"Medium",68,1,0.6854
"PLY22",22001,"EasyMed",2,5,300,6,46.895,135.96,0,"Medium",68,1,0.52003
"PLY22",22002,"EasyMed",1,1,1,26,157.74,25,1,"Easy",68,0,1.1373
"PLY22",22002,"EasyMed",1,1,2,1,25,158.15,0,"Easy",75,0,0.97077
"PLY22",22002,"EasyMed",1,1,3,5,150.89,285,0,"Easy",68,1,0.81061
"PLY22",22002,"EasyMed",1,1,4,26,157.74,25,1,"Easy",68,0,0.62054
"PLY22",22002,"EasyMed",1,1,5,2,56.474,189.87,0,"Easy",68,1,1.6959
"PLY22",22002,"EasyMed",1,1,6,1,25,158.15,0,"Easy",75,0,1.0654
"PLY22",22002,"EasyMed",1,1,7,29,252.16,120.1,1,"Easy",75,1,0.73004
"PLY22",22002,"EasyMed",1,1,8,27,189.21,56.691,1,"Easy",68,0,1.285
"PLY22",22002,"EasyMed",1,1,9,26,157.74,25,1,"Easy",75,1,3.1509
"PLY22",22002,"EasyMed",1,1,10,30,285,151.82,1,"Easy",75,1,1.1752
"PLY22",22002,"EasyMed",1,1,11,27,189.21,56.691,1,"Easy",75,1,2.6106
"PLY22",22002,"EasyMed",1,1,12,5,150.89,285,0,"Easy",68,1,0.9102
"PLY22",22002,"EasyMed",1,1,13,2,56.474,189.87,0,"Easy",75,0,0.69077
"PLY22",22002,"EasyMed",1,1,14,3,87.947,221.56,0,"Easy",68,1,0.52065
"PLY22",22002,"EasyMed",1,1,15,30,285,151.82,1,"Easy",68,0,0.68488
"PLY22",22002,"EasyMed",1,1,16,5,150.89,285,0,"Easy",68,1,1.2159
"PLY22",22002,"EasyMed",1,1,17,30,285,151.82,1,"Easy",75,1,1.7608
"PLY22",22002,"EasyMed",1,1,18,26,157.74,25,1,"Easy",68,0,0.70037
"PLY22",22002,"EasyMed",1,1,19,3,87.947,221.56,0,"Easy",75,0,0.63561
"PLY22",22002,"EasyMed",1,1,20,26,157.74,25,1,"Easy",68,0,0.90086
"PLY22",22002,"EasyMed",1,1,21,29,252.16,120.1,1,"Easy",75,1,0.68576
"PLY22",22002,"EasyMed",1,1,22,2,56.474,189.87,0,"Easy",75,0,0.90037
"PLY22",22002,"EasyMed",1,1,23,29,252.16,120.1,1,"Easy",75,1,1.0106
"PLY22",22002,"EasyMed",1,1,24,29,252.16,120.1,1,"Easy",75,1,0.63017
"PLY22",22002,"EasyMed",1,1,25,28,220.68,88.411,1,"Easy",75,1,0.59573
"PLY22",22002,"EasyMed",1,1,26,1,25,158.15,0,"Easy",75,0,1.565
"PLY22",22002,"EasyMed",1,1,27,30,285,151.82,1,"Easy",75,1,0.61526
"PLY22",22002,"EasyMed",1,1,28,5,150.89,285,0,"Easy",68,1,0.69056
"PLY22",22002,"EasyMed",1,1,29,4,119.42,253.28,0,"Easy",68,1,0.79573
"PLY22",22002,"EasyMed",1,1,30,29,252.16,120.1,1,"Easy",75,1,0.88998
"PLY22",22002,"EasyMed",1,2,31,28,220.68,88.411,1,"Easy",75,1,1.2755
"PLY22",22002,"EasyMed",1,2,32,27,189.21,56.691,1,"Easy",68,0,0.70051
"PLY22",22002,"EasyMed",1,2,33,1,25,158.15,0,"Easy",68,1,1.0658
"PLY22",22002,"EasyMed",1,2,34,4,119.42,253.28,0,"Easy",68,1,1.33
"PLY22",22002,"EasyMed",1,2,35,27,189.21,56.691,1,"Easy",75,1,1.5703
"PLY22",22002,"EasyMed",1,2,36,5,150.89,285,0,"Easy",75,0,0.85588
"PLY22",22002,"EasyMed",1,2,37,28,220.68,88.411,1,"Easy",75,1,0.72054
"PLY22",22002,"EasyMed",1,2,38,5,150.89,285,0,"Easy",75,0,0.39567
"PLY22",22002,"EasyMed",1,2,39,29,252.16,120.1,1,"Easy",75,1,0.57055
"PLY22",22002,"EasyMed",1,2,40,3,87.947,221.56,0,"Easy",68,1,0.80558
"PLY22",22002,"EasyMed",1,2,41,4,119.42,253.28,0,"Easy",68,1,1.5859
"PLY22",22002,"EasyMed",1,2,42,5,150.89,285,0,"Easy",68,1,0.52056
"PLY22",22002,"EasyMed",1,2,43,1,25,158.15,0,"Easy",68,1,0.76555
"PLY22",22002,"EasyMed",1,2,44,4,119.42,253.28,0,"Easy",68,1,0.62521
"PLY22",22002,"EasyMed",1,2,45,2,56.474,189.87,0,"Easy",68,1,0.66036
"PLY22",22002,"EasyMed",1,2,46,30,285,151.82,1,"Easy",75,1,0.70565
"PLY22",22002,"EasyMed",1,2,47,3,87.947,221.56,0,"Easy",68,1,1.5509
"PLY22",22002,"EasyMed",1,2,48,29,252.16,120.1,1,"Easy",68,0,0.80545
"PLY22",22002,"EasyMed",1,2,49,26,157.74,25,1,"Easy",68,0,1.2554
"PLY22",22002,"EasyMed",1,2,50,30,285,151.82,1,"Easy",75,1,0.58056
"PLY22",22002,"EasyMed",1,2,51,30,285,151.82,1,"Easy",75,1,0.8256
"PLY22",22002,"EasyMed",1,2,52,2,56.474,189.87,0,"Easy",68,1,0.85047
"PLY22",22002,"EasyMed",1,2,53,4,119.42,253.28,0,"Easy",68,1,0.84069
"PLY22",22002,"EasyMed",1,2,54,26,157.74,25,1,"Easy",75,1,0.97069
"PLY22",22002,"EasyMed",1,2,55,28,220.68,88.411,1,"Easy",75,1,0.76584
"PLY22",22002,"EasyMed",1,2,56,2,56.474,189.87,0,"Easy",68,1,0.42538
"PLY22",22002,"EasyMed",1,2,57,3,87.947,221.56,0,"Easy",68,1,0.60625
"PLY22",22002,"EasyMed",1,2,58,27,189.21,56.691,1,"Easy",75,1,0.98557
"PLY22",22002,"EasyMed",1,2,59,28,220.68,88.411,1,"Easy",75,1,0.50545
"PLY22",22002,"EasyMed",1,2,60,4,119.42,253.28,0,"Easy",68,1,0.54531
"PLY22",22002,"EasyMed",1,3,61,28,220.68,88.411,1,"Easy",75,1,0.48533
"PLY22",22002,"EasyMed",1,3,62,5,150.89,285,0,"Easy",75,0,0.61055
"PLY22",22002,"EasyMed",1,3,63,28,220.68,88.411,1,"Easy",75,1,0.57069
"PLY22",22002,"EasyMed",1,3,64,27,189.21,56.691,1,"Easy",75,1,0.55552
"PLY22",22002,"EasyMed",1,3,65,30,285,151.82,1,"Easy",75,1,0.4752
"PLY22",22002,"EasyMed",1,3,66,29,252.16,120.1,1,"Easy",75,1,0.52071
"PLY22",22002,"EasyMed",1,3,67,29,252.16,120.1,1,"Easy",75,1,0.39051
"PLY22",22002,"EasyMed",1,3,68,4,119.42,253.28,0,"Easy",68,1,0.83996
"PLY22",22002,"EasyMed",1,3,69,4,119.42,253.28,0,"Easy",68,1,0.61572
"PLY22",22002,"EasyMed",1,3,70,4,119.42,253.28,0,"Easy",68,1,0.64049
"PLY22",22002,"EasyMed",1,3,71,1,25,158.15,0,"Easy",68,1,0.79051
"PLY22",22002,"EasyMed",1,3,72,29,252.16,120.1,1,"Easy",75,1,1.1008
"PLY22",22002,"EasyMed",1,3,73,28,220.68,88.411,1,"Easy",75,1,0.37514
"PLY22",22002,"EasyMed",1,3,74,28,220.68,88.411,1,"Easy",75,1,0.33998
"PLY22",22002,"EasyMed",1,3,75,28,220.68,88.411,1,"Easy",75,1,0.5102
"PLY22",22002,"EasyMed",1,3,76,28,220.68,88.411,1,"Easy",75,1,0.36542
"PLY22",22002,"EasyMed",1,3,77,1,25,158.15,0,"Easy",68,1,0.6152
"PLY22",22002,"EasyMed",1,3,78,29,252.16,120.1,1,"Easy",75,1,1.2958
"PLY22",22002,"EasyMed",1,3,79,1,25,158.15,0,"Easy",75,0,0.49543
"PLY22",22002,"EasyMed",1,3,80,27,189.21,56.691,1,"Easy",68,0,0.88558
"PLY22",22002,"EasyMed",1,3,81,2,56.474,189.87,0,"Easy",68,1,0.62558
"PLY22",22002,"EasyMed",1,3,82,28,220.68,88.411,1,"Easy",75,1,2.1906
"PLY22",22002,"EasyMed",1,3,83,2,56.474,189.87,0,"Easy",68,1,0.52575
"PLY22",22002,"EasyMed",1,3,84,27,189.21,56.691,1,"Easy",75,1,0.36054
"PLY22",22002,"EasyMed",1,3,85,30,285,151.82,1,"Easy",75,1,0.5905
"PLY22",22002,"EasyMed",1,3,86,4,119.42,253.28,0,"Easy",68,1,0.65039
"PLY22",22002,"EasyMed",1,3,87,5,150.89,285,0,"Easy",68,1,1.321
"PLY22",22002,"EasyMed",1,3,88,28,220.68,88.411,1,"Easy",75,1,1.1954
"PLY22",22002,"EasyMed",1,3,89,29,252.16,120.1,1,"Easy",75,1,0.67053
"PLY22",22002,"EasyMed",1,3,90,3,87.947,221.56,0,"Easy",68,1,0.71529
"PLY22",22002,"EasyMed",1,4,91,27,189.21,56.691,1,"Easy",75,1,1.1753
"PLY22",22002,"EasyMed",1,4,92,5,150.89,285,0,"Easy",68,1,1.6358
"PLY22",22002,"EasyMed",1,4,93,26,157.74,25,1,"Easy",75,1,0.00035828
"PLY22",22002,"EasyMed",1,4,94,26,157.74,25,1,"Easy",75,1,0.63991
"PLY22",22002,"EasyMed",1,4,95,28,220.68,88.411,1,"Easy",75,1,0.67017
"PLY22",22002,"EasyMed",1,4,96,27,189.21,56.691,1,"Easy",75,1,0.9958
"PLY22",22002,"EasyMed",1,4,97,1,25,158.15,0,"Easy",68,1,0.93519
"PLY22",22002,"EasyMed",1,4,98,2,56.474,189.87,0,"Easy",68,1,1.1004
"PLY22",22002,"EasyMed",1,4,99,27,189.21,56.691,1,"Easy",68,0,0.36002
"PLY22",22002,"EasyMed",1,4,100,5,150.89,285,0,"Easy",68,1,0.78024
"PLY22",22002,"EasyMed",1,4,101,27,189.21,56.691,1,"Easy",68,0,0.89511
"PLY22",22002,"EasyMed",1,4,102,3,87.947,221.56,0,"Easy",68,1,1.7857
"PLY22",22002,"EasyMed",1,4,103,4,119.42,253.28,0,"Easy",68,1,0.63625
"PLY22",22002,"EasyMed",1,4,104,4,119.42,253.28,0,"Easy",68,1,1.3409
"PLY22",22002,"EasyMed",1,4,105,2,56.474,189.87,0,"Easy",68,1,0.60506
"PLY22",22002,"EasyMed",1,4,106,29,252.16,120.1,1,"Easy",68,0,1.8851
"PLY22",22002,"EasyMed",1,4,107,1,25,158.15,0,"Easy",68,1,0.68505
"PLY22",22002,"EasyMed",1,4,108,26,157.74,25,1,"Easy",68,0,4.3455
"PLY22",22002,"EasyMed",1,4,109,4,119.42,253.28,0,"Easy",75,0,1.3507
"PLY22",22002,"EasyMed",1,4,110,3,87.947,221.56,0,"Easy",68,1,0.70539
"PLY22",22002,"EasyMed",1,4,111,3,87.947,221.56,0,"Easy",68,1,0.49493
"PLY22",22002,"EasyMed",1,4,112,2,56.474,189.87,0,"Easy",68,1,0.47003
"PLY22",22002,"EasyMed",1,4,113,26,157.74,25,1,"Easy",75,1,0.62567
"PLY22",22002,"EasyMed",1,4,114,1,25,158.15,0,"Easy",68,1,0.55591
"PLY22",22002,"EasyMed",1,4,115,30,285,151.82,1,"Easy",75,1,0.55578
"PLY22",22002,"EasyMed",1,4,116,30,285,151.82,1,"Easy",75,1,0.64004
"PLY22",22002,"EasyMed",1,4,117,3,87.947,221.56,0,"Easy",68,1,0.74491
"PLY22",22002,"EasyMed",1,4,118,1,25,158.15,0,"Easy",68,1,0.61001
"PLY22",22002,"EasyMed",1,4,119,29,252.16,120.1,1,"Easy",75,1,0.69512
"PLY22",22002,"EasyMed",1,4,120,4,119.42,253.28,0,"Easy",68,1,1.5808
"PLY22",22002,"EasyMed",1,5,121,1,25,158.15,0,"Easy",68,1,0.56052
"PLY22",22002,"EasyMed",1,5,122,27,189.21,56.691,1,"Easy",75,1,0.92996
"PLY22",22002,"EasyMed",1,5,123,3,87.947,221.56,0,"Easy",68,1,0.65565
"PLY22",22002,"EasyMed",1,5,124,26,157.74,25,1,"Easy",68,0,1.2401
"PLY22",22002,"EasyMed",1,5,125,26,157.74,25,1,"Easy",75,1,1.3102
"PLY22",22002,"EasyMed",1,5,126,26,157.74,25,1,"Easy",68,0,0.90055
"PLY22",22002,"EasyMed",1,5,127,2,56.474,189.87,0,"Easy",68,1,0.76594
"PLY22",22002,"EasyMed",1,5,128,30,285,151.82,1,"Easy",75,1,0.67033
"PLY22",22002,"EasyMed",1,5,129,5,150.89,285,0,"Easy",75,0,0.85024
"PLY22",22002,"EasyMed",1,5,130,27,189.21,56.691,1,"Easy",68,0,1.4509
"PLY22",22002,"EasyMed",1,5,131,4,119.42,253.28,0,"Easy",68,1,2.2358
"PLY22",22002,"EasyMed",1,5,132,30,285,151.82,1,"Easy",75,1,0.46511
"PLY22",22002,"EasyMed",1,5,133,3,87.947,221.56,0,"Easy",68,1,0.57558
"PLY22",22002,"EasyMed",1,5,134,3,87.947,221.56,0,"Easy",68,1,0.62019
"PLY22",22002,"EasyMed",1,5,135,1,25,158.15,0,"Easy",68,1,0.57072
"PLY22",22002,"EasyMed",1,5,136,30,285,151.82,1,"Easy",75,1,0.48036
"PLY22",22002,"EasyMed",1,5,137,5,150.89,285,0,"Easy",75,0,0.99055
"PLY22",22002,"EasyMed",1,5,138,26,157.74,25,1,"Easy",68,0,0.87046
"PLY22",22002,"EasyMed",1,5,139,5,150.89,285,0,"Easy",68,1,0.66568
"PLY22",22002,"EasyMed",1,5,140,5,150.89,285,0,"Easy",68,1,0.45038
"PLY22",22002,"EasyMed",1,5,141,3,87.947,221.56,0,"Easy",68,1,0.83021
"PLY22",22002,"EasyMed",1,5,142,3,87.947,221.56,0,"Easy",68,1,0.60573
"PLY22",22002,"EasyMed",1,5,143,2,56.474,189.87,0,"Easy",68,1,0.47632
"PLY22",22002,"EasyMed",1,5,144,2,56.474,189.87,0,"Easy",68,1,0.6902
"PLY22",22002,"EasyMed",1,5,145,29,252.16,120.1,1,"Easy",75,1,0.3856
"PLY22",22002,"EasyMed",1,5,146,27,189.21,56.691,1,"Easy",75,1,0.66014
"PLY22",22002,"EasyMed",1,5,147,28,220.68,88.411,1,"Easy",75,1,0.60521
"PLY22",22002,"EasyMed",1,5,148,1,25,158.15,0,"Easy",68,1,0.59541
"PLY22",22002,"EasyMed",1,5,149,2,56.474,189.87,0,"Easy",68,1,0.51546
"PLY22",22002,"EasyMed",1,5,150,30,285,151.82,1,"Easy",75,1,0.51524
"PLY22",22002,"EasyMed",2,1,151,8,109.84,199.37,0,"Medium",68,1,2.4953
"PLY22",22002,"EasyMed",2,1,152,24,230.26,142.32,1,"Medium",75,1,0.61063
"PLY22",22002,"EasyMed",2,1,153,6,46.895,135.96,0,"Medium",68,1,0.62021
"PLY22",22002,"EasyMed",2,1,154,7,78.368,167.68,0,"Medium",68,1,0.51079
"PLY22",22002,"EasyMed",2,1,155,24,230.26,142.32,1,"Medium",75,1,0.82064
"PLY22",22002,"EasyMed",2,1,156,7,78.368,167.68,0,"Medium",68,1,0.70522
"PLY22",22002,"EasyMed",2,1,157,24,230.26,142.32,1,"Medium",75,1,0.45552
"PLY22",22002,"EasyMed",2,1,158,7,78.368,167.68,0,"Medium",68,1,0.49521
"PLY22",22002,"EasyMed",2,1,159,10,172.79,262.78,0,"Medium",75,0,0.69994
"PLY22",22002,"EasyMed",2,1,160,22,167.32,78.878,1,"Medium",68,0,1.5356
"PLY22",22002,"EasyMed",2,1,161,25,261.74,174.01,1,"Medium",75,1,0.68577
"PLY22",22002,"EasyMed",2,1,162,22,167.32,78.878,1,"Medium",75,1,0.34006
"PLY22",22002,"EasyMed",2,1,163,6,46.895,135.96,0,"Medium",68,1,0.55988
"PLY22",22002,"EasyMed",2,1,164,7,78.368,167.68,0,"Medium",75,0,0.7954
"PLY22",22002,"EasyMed",2,1,165,24,230.26,142.32,1,"Medium",75,1,0.64567
"PLY22",22002,"EasyMed",2,1,166,8,109.84,199.37,0,"Medium",68,1,3.285
"PLY22",22002,"EasyMed",2,1,167,22,167.32,78.878,1,"Medium",75,1,0.8408
"PLY22",22002,"EasyMed",2,1,168,10,172.79,262.78,0,"Medium",75,0,0.73989
"PLY22",22002,"EasyMed",2,1,169,23,198.79,110.6,1,"Medium",75,1,0.71996
"PLY22",22002,"EasyMed",2,1,170,9,141.32,231.09,0,"Medium",68,1,0.79535
"PLY22",22002,"EasyMed",2,1,171,6,46.895,135.96,0,"Medium",68,1,0.58538
"PLY22",22002,"EasyMed",2,1,172,9,141.32,231.09,0,"Medium",75,0,1.0956
"PLY22",22002,"EasyMed",2,1,173,8,109.84,199.37,0,"Medium",75,0,0.83046
"PLY22",22002,"EasyMed",2,1,174,25,261.74,174.01,1,"Medium",75,1,0.73534
"PLY22",22002,"EasyMed",2,1,175,8,109.84,199.37,0,"Medium",68,1,0.62536
"PLY22",22002,"EasyMed",2,1,176,25,261.74,174.01,1,"Medium",75,1,0.85016
"PLY22",22002,"EasyMed",2,1,177,6,46.895,135.96,0,"Medium",68,1,0.55513
"PLY22",22002,"EasyMed",2,1,178,25,261.74,174.01,1,"Medium",75,1,0.5917
"PLY22",22002,"EasyMed",2,1,179,6,46.895,135.96,0,"Medium",68,1,1.7159
"PLY22",22002,"EasyMed",2,1,180,25,261.74,174.01,1,"Medium",75,1,0.52058
"PLY22",22002,"EasyMed",2,2,181,10,172.79,262.78,0,"Medium",75,0,1.3158
"PLY22",22002,"EasyMed",2,2,182,22,167.32,78.878,1,"Medium",75,1,1.125
"PLY22",22002,"EasyMed",2,2,183,24,230.26,142.32,1,"Medium",75,1,0.49005
"PLY22",22002,"EasyMed",2,2,184,25,261.74,174.01,1,"Medium",75,1,0.6802
"PLY22",22002,"EasyMed",2,2,185,6,46.895,135.96,0,"Medium",68,1,0.66994
"PLY22",22002,"EasyMed",2,2,186,23,198.79,110.6,1,"Medium",75,1,0.5806
"PLY22",22002,"EasyMed",2,2,187,7,78.368,167.68,0,"Medium",75,0,0.4602
"PLY22",22002,"EasyMed",2,2,188,25,261.74,174.01,1,"Medium",68,0,0.42039
"PLY22",22002,"EasyMed",2,2,189,10,172.79,262.78,0,"Medium",75,0,0.84566
"PLY22",22002,"EasyMed",2,2,190,7,78.368,167.68,0,"Medium",68,1,0.47056
"PLY22",22002,"EasyMed",2,2,191,21,135.84,47.187,1,"Medium",75,1,0.91038
"PLY22",22002,"EasyMed",2,2,192,9,141.32,231.09,0,"Medium",75,0,0.42537
"PLY22",22002,"EasyMed",2,2,193,8,109.84,199.37,0,"Medium",75,0,0.60019
"PLY22",22002,"EasyMed",2,2,194,22,167.32,78.878,1,"Medium",68,0,0.42075
"PLY22",22002,"EasyMed",2,2,195,8,109.84,199.37,0,"Medium",68,1,0.49026
"PLY22",22002,"EasyMed",2,2,196,6,46.895,135.96,0,"Medium",68,1,0.58521
"PLY22",22002,"EasyMed",2,2,197,23,198.79,110.6,1,"Medium",75,1,0.74513
"PLY22",22002,"EasyMed",2,2,198,23,198.79,110.6,1,"Medium",75,1,1.0553
"PLY22",22002,"EasyMed",2,2,199,21,135.84,47.187,1,"Medium",68,0,0.88495
"PLY22",22002,"EasyMed",2,2,200,8,109.84,199.37,0,"Medium",68,1,1.0906
"PLY22",22002,"EasyMed",2,2,201,7,78.368,167.68,0,"Medium",68,1,0.70066
"PLY22",22002,"EasyMed",2,2,202,21,135.84,47.187,1,"Medium",75,1,0.70502
"PLY22",22002,"EasyMed",2,2,203,10,172.79,262.78,0,"Medium",68,1,1.0556
"PLY22",22002,"EasyMed",2,2,204,10,172.79,262.78,0,"Medium",75,0,1.1403
"PLY22",22002,"EasyMed",2,2,205,22,167.32,78.878,1,"Medium",75,1,1.7705
"PLY22",22002,"EasyMed",2,2,206,22,167.32,78.878,1,"Medium",75,1,0.75501
"PLY22",22002,"EasyMed",2,2,207,25,261.74,174.01,1,"Medium",68,0,0.93576
"PLY22",22002,"EasyMed",2,2,208,10,172.79,262.78,0,"Medium",75,0,0.62999
"PLY22",22002,"EasyMed",2,2,209,7,78.368,167.68,0,"Medium",68,1,0.56518
"PLY22",22002,"EasyMed",2,2,210,8,109.84,199.37,0,"Medium",68,1,0.41527
"PLY22",22002,"EasyMed",2,3,211,23,198.79,110.6,1,"Medium",68,0,0.52024
"PLY22",22002,"EasyMed",2,3,212,23,198.79,110.6,1,"Medium",68,0,0.64513
"PLY22",22002,"EasyMed",2,3,213,25,261.74,174.01,1,"Medium",75,1,0.78036
"PLY22",22002,"EasyMed",2,3,214,21,135.84,47.187,1,"Medium",68,0,0.71052
"PLY22",22002,"EasyMed",2,3,215,6,46.895,135.96,0,"Medium",68,1,0.71522
"PLY22",22002,"EasyMed",2,3,216,23,198.79,110.6,1,"Medium",75,1,0.71008
"PLY22",22002,"EasyMed",2,3,217,8,109.84,199.37,0,"Medium",68,1,0.62054
"PLY22",22002,"EasyMed",2,3,218,24,230.26,142.32,1,"Medium",75,1,0.90075
"PLY22",22002,"EasyMed",2,3,219,9,141.32,231.09,0,"Medium",75,0,1.1957
"PLY22",22002,"EasyMed",2,3,220,6,46.895,135.96,0,"Medium",68,1,0.60572
"PLY22",22002,"EasyMed",2,3,221,22,167.32,78.878,1,"Medium",75,1,0.59058
"PLY22",22002,"EasyMed",2,3,222,23,198.79,110.6,1,"Medium",75,1,0.57053
"PLY22",22002,"EasyMed",2,3,223,23,198.79,110.6,1,"Medium",75,1,0.9905
"PLY22",22002,"EasyMed",2,3,224,21,135.84,47.187,1,"Medium",75,1,0.67014
"PLY22",22002,"EasyMed",2,3,225,9,141.32,231.09,0,"Medium",75,0,0.77521
"PLY22",22002,"EasyMed",2,3,226,23,198.79,110.6,1,"Medium",75,1,0.6658
"PLY22",22002,"EasyMed",2,3,227,21,135.84,47.187,1,"Medium",75,1,0.60571
"PLY22",22002,"EasyMed",2,3,228,10,172.79,262.78,0,"Medium",75,0,0.44085
"PLY22",22002,"EasyMed",2,3,229,22,167.32,78.878,1,"Medium",75,1,0.41586
"PLY22",22002,"EasyMed",2,3,230,25,261.74,174.01,1,"Medium",75,1,0.54575
"PLY22",22002,"EasyMed",2,3,231,25,261.74,174.01,1,"Medium",75,1,0.38985
"PLY22",22002,"EasyMed",2,3,232,22,167.32,78.878,1,"Medium",75,1,0.48519
"PLY22",22002,"EasyMed",2,3,233,9,141.32,231.09,0,"Medium",75,0,0.3903
"PLY22",22002,"EasyMed",2,3,234,23,198.79,110.6,1,"Medium",75,1,0.72519
"PLY22",22002,"EasyMed",2,3,235,7,78.368,167.68,0,"Medium",68,1,0.64527
"PLY22",22002,"EasyMed",2,3,236,25,261.74,174.01,1,"Medium",75,1,0.56497
"PLY22",22002,"EasyMed",2,3,237,24,230.26,142.32,1,"Medium",68,0,1.8358
"PLY22",22002,"EasyMed",2,3,238,10,172.79,262.78,0,"Medium",75,0,0.29588
"PLY22",22002,"EasyMed",2,3,239,7,78.368,167.68,0,"Medium",75,0,0.67545
"PLY22",22002,"EasyMed",2,3,240,24,230.26,142.32,1,"Medium",75,1,0.72032
"PLY22",22002,"EasyMed",2,4,241,24,230.26,142.32,1,"Medium",75,1,0.57518
"PLY22",22002,"EasyMed",2,4,242,21,135.84,47.187,1,"Medium",75,1,0.49579
"PLY22",22002,"EasyMed",2,4,243,24,230.26,142.32,1,"Medium",75,1,0.53069
"PLY22",22002,"EasyMed",2,4,244,8,109.84,199.37,0,"Medium",75,0,0.5902
"PLY22",22002,"EasyMed",2,4,245,22,167.32,78.878,1,"Medium",75,1,0.64519
"PLY22",22002,"EasyMed",2,4,246,21,135.84,47.187,1,"Medium",75,1,0.64032
"PLY22",22002,"EasyMed",2,4,247,7,78.368,167.68,0,"Medium",75,0,0.63542
"PLY22",22002,"EasyMed",2,4,248,9,141.32,231.09,0,"Medium",75,0,0.81031
"PLY22",22002,"EasyMed",2,4,249,9,141.32,231.09,0,"Medium",68,1,0.69559
"PLY22",22002,"EasyMed",2,4,250,10,172.79,262.78,0,"Medium",75,0,0.45076
"PLY22",22002,"EasyMed",2,4,251,25,261.74,174.01,1,"Medium",75,1,0.59496
"PLY22",22002,"EasyMed",2,4,252,23,198.79,110.6,1,"Medium",75,1,0.70013
"PLY22",22002,"EasyMed",2,4,253,24,230.26,142.32,1,"Medium",75,1,0.74082
"PLY22",22002,"EasyMed",2,4,254,9,141.32,231.09,0,"Medium",75,0,0.36556
"PLY22",22002,"EasyMed",2,4,255,24,230.26,142.32,1,"Medium",68,0,0.4655
"PLY22",22002,"EasyMed",2,4,256,21,135.84,47.187,1,"Medium",75,1,0.37521
"PLY22",22002,"EasyMed",2,4,257,22,167.32,78.878,1,"Medium",75,1,0.73085
"PLY22",22002,"EasyMed",2,4,258,23,198.79,110.6,1,"Medium",75,1,0.69545
"PLY22",22002,"EasyMed",2,4,259,6,46.895,135.96,0,"Medium",75,0,0.38031
"PLY22",22002,"EasyMed",2,4,260,7,78.368,167.68,0,"Medium",68,1,0.55094
"PLY22",22002,"EasyMed",2,4,261,10,172.79,262.78,0,"Medium",68,1,0.67019
"PLY22",22002,"EasyMed",2,4,262,7,78.368,167.68,0,"Medium",68,1,0.58
"PLY22",22002,"EasyMed",2,4,263,10,172.79,262.78,0,"Medium",68,1,0.49558
"PLY22",22002,"EasyMed",2,4,264,10,172.79,262.78,0,"Medium",68,1,0.44515
"PLY22",22002,"EasyMed",2,4,265,7,78.368,167.68,0,"Medium",68,1,0.57016
"PLY22",22002,"EasyMed",2,4,266,9,141.32,231.09,0,"Medium",68,1,0.45029
"PLY22",22002,"EasyMed",2,4,267,24,230.26,142.32,1,"Medium",75,1,0.81029
"PLY22",22002,"EasyMed",2,4,268,10,172.79,262.78,0,"Medium",68,1,0.8812
"PLY22",22002,"EasyMed",2,4,269,6,46.895,135.96,0,"Medium",68,1,0.65991
"PLY22",22002,"EasyMed",2,4,270,25,261.74,174.01,1,"Medium",75,1,0.7103
"PLY22",22002,"EasyMed",2,5,271,8,109.84,199.37,0,"Medium",68,1,0.90576
"PLY22",22002,"EasyMed",2,5,272,7,78.368,167.68,0,"Medium",68,1,2.9755
"PLY22",22002,"EasyMed",2,5,273,8,109.84,199.37,0,"Medium",68,1,1.2802
"PLY22",22002,"EasyMed",2,5,274,23,198.79,110.6,1,"Medium",68,0,1.035
"PLY22",22002,"EasyMed",2,5,275,6,46.895,135.96,0,"Medium",68,1,1.2502
"PLY22",22002,"EasyMed",2,5,276,24,230.26,142.32,1,"Medium",75,1,0.98589
"PLY22",22002,"EasyMed",2,5,277,24,230.26,142.32,1,"Medium",75,1,0.85045
"PLY22",22002,"EasyMed",2,5,278,6,46.895,135.96,0,"Medium",68,1,0.65001
"PLY22",22002,"EasyMed",2,5,279,6,46.895,135.96,0,"Medium",68,1,0.48018
"PLY22",22002,"EasyMed",2,5,280,8,109.84,199.37,0,"Medium",75,0,0.43046
"PLY22",22002,"EasyMed",2,5,281,6,46.895,135.96,0,"Medium",68,1,0.38531
"PLY22",22002,"EasyMed",2,5,282,8,109.84,199.37,0,"Medium",68,1,1.7803
"PLY22",22002,"EasyMed",2,5,283,21,135.84,47.187,1,"Medium",75,1,0.54034
"PLY22",22002,"EasyMed",2,5,284,9,141.32,231.09,0,"Medium",75,0,0.83518
"PLY22",22002,"EasyMed",2,5,285,21,135.84,47.187,1,"Medium",75,1,1.225
"PLY22",22002,"EasyMed",2,5,286,22,167.32,78.878,1,"Medium",75,1,0.55558
"PLY22",22002,"EasyMed",2,5,287,9,141.32,231.09,0,"Medium",68,1,1.0052
"PLY22",22002,"EasyMed",2,5,288,9,141.32,231.09,0,"Medium",68,1,0.53041
"PLY22",22002,"EasyMed",2,5,289,9,141.32,231.09,0,"Medium",68,1,0.80509
"PLY22",22002,"EasyMed",2,5,290,10,172.79,262.78,0,"Medium",75,0,0.55049
"PLY22",22002,"EasyMed",2,5,291,21,135.84,47.187,1,"Medium",68,0,0.83548
"PLY22",22002,"EasyMed",2,5,292,23,198.79,110.6,1,"Medium",75,1,0.31544
"PLY22",22002,"EasyMed",2,5,293,25,261.74,174.01,1,"Medium",75,1,0.4309
"PLY22",22002,"EasyMed",2,5,294,9,141.32,231.09,0,"Medium",75,0,0.51016
"PLY22",22002,"EasyMed",2,5,295,21,135.84,47.187,1,"Medium",75,1,0.48537
"PLY22",22002,"EasyMed",2,5,296,21,135.84,47.187,1,"Medium",68,0,0.59556
"PLY22",22002,"EasyMed",2,5,297,22,167.32,78.878,1,"Medium",75,1,0.54054
"PLY22",22002,"EasyMed",2,5,298,22,167.32,78.878,1,"Medium",75,1,0.47536
"PLY22",22002,"EasyMed",2,5,299,21,135.84,47.187,1,"Medium",75,1,0.34493
"PLY22",22002,"EasyMed",2,5,300,8,109.84,199.37,0,"Medium",75,0,0.33517
"PLY22",22003,"EasyMed",1,1,1,28,220.68,88.411,1,"Easy",68,0,2.2418
"PLY22",22003,"EasyMed",1,1,2,27,189.21,56.691,1,"Easy",68,0,3.4651
"PLY22",22003,"EasyMed",1,1,3,4,119.42,253.28,0,"Easy",75,0,4.2453
"PLY22",22003,"EasyMed",1,1,4,2,56.474,189.87,0,"Easy",68,1,1.8352
"PLY22",22003,"EasyMed",1,1,5,30,285,151.82,1,"Easy",75,1,4.1106
"PLY22",22003,"EasyMed",1,1,6,26,157.74,25,1,"Easy",75,1,2.0906
"PLY22",22003,"EasyMed",1,1,7,5,150.89,285,0,"Easy",68,1,3.69
"PLY22",22003,"EasyMed",1,1,8,3,87.947,221.56,0,"Easy",75,0,1.5258
"PLY22",22003,"EasyMed",1,1,9,26,157.74,25,1,"Easy",75,1,2.8757
"PLY22",22003,"EasyMed",1,1,10,28,220.68,88.411,1,"Easy",75,1,1.4727
"PLY22",22003,"EasyMed",1,1,11,2,56.474,189.87,0,"Easy",68,1,6.8454
"PLY22",22003,"EasyMed",1,1,12,3,87.947,221.56,0,"Easy",68,1,2.8356
"PLY22",22003,"EasyMed",1,1,13,29,252.16,120.1,1,"Easy",75,1,0.95523
"PLY22",22003,"EasyMed",1,1,14,30,285,151.82,1,"Easy",75,1,0.90082
"PLY22",22003,"EasyMed",1,1,15,1,25,158.15,0,"Easy",68,1,0.94514
"PLY22",22003,"EasyMed",1,1,16,29,252.16,120.1,1,"Easy",75,1,1.1503
"PLY22",22003,"EasyMed",1,1,17,27,189.21,56.691,1,"Easy",75,1,0.94499
"PLY22",22003,"EasyMed",1,1,18,29,252.16,120.1,1,"Easy",68,0,1.4302
"PLY22",22003,"EasyMed",1,1,19,4,119.42,253.28,0,"Easy",68,1,1.5651
"PLY22",22003,"EasyMed",1,1,20,2,56.474,189.87,0,"Easy",68,1,0.81541
"PLY22",22003,"EasyMed",1,1,21,29,252.16,120.1,1,"Easy",75,1,1.0101
"PLY22",22003,"EasyMed",1,1,22,27,189.21,56.691,1,"Easy",75,1,0.70057
"PLY22",22003,"EasyMed",1,1,23,28,220.68,88.411,1,"Easy",75,1,0.60053
"PLY22",22003,"EasyMed",1,1,24,27,189.21,56.691,1,"Easy",75,1,0.84071
"PLY22",22003,"EasyMed",1,1,25,30,285,151.82,1,"Easy",75,1,0.80516
"PLY22",22003,"EasyMed",1,1,26,3,87.947,221.56,0,"Easy",68,1,0.78034
"PLY22",22003,"EasyMed",1,1,27,27,189.21,56.691,1,"Easy",75,1,1.0651
"PLY22",22003,"EasyMed",1,1,28,4,119.42,253.28,0,"Easy",68,1,0.68573
"PLY22",22003,"EasyMed",1,1,29,3,87.947,221.56,0,"Easy",68,1,0.50999
"PLY22",22003,"EasyMed",1,1,30,28,220.68,88.411,1,"Easy",75,1,0.68045
"PLY22",22003,"EasyMed",1,2,31,3,87.947,221.56,0,"Easy",68,1,0.6551
"PLY22",22003,"EasyMed",1,2,32,29,252.16,120.1,1,"Easy",75,1,0.53536
"PLY22",22003,"EasyMed",1,2,33,28,220.68,88.411,1,"Easy",75,1,0.43087
"PLY22",22003,"EasyMed",1,2,34,4,119.42,253.28,0,"Easy",68,1,0.55089
"PLY22",22003,"EasyMed",1,2,35,26,157.74,25,1,"Easy",75,1,0.40581
"PLY22",22003,"EasyMed",1,2,36,1,25,158.15,0,"Easy",68,1,0.56062
"PLY22",22003,"EasyMed",1,2,37,2,56.474,189.87,0,"Easy",68,1,0.49576
"PLY22",22003,"EasyMed",1,2,38,29,252.16,120.1,1,"Easy",75,1,0.69508
"PLY22",22003,"EasyMed",1,2,39,29,252.16,120.1,1,"Easy",75,1,0.47085
"PLY22",22003,"EasyMed",1,2,40,27,189.21,56.691,1,"Easy",75,1,1.0603
"PLY22",22003,"EasyMed",1,2,41,5,150.89,285,0,"Easy",68,1,0.85063
"PLY22",22003,"EasyMed",1,2,42,26,157.74,25,1,"Easy",68,0,1.3251
"PLY22",22003,"EasyMed",1,2,43,5,150.89,285,0,"Easy",68,1,0.90518
"PLY22",22003,"EasyMed",1,2,44,30,285,151.82,1,"Easy",75,1,0.7104
"PLY22",22003,"EasyMed",1,2,45,1,25,158.15,0,"Easy",68,1,0.67492
"PLY22",22003,"EasyMed",1,2,46,4,119.42,253.28,0,"Easy",68,1,0.78038
"PLY22",22003,"EasyMed",1,2,47,30,285,151.82,1,"Easy",75,1,0.4508
"PLY22",22003,"EasyMed",1,2,48,26,157.74,25,1,"Easy",75,1,0.46498
"PLY22",22003,"EasyMed",1,2,49,2,56.474,189.87,0,"Easy",68,1,0.55555
"PLY22",22003,"EasyMed",1,2,50,1,25,158.15,0,"Easy",68,1,0.60556
"PLY22",22003,"EasyMed",1,2,51,30,285,151.82,1,"Easy",75,1,0.50509
"PLY22",22003,"EasyMed",1,2,52,2,56.474,189.87,0,"Easy",68,1,0.54089
"PLY22",22003,"EasyMed",1,2,53,30,285,151.82,1,"Easy",75,1,0.46054
"PLY22",22003,"EasyMed",1,2,54,3,87.947,221.56,0,"Easy",68,1,0.56075
"PLY22",22003,"EasyMed",1,2,55,29,252.16,120.1,1,"Easy",75,1,0.48524
"PLY22",22003,"EasyMed",1,2,56,4,119.42,253.28,0,"Easy",68,1,0.49611
"PLY22",22003,"EasyMed",1,2,57,5,150.89,285,0,"Easy",68,1,0.53567
"PLY22",22003,"EasyMed",1,2,58,2,56.474,189.87,0,"Easy",68,1,0.55527
"PLY22",22003,"EasyMed",1,2,59,2,56.474,189.87,0,"Easy",68,1,0.41499
"PLY22",22003,"EasyMed",1,2,60,30,285,151.82,1,"Easy",75,1,0.98512
"PLY22",22003,"EasyMed",1,3,61,1,25,158.15,0,"Easy",68,1,0.70001
"PLY22",22003,"EasyMed",1,3,62,2,56.474,189.87,0,"Easy",68,1,0.51998
"PLY22",22003,"EasyMed",1,3,63,4,119.42,253.28,0,"Easy",68,1,0.75036
"PLY22",22003,"EasyMed",1,3,64,4,119.42,253.28,0,"Easy",68,1,0.50001
"PLY22",22003,"EasyMed",1,3,65,30,285,151.82,1,"Easy",75,1,0.44045
"PLY22",22003,"EasyMed",1,3,66,27,189.21,56.691,1,"Easy",75,1,0.43521
"PLY22",22003,"EasyMed",1,3,67,3,87.947,221.56,0,"Easy",68,1,0.44033
"PLY22",22003,"EasyMed",1,3,68,2,56.474,189.87,0,"Easy",68,1,0.49051
"PLY22",22003,"EasyMed",1,3,69,5,150.89,285,0,"Easy",68,1,0.84518
"PLY22",22003,"EasyMed",1,3,70,1,25,158.15,0,"Easy",68,1,0.61511
"PLY22",22003,"EasyMed",1,3,71,28,220.68,88.411,1,"Easy",75,1,0.52024
"PLY22",22003,"EasyMed",1,3,72,29,252.16,120.1,1,"Easy",75,1,0.62555
"PLY22",22003,"EasyMed",1,3,73,5,150.89,285,0,"Easy",68,1,0.68531
"PLY22",22003,"EasyMed",1,3,74,4,119.42,253.28,0,"Easy",68,1,0.77016
"PLY22",22003,"EasyMed",1,3,75,1,25,158.15,0,"Easy",68,1,0.9106
"PLY22",22003,"EasyMed",1,3,76,4,119.42,253.28,0,"Easy",68,1,1.0549
"PLY22",22003,"EasyMed",1,3,77,1,25,158.15,0,"Easy",68,1,1.0151
"PLY22",22003,"EasyMed",1,3,78,3,87.947,221.56,0,"Easy",68,1,1.2204
"PLY22",22003,"EasyMed",1,3,79,5,150.89,285,0,"Easy",68,1,0.71054
"PLY22",22003,"EasyMed",1,3,80,27,189.21,56.691,1,"Easy",75,1,1.4202
"PLY22",22003,"EasyMed",1,3,81,1,25,158.15,0,"Easy",68,1,0.64582
"PLY22",22003,"EasyMed",1,3,82,5,150.89,285,0,"Easy",68,1,1.4453
"PLY22",22003,"EasyMed",1,3,83,26,157.74,25,1,"Easy",68,0,2.0852
"PLY22",22003,"EasyMed",1,3,84,3,87.947,221.56,0,"Easy",68,1,0.74491
"PLY22",22003,"EasyMed",1,3,85,30,285,151.82,1,"Easy",75,1,0.59584
"PLY22",22003,"EasyMed",1,3,86,27,189.21,56.691,1,"Easy",75,1,1.2701
"PLY22",22003,"EasyMed",1,3,87,28,220.68,88.411,1,"Easy",75,1,1.5806
"PLY22",22003,"EasyMed",1,3,88,30,285,151.82,1,"Easy",75,1,0.44051
"PLY22",22003,"EasyMed",1,3,89,2,56.474,189.87,0,"Easy",68,1,0.48527
"PLY22",22003,"EasyMed",1,3,90,26,157.74,25,1,"Easy",75,1,0.46002
"PLY22",22003,"EasyMed",1,4,91,4,119.42,253.28,0,"Easy",68,1,0.4905
"PLY22",22003,"EasyMed",1,4,92,5,150.89,285,0,"Easy",68,1,0.64076
"PLY22",22003,"EasyMed",1,4,93,3,87.947,221.56,0,"Easy",68,1,0.55504
"PLY22",22003,"EasyMed",1,4,94,26,157.74,25,1,"Easy",75,1,0.53048
"PLY22",22003,"EasyMed",1,4,95,26,157.74,25,1,"Easy",68,0,0.43054
"PLY22",22003,"EasyMed",1,4,96,28,220.68,88.411,1,"Easy",75,1,0.52082
"PLY22",22003,"EasyMed",1,4,97,1,25,158.15,0,"Easy",68,1,0.47551
"PLY22",22003,"EasyMed",1,4,98,30,285,151.82,1,"Easy",75,1,0.47031
"PLY22",22003,"EasyMed",1,4,99,5,150.89,285,0,"Easy",68,1,0.69039
"PLY22",22003,"EasyMed",1,4,100,5,150.89,285,0,"Easy",68,1,0.77536
"PLY22",22003,"EasyMed",1,4,101,27,189.21,56.691,1,"Easy",75,1,1.0701
"PLY22",22003,"EasyMed",1,4,102,29,252.16,120.1,1,"Easy",75,1,0.60519
"PLY22",22003,"EasyMed",1,4,103,28,220.68,88.411,1,"Easy",75,1,0.54554
"PLY22",22003,"EasyMed",1,4,104,5,150.89,285,0,"Easy",68,1,0.80032
"PLY22",22003,"EasyMed",1,4,105,1,25,158.15,0,"Easy",68,1,0.50542
"PLY22",22003,"EasyMed",1,4,106,3,87.947,221.56,0,"Easy",68,1,1.6008
"PLY22",22003,"EasyMed",1,4,107,1,25,158.15,0,"Easy",68,1,0.54531
"PLY22",22003,"EasyMed",1,4,108,28,220.68,88.411,1,"Easy",75,1,0.57101
"PLY22",22003,"EasyMed",1,4,109,28,220.68,88.411,1,"Easy",75,1,0.79039
"PLY22",22003,"EasyMed",1,4,110,1,25,158.15,0,"Easy",68,1,0.59061
"PLY22",22003,"EasyMed",1,4,111,26,157.74,25,1,"Easy",75,1,0.71559
"PLY22",22003,"EasyMed",1,4,112,26,157.74,25,1,"Easy",75,1,0.46515
"PLY22",22003,"EasyMed",1,4,113,1,25,158.15,0,"Easy",68,1,0.55039
"PLY22",22003,"EasyMed",1,4,114,3,87.947,221.56,0,"Easy",75,0,0.8207
"PLY22",22003,"EasyMed",1,4,115,27,189.21,56.691,1,"Easy",75,1,0.53066
"PLY22",22003,"EasyMed",1,4,116,29,252.16,120.1,1,"Easy",75,1,0.49018
"PLY22",22003,"EasyMed",1,4,117,4,119.42,253.28,0,"Easy",68,1,0.76528
"PLY22",22003,"EasyMed",1,4,118,26,157.74,25,1,"Easy",75,1,0.54554
"PLY22",22003,"EasyMed",1,4,119,2,56.474,189.87,0,"Easy",68,1,0.54013
"PLY22",22003,"EasyMed",1,4,120,30,285,151.82,1,"Easy",75,1,0.60033
"PLY22",22003,"EasyMed",1,5,121,2,56.474,189.87,0,"Easy",68,1,0.61023
"PLY22",22003,"EasyMed",1,5,122,29,252.16,120.1,1,"Easy",75,1,0.43051
"PLY22",22003,"EasyMed",1,5,123,4,119.42,253.28,0,"Easy",68,1,0.82999
"PLY22",22003,"EasyMed",1,5,124,29,252.16,120.1,1,"Easy",75,1,0.47085
"PLY22",22003,"EasyMed",1,5,125,26,157.74,25,1,"Easy",75,1,0.47512
"PLY22",22003,"EasyMed",1,5,126,3,87.947,221.56,0,"Easy",68,1,0.74487
"PLY22",22003,"EasyMed",1,5,127,1,25,158.15,0,"Easy",68,1,0.54499
"PLY22",22003,"EasyMed",1,5,128,5,150.89,285,0,"Easy",68,1,1.0609
"PLY22",22003,"EasyMed",1,5,129,3,87.947,221.56,0,"Easy",68,1,1.0003
"PLY22",22003,"EasyMed",1,5,130,3,87.947,221.56,0,"Easy",68,1,0.63586
"PLY22",22003,"EasyMed",1,5,131,27,189.21,56.691,1,"Easy",75,1,0.40551
"PLY22",22003,"EasyMed",1,5,132,30,285,151.82,1,"Easy",75,1,0.43075
"PLY22",22003,"EasyMed",1,5,133,4,119.42,253.28,0,"Easy",68,1,0.65034
"PLY22",22003,"EasyMed",1,5,134,27,189.21,56.691,1,"Easy",75,1,0.52057
"PLY22",22003,"EasyMed",1,5,135,29,252.16,120.1,1,"Easy",75,1,0.55544
"PLY22",22003,"EasyMed",1,5,136,4,119.42,253.28,0,"Easy",68,1,0.77067
"PLY22",22003,"EasyMed",1,5,137,27,189.21,56.691,1,"Easy",75,1,0.50052
"PLY22",22003,"EasyMed",1,5,138,28,220.68,88.411,1,"Easy",75,1,0.51575
"PLY22",22003,"EasyMed",1,5,139,28,220.68,88.411,1,"Easy",75,1,0.47995
"PLY22",22003,"EasyMed",1,5,140,26,157.74,25,1,"Easy",75,1,0.76573
"PLY22",22003,"EasyMed",1,5,141,28,220.68,88.411,1,"Easy",75,1,0.55079
"PLY22",22003,"EasyMed",1,5,142,29,252.16,120.1,1,"Easy",75,1,0.54512
"PLY22",22003,"EasyMed",1,5,143,27,189.21,56.691,1,"Easy",75,1,0.86027
"PLY22",22003,"EasyMed",1,5,144,5,150.89,285,0,"Easy",68,1,0.94081
"PLY22",22003,"EasyMed",1,5,145,2,56.474,189.87,0,"Easy",68,1,1.2504
"PLY22",22003,"EasyMed",1,5,146,26,157.74,25,1,"Easy",75,1,0.47063
"PLY22",22003,"EasyMed",1,5,147,30,285,151.82,1,"Easy",75,1,0.41526
"PLY22",22003,"EasyMed",1,5,148,5,150.89,285,0,"Easy",68,1,0.64018
"PLY22",22003,"EasyMed",1,5,149,2,56.474,189.87,0,"Easy",68,1,0.63
"PLY22",22003,"EasyMed",1,5,150,28,220.68,88.411,1,"Easy",75,1,1.1299
"PLY22",22003,"EasyMed",2,1,151,23,198.79,110.6,1,"Medium",75,1,1.21
"PLY22",22003,"EasyMed",2,1,152,21,135.84,47.187,1,"Medium",75,1,1.4002
"PLY22",22003,"EasyMed",2,1,153,9,141.32,231.09,0,"Medium",75,0,1.2356
"PLY22",22003,"EasyMed",2,1,154,6,46.895,135.96,0,"Medium",68,1,0.70576
"PLY22",22003,"EasyMed",2,1,155,10,172.79,262.78,0,"Medium",68,1,0.77006
"PLY22",22003,"EasyMed",2,1,156,8,109.84,199.37,0,"Medium",68,1,1.1649
"PLY22",22003,"EasyMed",2,1,157,9,141.32,231.09,0,"Medium",68,1,1.3008
"PLY22",22003,"EasyMed",2,1,158,7,78.368,167.68,0,"Medium",68,1,0.91044
"PLY22",22003,"EasyMed",2,1,159,25,261.74,174.01,1,"Medium",75,1,0.53006
"PLY22",22003,"EasyMed",2,1,160,7,78.368,167.68,0,"Medium",68,1,0.70084
"PLY22",22003,"EasyMed",2,1,161,22,167.32,78.878,1,"Medium",75,1,1.1954
"PLY22",22003,"EasyMed",2,1,162,24,230.26,142.32,1,"Medium",75,1,0.62041
"PLY22",22003,"EasyMed",2,1,163,23,198.79,110.6,1,"Medium",75,1,0.99005
"PLY22",22003,"EasyMed",2,1,164,23,198.79,110.6,1,"Medium",75,1,0.46543
"PLY22",22003,"EasyMed",2,1,165,10,172.79,262.78,0,"Medium",68,1,0.78552
"PLY22",22003,"EasyMed",2,1,166,10,172.79,262.78,0,"Medium",68,1,0.65075
"PLY22",22003,"EasyMed",2,1,167,21,135.84,47.187,1,"Medium",68,0,1.6257
"PLY22",22003,"EasyMed",2,1,168,25,261.74,174.01,1,"Medium",75,1,0.52539
"PLY22",22003,"EasyMed",2,1,169,24,230.26,142.32,1,"Medium",75,1,0.50513
"PLY22",22003,"EasyMed",2,1,170,25,261.74,174.01,1,"Medium",75,1,0.49531
"PLY22",22003,"EasyMed",2,1,171,6,46.895,135.96,0,"Medium",68,1,0.61565
"PLY22",22003,"EasyMed",2,1,172,8,109.84,199.37,0,"Medium",75,0,1.3052
"PLY22",22003,"EasyMed",2,1,173,25,261.74,174.01,1,"Medium",75,1,0.55066
"PLY22",22003,"EasyMed",2,1,174,8,109.84,199.37,0,"Medium",68,1,0.81561
"PLY22",22003,"EasyMed",2,1,175,7,78.368,167.68,0,"Medium",68,1,0.57588
"PLY22",22003,"EasyMed",2,1,176,23,198.79,110.6,1,"Medium",75,1,0.50012
"PLY22",22003,"EasyMed",2,1,177,24,230.26,142.32,1,"Medium",75,1,0.37524
"PLY22",22003,"EasyMed",2,1,178,25,261.74,174.01,1,"Medium",75,1,0.5302
"PLY22",22003,"EasyMed",2,1,179,9,141.32,231.09,0,"Medium",75,0,1.34
"PLY22",22003,"EasyMed",2,1,180,6,46.895,135.96,0,"Medium",68,1,0.59002
"PLY22",22003,"EasyMed",2,2,181,24,230.26,142.32,1,"Medium",75,1,0.53498
"PLY22",22003,"EasyMed",2,2,182,7,78.368,167.68,0,"Medium",68,1,0.57077
"PLY22",22003,"EasyMed",2,2,183,8,109.84,199.37,0,"Medium",68,1,0.88536
"PLY22",22003,"EasyMed",2,2,184,7,78.368,167.68,0,"Medium",68,1,0.61998
"PLY22",22003,"EasyMed",2,2,185,8,109.84,199.37,0,"Medium",68,1,0.69082
"PLY22",22003,"EasyMed",2,2,186,7,78.368,167.68,0,"Medium",68,1,0.55511
"PLY22",22003,"EasyMed",2,2,187,9,141.32,231.09,0,"Medium",68,1,0.92567
"PLY22",22003,"EasyMed",2,2,188,22,167.32,78.878,1,"Medium",75,1,0.34484
"PLY22",22003,"EasyMed",2,2,189,23,198.79,110.6,1,"Medium",75,1,1.0709
"PLY22",22003,"EasyMed",2,2,190,9,141.32,231.09,0,"Medium",68,1,1.4207
"PLY22",22003,"EasyMed",2,2,191,22,167.32,78.878,1,"Medium",75,1,0.67066
"PLY22",22003,"EasyMed",2,2,192,22,167.32,78.878,1,"Medium",75,1,0.72554
"PLY22",22003,"EasyMed",2,2,193,23,198.79,110.6,1,"Medium",75,1,0.97574
"PLY22",22003,"EasyMed",2,2,194,23,198.79,110.6,1,"Medium",75,1,1.0854
"PLY22",22003,"EasyMed",2,2,195,22,167.32,78.878,1,"Medium",75,1,0.93566
"PLY22",22003,"EasyMed",2,2,196,7,78.368,167.68,0,"Medium",68,1,0.72559
"PLY22",22003,"EasyMed",2,2,197,25,261.74,174.01,1,"Medium",75,1,0.65024
"PLY22",22003,"EasyMed",2,2,198,22,167.32,78.878,1,"Medium",75,1,0.79504
"PLY22",22003,"EasyMed",2,2,199,6,46.895,135.96,0,"Medium",68,1,0.5702
"PLY22",22003,"EasyMed",2,2,200,6,46.895,135.96,0,"Medium",68,1,0.74139
"PLY22",22003,"EasyMed",2,2,201,25,261.74,174.01,1,"Medium",75,1,0.70013
"PLY22",22003,"EasyMed",2,2,202,23,198.79,110.6,1,"Medium",75,1,1.1202
"PLY22",22003,"EasyMed",2,2,203,9,141.32,231.09,0,"Medium",68,1,1.4552
"PLY22",22003,"EasyMed",2,2,204,22,167.32,78.878,1,"Medium",75,1,0.9958
"PLY22",22003,"EasyMed",2,2,205,22,167.32,78.878,1,"Medium",75,1,0.89517
"PLY22",22003,"EasyMed",2,2,206,8,109.84,199.37,0,"Medium",68,1,1.2601
"PLY22",22003,"EasyMed",2,2,207,23,198.79,110.6,1,"Medium",75,1,1.0604
"PLY22",22003,"EasyMed",2,2,208,21,135.84,47.187,1,"Medium",68,0,1.9656
"PLY22",22003,"EasyMed",2,2,209,21,135.84,47.187,1,"Medium",75,1,0.88516
"PLY22",22003,"EasyMed",2,2,210,25,261.74,174.01,1,"Medium",75,1,0.59513
"PLY22",22003,"EasyMed",2,3,211,8,109.84,199.37,0,"Medium",68,1,0.97502
"PLY22",22003,"EasyMed",2,3,212,6,46.895,135.96,0,"Medium",68,1,0.51574
"PLY22",22003,"EasyMed",2,3,213,6,46.895,135.96,0,"Medium",68,1,0.67095
"PLY22",22003,"EasyMed",2,3,214,7,78.368,167.68,0,"Medium",68,1,0.73009
"PLY22",22003,"EasyMed",2,3,215,24,230.26,142.32,1,"Medium",75,1,0.50076
"PLY22",22003,"EasyMed",2,3,216,24,230.26,142.32,1,"Medium",75,1,0.54585
"PLY22",22003,"EasyMed",2,3,217,22,167.32,78.878,1,"Medium",75,1,1.5758
"PLY22",22003,"EasyMed",2,3,218,9,141.32,231.09,0,"Medium",68,1,0.66557
"PLY22",22003,"EasyMed",2,3,219,6,46.895,135.96,0,"Medium",68,1,0.53059
"PLY22",22003,"EasyMed",2,3,220,21,135.84,47.187,1,"Medium",75,1,0.97545
"PLY22",22003,"EasyMed",2,3,221,24,230.26,142.32,1,"Medium",75,1,0.98524
"PLY22",22003,"EasyMed",2,3,222,21,135.84,47.187,1,"Medium",75,1,0.58992
"PLY22",22003,"EasyMed",2,3,223,22,167.32,78.878,1,"Medium",75,1,0.50019
"PLY22",22003,"EasyMed",2,3,224,21,135.84,47.187,1,"Medium",75,1,0.47135
"PLY22",22003,"EasyMed",2,3,225,21,135.84,47.187,1,"Medium",75,1,0.44998
"PLY22",22003,"EasyMed",2,3,226,7,78.368,167.68,0,"Medium",68,1,0.46053
"PLY22",22003,"EasyMed",2,3,227,22,167.32,78.878,1,"Medium",75,1,0.74551
"PLY22",22003,"EasyMed",2,3,228,24,230.26,142.32,1,"Medium",75,1,0.51087
"PLY22",22003,"EasyMed",2,3,229,7,78.368,167.68,0,"Medium",68,1,0.595
"PLY22",22003,"EasyMed",2,3,230,21,135.84,47.187,1,"Medium",75,1,0.60582
"PLY22",22003,"EasyMed",2,3,231,6,46.895,135.96,0,"Medium",68,1,0.57508
"PLY22",22003,"EasyMed",2,3,232,8,109.84,199.37,0,"Medium",68,1,0.80017
"PLY22",22003,"EasyMed",2,3,233,21,135.84,47.187,1,"Medium",75,1,0.56541
"PLY22",22003,"EasyMed",2,3,234,10,172.79,262.78,0,"Medium",68,1,1.2704
"PLY22",22003,"EasyMed",2,3,235,7,78.368,167.68,0,"Medium",68,1,0.55524
"PLY22",22003,"EasyMed",2,3,236,9,141.32,231.09,0,"Medium",75,0,0.95019
"PLY22",22003,"EasyMed",2,3,237,8,109.84,199.37,0,"Medium",68,1,0.67547
"PLY22",22003,"EasyMed",2,3,238,22,167.32,78.878,1,"Medium",75,1,0.74495
"PLY22",22003,"EasyMed",2,3,239,9,141.32,231.09,0,"Medium",68,1,1.3751
"PLY22",22003,"EasyMed",2,3,240,7,78.368,167.68,0,"Medium",68,1,0.85572
"PLY22",22003,"EasyMed",2,4,241,8,109.84,199.37,0,"Medium",68,1,0.91064
"PLY22",22003,"EasyMed",2,4,242,8,109.84,199.37,0,"Medium",68,1,0.82032
"PLY22",22003,"EasyMed",2,4,243,9,141.32,231.09,0,"Medium",68,1,1.6602
"PLY22",22003,"EasyMed",2,4,244,6,46.895,135.96,0,"Medium",68,1,0.57495
"PLY22",22003,"EasyMed",2,4,245,10,172.79,262.78,0,"Medium",68,1,1.1255
"PLY22",22003,"EasyMed",2,4,246,23,198.79,110.6,1,"Medium",75,1,0.6703
"PLY22",22003,"EasyMed",2,4,247,10,172.79,262.78,0,"Medium",68,1,1.02
"PLY22",22003,"EasyMed",2,4,248,21,135.84,47.187,1,"Medium",75,1,0.59055
"PLY22",22003,"EasyMed",2,4,249,25,261.74,174.01,1,"Medium",75,1,0.51053
"PLY22",22003,"EasyMed",2,4,250,10,172.79,262.78,0,"Medium",68,1,0.60577
"PLY22",22003,"EasyMed",2,4,251,25,261.74,174.01,1,"Medium",75,1,0.49986
"PLY22",22003,"EasyMed",2,4,252,8,109.84,199.37,0,"Medium",68,1,0.97085
"PLY22",22003,"EasyMed",2,4,253,23,198.79,110.6,1,"Medium",75,1,0.56036
"PLY22",22003,"EasyMed",2,4,254,8,109.84,199.37,0,"Medium",68,1,0.59586
"PLY22",22003,"EasyMed",2,4,255,24,230.26,142.32,1,"Medium",75,1,0.4199
"PLY22",22003,"EasyMed",2,4,256,21,135.84,47.187,1,"Medium",75,1,0.7207
"PLY22",22003,"EasyMed",2,4,257,7,78.368,167.68,0,"Medium",68,1,0.63038
"PLY22",22003,"EasyMed",2,4,258,8,109.84,199.37,0,"Medium",68,1,0.62005
"PLY22",22003,"EasyMed",2,4,259,9,141.32,231.09,0,"Medium",68,1,0.64576
"PLY22",22003,"EasyMed",2,4,260,6,46.895,135.96,0,"Medium",68,1,0.49992
"PLY22",22003,"EasyMed",2,4,261,6,46.895,135.96,0,"Medium",68,1,0.50018
"PLY22",22003,"EasyMed",2,4,262,23,198.79,110.6,1,"Medium",75,1,0.43533
"PLY22",22003,"EasyMed",2,4,263,23,198.79,110.6,1,"Medium",75,1,0.44103
"PLY22",22003,"EasyMed",2,4,264,25,261.74,174.01,1,"Medium",75,1,0.60592
"PLY22",22003,"EasyMed",2,4,265,6,46.895,135.96,0,"Medium",68,1,0.48532
"PLY22",22003,"EasyMed",2,4,266,25,261.74,174.01,1,"Medium",75,1,0.46988
"PLY22",22003,"EasyMed",2,4,267,23,198.79,110.6,1,"Medium",75,1,0.74591
"PLY22",22003,"EasyMed",2,4,268,23,198.79,110.6,1,"Medium",75,1,0.49571
"PLY22",22003,"EasyMed",2,4,269,10,172.79,262.78,0,"Medium",75,0,0.46058
"PLY22",22003,"EasyMed",2,4,270,6,46.895,135.96,0,"Medium",68,1,0.52581
"PLY22",22003,"EasyMed",2,5,271,24,230.26,142.32,1,"Medium",75,1,0.51548
"PLY22",22003,"EasyMed",2,5,272,22,167.32,78.878,1,"Medium",75,1,0.52067
"PLY22",22003,"EasyMed",2,5,273,24,230.26,142.32,1,"Medium",75,1,0.4802
"PLY22",22003,"EasyMed",2,5,274,25,261.74,174.01,1,"Medium",75,1,0.60538
"PLY22",22003,"EasyMed",2,5,275,9,141.32,231.09,0,"Medium",68,1,1.5499
"PLY22",22003,"EasyMed",2,5,276,7,78.368,167.68,0,"Medium",68,1,1.861
"PLY22",22003,"EasyMed",2,5,277,22,167.32,78.878,1,"Medium",75,1,0.48073
"PLY22",22003,"EasyMed",2,5,278,10,172.79,262.78,0,"Medium",68,1,0.73571
"PLY22",22003,"EasyMed",2,5,279,10,172.79,262.78,0,"Medium",68,1,0.76534
"PLY22",22003,"EasyMed",2,5,280,6,46.895,135.96,0,"Medium",68,1,0.51645
"PLY22",22003,"EasyMed",2,5,281,24,230.26,142.32,1,"Medium",75,1,0.46022
"PLY22",22003,"EasyMed",2,5,282,9,141.32,231.09,0,"Medium",68,1,0.62006
"PLY22",22003,"EasyMed",2,5,283,10,172.79,262.78,0,"Medium",68,1,0.82028
"PLY22",22003,"EasyMed",2,5,284,21,135.84,47.187,1,"Medium",75,1,1.3856
"PLY22",22003,"EasyMed",2,5,285,7,78.368,167.68,0,"Medium",68,1,0.53591
"PLY22",22003,"EasyMed",2,5,286,21,135.84,47.187,1,"Medium",75,1,0.58071
"PLY22",22003,"EasyMed",2,5,287,10,172.79,262.78,0,"Medium",68,1,0.79032
"PLY22",22003,"EasyMed",2,5,288,24,230.26,142.32,1,"Medium",75,1,0.6952
"PLY22",22003,"EasyMed",2,5,289,24,230.26,142.32,1,"Medium",75,1,0.55033
"PLY22",22003,"EasyMed",2,5,290,24,230.26,142.32,1,"Medium",75,1,0.38053
"PLY22",22003,"EasyMed",2,5,291,10,172.79,262.78,0,"Medium",68,1,0.58022
"PLY22",22003,"EasyMed",2,5,292,9,141.32,231.09,0,"Medium",68,1,1
"PLY22",22003,"EasyMed",2,5,293,10,172.79,262.78,0,"Medium",68,1,1.6101
"PLY22",22003,"EasyMed",2,5,294,10,172.79,262.78,0,"Medium",68,1,0.96594
"PLY22",22003,"EasyMed",2,5,295,21,135.84,47.187,1,"Medium",75,1,1.0758
"PLY22",22003,"EasyMed",2,5,296,25,261.74,174.01,1,"Medium",75,1,0.55552
"PLY22",22003,"EasyMed",2,5,297,8,109.84,199.37,0,"Medium",75,0,1.4
"PLY22",22003,"EasyMed",2,5,298,25,261.74,174.01,1,"Medium",75,1,0.53025
"PLY22",22003,"EasyMed",2,5,299,22,167.32,78.878,1,"Medium",75,1,0.66015
"PLY22",22003,"EasyMed",2,5,300,9,141.32,231.09,0,"Medium",68,1,0.98018
"PLY22",22004,"EasyMed",1,1,1,1,25,158.15,0,"Easy",68,1,11.642
"PLY22",22004,"EasyMed",1,1,2,30,285,151.82,1,"Easy",75,1,1.2756
"PLY22",22004,"EasyMed",1,1,3,5,150.89,285,0,"Easy",68,1,0.89546
"PLY22",22004,"EasyMed",1,1,4,5,150.89,285,0,"Easy",75,0,1.7654
"PLY22",22004,"EasyMed",1,1,5,2,56.474,189.87,0,"Easy",75,0,1.7451
"PLY22",22004,"EasyMed",1,1,6,29,252.16,120.1,1,"Easy",68,0,0.81
"PLY22",22004,"EasyMed",1,1,7,3,87.947,221.56,0,"Easy",75,0,1.9553
"PLY22",22004,"EasyMed",1,1,8,1,25,158.15,0,"Easy",68,1,1.4902
"PLY22",22004,"EasyMed",1,1,9,28,220.68,88.411,1,"Easy",75,1,1.2356
"PLY22",22004,"EasyMed",1,1,10,27,189.21,56.691,1,"Easy",75,1,0.73078
"PLY22",22004,"EasyMed",1,1,11,28,220.68,88.411,1,"Easy",75,1,0.52535
"PLY22",22004,"EasyMed",1,1,12,28,220.68,88.411,1,"Easy",75,1,0.55517
"PLY22",22004,"EasyMed",1,1,13,27,189.21,56.691,1,"Easy",75,1,0.55015
"PLY22",22004,"EasyMed",1,1,14,28,220.68,88.411,1,"Easy",75,1,0.61069
"PLY22",22004,"EasyMed",1,1,15,28,220.68,88.411,1,"Easy",75,1,0.64989
"PLY22",22004,"EasyMed",1,1,16,3,87.947,221.56,0,"Easy",75,0,0.77549
"PLY22",22004,"EasyMed",1,1,17,28,220.68,88.411,1,"Easy",75,1,0.83528
"PLY22",22004,"EasyMed",1,1,18,4,119.42,253.28,0,"Easy",68,1,0.91497
"PLY22",22004,"EasyMed",1,1,19,26,157.74,25,1,"Easy",68,0,0.81519
"PLY22",22004,"EasyMed",1,1,20,27,189.21,56.691,1,"Easy",75,1,0.57511
"PLY22",22004,"EasyMed",1,1,21,29,252.16,120.1,1,"Easy",75,1,1.2751
"PLY22",22004,"EasyMed",1,1,22,27,189.21,56.691,1,"Easy",75,1,1.0254
"PLY22",22004,"EasyMed",1,1,23,3,87.947,221.56,0,"Easy",68,1,0.68061
"PLY22",22004,"EasyMed",1,1,24,29,252.16,120.1,1,"Easy",75,1,0.46007
"PLY22",22004,"EasyMed",1,1,25,29,252.16,120.1,1,"Easy",75,1,0.82009
"PLY22",22004,"EasyMed",1,1,26,5,150.89,285,0,"Easy",68,1,0.7053
"PLY22",22004,"EasyMed",1,1,27,28,220.68,88.411,1,"Easy",75,1,0.56555
"PLY22",22004,"EasyMed",1,1,28,27,189.21,56.691,1,"Easy",75,1,0.52533
"PLY22",22004,"EasyMed",1,1,29,3,87.947,221.56,0,"Easy",68,1,0.83571
"PLY22",22004,"EasyMed",1,1,30,5,150.89,285,0,"Easy",68,1,1.0902
"PLY22",22004,"EasyMed",1,2,31,2,56.474,189.87,0,"Easy",68,1,0.61549
"PLY22",22004,"EasyMed",1,2,32,2,56.474,189.87,0,"Easy",68,1,0.61071
"PLY22",22004,"EasyMed",1,2,33,27,189.21,56.691,1,"Easy",75,1,0.51496
"PLY22",22004,"EasyMed",1,2,34,27,189.21,56.691,1,"Easy",75,1,0.51087
"PLY22",22004,"EasyMed",1,2,35,29,252.16,120.1,1,"Easy",75,1,0.63566
"PLY22",22004,"EasyMed",1,2,36,30,285,151.82,1,"Easy",75,1,0.45035
"PLY22",22004,"EasyMed",1,2,37,27,189.21,56.691,1,"Easy",75,1,0.51013
"PLY22",22004,"EasyMed",1,2,38,30,285,151.82,1,"Easy",75,1,0.46076
"PLY22",22004,"EasyMed",1,2,39,30,285,151.82,1,"Easy",75,1,0.51557
"PLY22",22004,"EasyMed",1,2,40,1,25,158.15,0,"Easy",68,1,0.75113
"PLY22",22004,"EasyMed",1,2,41,3,87.947,221.56,0,"Easy",68,1,1.1308
"PLY22",22004,"EasyMed",1,2,42,28,220.68,88.411,1,"Easy",75,1,1.795
"PLY22",22004,"EasyMed",1,2,43,3,87.947,221.56,0,"Easy",68,1,0.71
"PLY22",22004,"EasyMed",1,2,44,1,25,158.15,0,"Easy",68,1,0.61048
"PLY22",22004,"EasyMed",1,2,45,3,87.947,221.56,0,"Easy",68,1,0.51066
"PLY22",22004,"EasyMed",1,2,46,3,87.947,221.56,0,"Easy",68,1,0.49555
"PLY22",22004,"EasyMed",1,2,47,26,157.74,25,1,"Easy",68,0,0.89043
"PLY22",22004,"EasyMed",1,2,48,3,87.947,221.56,0,"Easy",68,1,0.71522
"PLY22",22004,"EasyMed",1,2,49,29,252.16,120.1,1,"Easy",75,1,0.51076
"PLY22",22004,"EasyMed",1,2,50,1,25,158.15,0,"Easy",68,1,0.51565
"PLY22",22004,"EasyMed",1,2,51,4,119.42,253.28,0,"Easy",68,1,1.0155
"PLY22",22004,"EasyMed",1,2,52,5,150.89,285,0,"Easy",68,1,0.57557
"PLY22",22004,"EasyMed",1,2,53,3,87.947,221.56,0,"Easy",68,1,0.64502
"PLY22",22004,"EasyMed",1,2,54,5,150.89,285,0,"Easy",68,1,0.74021
"PLY22",22004,"EasyMed",1,2,55,27,189.21,56.691,1,"Easy",75,1,1.1202
"PLY22",22004,"EasyMed",1,2,56,4,119.42,253.28,0,"Easy",68,1,0.65576
"PLY22",22004,"EasyMed",1,2,57,28,220.68,88.411,1,"Easy",75,1,0.69067
"PLY22",22004,"EasyMed",1,2,58,29,252.16,120.1,1,"Easy",75,1,0.64074
"PLY22",22004,"EasyMed",1,2,59,29,252.16,120.1,1,"Easy",75,1,0.48066
"PLY22",22004,"EasyMed",1,2,60,1,25,158.15,0,"Easy",68,1,0.99034
"PLY22",22004,"EasyMed",1,3,61,29,252.16,120.1,1,"Easy",75,1,0.65056
"PLY22",22004,"EasyMed",1,3,62,1,25,158.15,0,"Easy",68,1,0.88097
"PLY22",22004,"EasyMed",1,3,63,27,189.21,56.691,1,"Easy",75,1,1.0702
"PLY22",22004,"EasyMed",1,3,64,4,119.42,253.28,0,"Easy",68,1,0.88529
"PLY22",22004,"EasyMed",1,3,65,28,220.68,88.411,1,"Easy",75,1,0.77085
"PLY22",22004,"EasyMed",1,3,66,29,252.16,120.1,1,"Easy",75,1,0.73522
"PLY22",22004,"EasyMed",1,3,67,3,87.947,221.56,0,"Easy",68,1,1.0857
"PLY22",22004,"EasyMed",1,3,68,5,150.89,285,0,"Easy",68,1,0.9953
"PLY22",22004,"EasyMed",1,3,69,30,285,151.82,1,"Easy",75,1,0.50061
"PLY22",22004,"EasyMed",1,3,70,4,119.42,253.28,0,"Easy",68,1,1.0054
"PLY22",22004,"EasyMed",1,3,71,27,189.21,56.691,1,"Easy",75,1,1.1
"PLY22",22004,"EasyMed",1,3,72,28,220.68,88.411,1,"Easy",75,1,0.58563
"PLY22",22004,"EasyMed",1,3,73,2,56.474,189.87,0,"Easy",68,1,0.81132
"PLY22",22004,"EasyMed",1,3,74,30,285,151.82,1,"Easy",75,1,0.48489
"PLY22",22004,"EasyMed",1,3,75,1,25,158.15,0,"Easy",68,1,0.65566
"PLY22",22004,"EasyMed",1,3,76,29,252.16,120.1,1,"Easy",75,1,0.48586
"PLY22",22004,"EasyMed",1,3,77,30,285,151.82,1,"Easy",75,1,0.50554
"PLY22",22004,"EasyMed",1,3,78,2,56.474,189.87,0,"Easy",68,1,0.59065
"PLY22",22004,"EasyMed",1,3,79,2,56.474,189.87,0,"Easy",68,1,0.41046
"PLY22",22004,"EasyMed",1,3,80,5,150.89,285,0,"Easy",68,1,0.75576
"PLY22",22004,"EasyMed",1,3,81,29,252.16,120.1,1,"Easy",75,1,0.39058
"PLY22",22004,"EasyMed",1,3,82,28,220.68,88.411,1,"Easy",75,1,0.62581
"PLY22",22004,"EasyMed",1,3,83,29,252.16,120.1,1,"Easy",75,1,0.44045
"PLY22",22004,"EasyMed",1,3,84,4,119.42,253.28,0,"Easy",68,1,0.69514
"PLY22",22004,"EasyMed",1,3,85,30,285,151.82,1,"Easy",75,1,0.45488
"PLY22",22004,"EasyMed",1,3,86,5,150.89,285,0,"Easy",68,1,1.1311
"PLY22",22004,"EasyMed",1,3,87,4,119.42,253.28,0,"Easy",68,1,0.46042
"PLY22",22004,"EasyMed",1,3,88,26,157.74,25,1,"Easy",68,0,0.6406
"PLY22",22004,"EasyMed",1,3,89,30,285,151.82,1,"Easy",75,1,0.61582
"PLY22",22004,"EasyMed",1,3,90,5,150.89,285,0,"Easy",68,1,0.93006
"PLY22",22004,"EasyMed",1,4,91,30,285,151.82,1,"Easy",75,1,0.59538
"PLY22",22004,"EasyMed",1,4,92,5,150.89,285,0,"Easy",68,1,1.3751
"PLY22",22004,"EasyMed",1,4,93,27,189.21,56.691,1,"Easy",75,1,1.2554
"PLY22",22004,"EasyMed",1,4,94,4,119.42,253.28,0,"Easy",68,1,0.58513
"PLY22",22004,"EasyMed",1,4,95,28,220.68,88.411,1,"Easy",75,1,0.69065
"PLY22",22004,"EasyMed",1,4,96,1,25,158.15,0,"Easy",68,1,0.71555
"PLY22",22004,"EasyMed",1,4,97,2,56.474,189.87,0,"Easy",68,1,0.54045
"PLY22",22004,"EasyMed",1,4,98,5,150.89,285,0,"Easy",75,0,0.79563
"PLY22",22004,"EasyMed",1,4,99,28,220.68,88.411,1,"Easy",75,1,0.52516
"PLY22",22004,"EasyMed",1,4,100,4,119.42,253.28,0,"Easy",68,1,0.65058
"PLY22",22004,"EasyMed",1,4,101,2,56.474,189.87,0,"Easy",68,1,0.4752
"PLY22",22004,"EasyMed",1,4,102,28,220.68,88.411,1,"Easy",75,1,0.44026
"PLY22",22004,"EasyMed",1,4,103,26,157.74,25,1,"Easy",68,0,0.79072
"PLY22",22004,"EasyMed",1,4,104,1,25,158.15,0,"Easy",68,1,0.39994
"PLY22",22004,"EasyMed",1,4,105,30,285,151.82,1,"Easy",75,1,0.42508
"PLY22",22004,"EasyMed",1,4,106,26,157.74,25,1,"Easy",68,0,0.87042
"PLY22",22004,"EasyMed",1,4,107,1,25,158.15,0,"Easy",68,1,0.55506
"PLY22",22004,"EasyMed",1,4,108,27,189.21,56.691,1,"Easy",75,1,0.70533
"PLY22",22004,"EasyMed",1,4,109,26,157.74,25,1,"Easy",68,0,0.91087
"PLY22",22004,"EasyMed",1,4,110,5,150.89,285,0,"Easy",68,1,0.83534
"PLY22",22004,"EasyMed",1,4,111,3,87.947,221.56,0,"Easy",68,1,0.72992
"PLY22",22004,"EasyMed",1,4,112,2,56.474,189.87,0,"Easy",68,1,0.60553
"PLY22",22004,"EasyMed",1,4,113,4,119.42,253.28,0,"Easy",68,1,0.46006
"PLY22",22004,"EasyMed",1,4,114,26,157.74,25,1,"Easy",68,0,0.84513
"PLY22",22004,"EasyMed",1,4,115,29,252.16,120.1,1,"Easy",75,1,2.2052
"PLY22",22004,"EasyMed",1,4,116,27,189.21,56.691,1,"Easy",68,0,2.8305
"PLY22",22004,"EasyMed",1,4,117,26,157.74,25,1,"Easy",75,1,2.1407
"PLY22",22004,"EasyMed",1,4,118,30,285,151.82,1,"Easy",75,1,1.1799
"PLY22",22004,"EasyMed",1,4,119,3,87.947,221.56,0,"Easy",68,1,0.54062
"PLY22",22004,"EasyMed",1,4,120,2,56.474,189.87,0,"Easy",68,1,0.57583
"PLY22",22004,"EasyMed",1,5,121,1,25,158.15,0,"Easy",68,1,0.5453
"PLY22",22004,"EasyMed",1,5,122,4,119.42,253.28,0,"Easy",68,1,0.52497
"PLY22",22004,"EasyMed",1,5,123,30,285,151.82,1,"Easy",75,1,0.89077
"PLY22",22004,"EasyMed",1,5,124,4,119.42,253.28,0,"Easy",68,1,1.0804
"PLY22",22004,"EasyMed",1,5,125,1,25,158.15,0,"Easy",68,1,0.47561
"PLY22",22004,"EasyMed",1,5,126,30,285,151.82,1,"Easy",75,1,0.62581
"PLY22",22004,"EasyMed",1,5,127,29,252.16,120.1,1,"Easy",75,1,0.58012
"PLY22",22004,"EasyMed",1,5,128,26,157.74,25,1,"Easy",75,1,0.61497
"PLY22",22004,"EasyMed",1,5,129,26,157.74,25,1,"Easy",75,1,0.72554
"PLY22",22004,"EasyMed",1,5,130,3,87.947,221.56,0,"Easy",68,1,0.6458
"PLY22",22004,"EasyMed",1,5,131,4,119.42,253.28,0,"Easy",68,1,0.66074
"PLY22",22004,"EasyMed",1,5,132,26,157.74,25,1,"Easy",75,1,0.90487
"PLY22",22004,"EasyMed",1,5,133,4,119.42,253.28,0,"Easy",68,1,0.72056
"PLY22",22004,"EasyMed",1,5,134,26,157.74,25,1,"Easy",75,1,0.55504
"PLY22",22004,"EasyMed",1,5,135,2,56.474,189.87,0,"Easy",68,1,0.68498
"PLY22",22004,"EasyMed",1,5,136,26,157.74,25,1,"Easy",75,1,0.83496
"PLY22",22004,"EasyMed",1,5,137,5,150.89,285,0,"Easy",68,1,0.66038
"PLY22",22004,"EasyMed",1,5,138,26,157.74,25,1,"Easy",75,1,0.46565
"PLY22",22004,"EasyMed",1,5,139,2,56.474,189.87,0,"Easy",68,1,0.51992
"PLY22",22004,"EasyMed",1,5,140,3,87.947,221.56,0,"Easy",68,1,0.64561
"PLY22",22004,"EasyMed",1,5,141,27,189.21,56.691,1,"Easy",75,1,2.09
"PLY22",22004,"EasyMed",1,5,142,26,157.74,25,1,"Easy",75,1,0.96087
"PLY22",22004,"EasyMed",1,5,143,30,285,151.82,1,"Easy",75,1,0.9656
"PLY22",22004,"EasyMed",1,5,144,5,150.89,285,0,"Easy",68,1,1.3906
"PLY22",22004,"EasyMed",1,5,145,2,56.474,189.87,0,"Easy",68,1,0.88044
"PLY22",22004,"EasyMed",1,5,146,4,119.42,253.28,0,"Easy",68,1,0.91501
"PLY22",22004,"EasyMed",1,5,147,2,56.474,189.87,0,"Easy",68,1,0.80102
"PLY22",22004,"EasyMed",1,5,148,2,56.474,189.87,0,"Easy",68,1,0.58555
"PLY22",22004,"EasyMed",1,5,149,1,25,158.15,0,"Easy",68,1,0.59043
"PLY22",22004,"EasyMed",1,5,150,1,25,158.15,0,"Easy",68,1,0.47022
"PLY22",22004,"EasyMed",2,1,151,7,78.368,167.68,0,"Medium",68,1,4.9309
"PLY22",22004,"EasyMed",2,1,152,24,230.26,142.32,1,"Medium",75,1,0.75068
"PLY22",22004,"EasyMed",2,1,153,7,78.368,167.68,0,"Medium",68,1,0.63567
"PLY22",22004,"EasyMed",2,1,154,9,141.32,231.09,0,"Medium",68,1,0.93051
"PLY22",22004,"EasyMed",2,1,155,9,141.32,231.09,0,"Medium",68,1,0.52531
"PLY22",22004,"EasyMed",2,1,156,6,46.895,135.96,0,"Medium",68,1,0.43491
"PLY22",22004,"EasyMed",2,1,157,10,172.79,262.78,0,"Medium",75,0,1.3308
"PLY22",22004,"EasyMed",2,1,158,6,46.895,135.96,0,"Medium",68,1,0.37577
"PLY22",22004,"EasyMed",2,1,159,6,46.895,135.96,0,"Medium",68,1,0.46526
"PLY22",22004,"EasyMed",2,1,160,22,167.32,78.878,1,"Medium",75,1,1.5009
"PLY22",22004,"EasyMed",2,1,161,23,198.79,110.6,1,"Medium",75,1,0.69006
"PLY22",22004,"EasyMed",2,1,162,7,78.368,167.68,0,"Medium",68,1,0.69076
"PLY22",22004,"EasyMed",2,1,163,21,135.84,47.187,1,"Medium",75,1,2.2456
"PLY22",22004,"EasyMed",2,1,164,25,261.74,174.01,1,"Medium",75,1,0.54993
"PLY22",22004,"EasyMed",2,1,165,6,46.895,135.96,0,"Medium",68,1,0.54014
"PLY22",22004,"EasyMed",2,1,166,25,261.74,174.01,1,"Medium",75,1,0.42078
"PLY22",22004,"EasyMed",2,1,167,23,198.79,110.6,1,"Medium",75,1,0.59525
"PLY22",22004,"EasyMed",2,1,168,7,78.368,167.68,0,"Medium",68,1,0.46118
"PLY22",22004,"EasyMed",2,1,169,21,135.84,47.187,1,"Medium",75,1,0.71571
"PLY22",22004,"EasyMed",2,1,170,25,261.74,174.01,1,"Medium",75,1,0.53065
"PLY22",22004,"EasyMed",2,1,171,6,46.895,135.96,0,"Medium",68,1,0.48016
"PLY22",22004,"EasyMed",2,1,172,6,46.895,135.96,0,"Medium",68,1,0.44568
"PLY22",22004,"EasyMed",2,1,173,10,172.79,262.78,0,"Medium",75,0,0.39526
"PLY22",22004,"EasyMed",2,1,174,22,167.32,78.878,1,"Medium",75,1,0.52521
"PLY22",22004,"EasyMed",2,1,175,22,167.32,78.878,1,"Medium",75,1,0.68571
"PLY22",22004,"EasyMed",2,1,176,10,172.79,262.78,0,"Medium",68,1,1.19
"PLY22",22004,"EasyMed",2,1,177,10,172.79,262.78,0,"Medium",68,1,0.6149
"PLY22",22004,"EasyMed",2,1,178,22,167.32,78.878,1,"Medium",75,1,0.56025
"PLY22",22004,"EasyMed",2,1,179,9,141.32,231.09,0,"Medium",75,0,1.6602
"PLY22",22004,"EasyMed",2,1,180,23,198.79,110.6,1,"Medium",75,1,0.44064
"PLY22",22004,"EasyMed",2,2,181,7,78.368,167.68,0,"Medium",68,1,0.86053
"PLY22",22004,"EasyMed",2,2,182,24,230.26,142.32,1,"Medium",75,1,0.50512
"PLY22",22004,"EasyMed",2,2,183,25,261.74,174.01,1,"Medium",75,1,0.52539
"PLY22",22004,"EasyMed",2,2,184,21,135.84,47.187,1,"Medium",68,0,0.71585
"PLY22",22004,"EasyMed",2,2,185,9,141.32,231.09,0,"Medium",68,1,1.2209
"PLY22",22004,"EasyMed",2,2,186,6,46.895,135.96,0,"Medium",68,1,0.39061
"PLY22",22004,"EasyMed",2,2,187,22,167.32,78.878,1,"Medium",75,1,0.6957
"PLY22",22004,"EasyMed",2,2,188,21,135.84,47.187,1,"Medium",75,1,0.41554
"PLY22",22004,"EasyMed",2,2,189,8,109.84,199.37,0,"Medium",68,1,1.2403
"PLY22",22004,"EasyMed",2,2,190,9,141.32,231.09,0,"Medium",68,1,0.99524
"PLY22",22004,"EasyMed",2,2,191,10,172.79,262.78,0,"Medium",68,1,0.85533
"PLY22",22004,"EasyMed",2,2,192,7,78.368,167.68,0,"Medium",68,1,0.63557
"PLY22",22004,"EasyMed",2,2,193,9,141.32,231.09,0,"Medium",68,1,0.58082
"PLY22",22004,"EasyMed",2,2,194,7,78.368,167.68,0,"Medium",68,1,0.47037
"PLY22",22004,"EasyMed",2,2,195,6,46.895,135.96,0,"Medium",68,1,0.45554
"PLY22",22004,"EasyMed",2,2,196,22,167.32,78.878,1,"Medium",68,0,0.42539
"PLY22",22004,"EasyMed",2,2,197,25,261.74,174.01,1,"Medium",75,1,0.65493
"PLY22",22004,"EasyMed",2,2,198,23,198.79,110.6,1,"Medium",75,1,0.38518
"PLY22",22004,"EasyMed",2,2,199,25,261.74,174.01,1,"Medium",75,1,0.45016
"PLY22",22004,"EasyMed",2,2,200,24,230.26,142.32,1,"Medium",75,1,0.36997
"PLY22",22004,"EasyMed",2,2,201,24,230.26,142.32,1,"Medium",75,1,0.34055
"PLY22",22004,"EasyMed",2,2,202,7,78.368,167.68,0,"Medium",68,1,0.57073
"PLY22",22004,"EasyMed",2,2,203,25,261.74,174.01,1,"Medium",75,1,0.4952
"PLY22",22004,"EasyMed",2,2,204,8,109.84,199.37,0,"Medium",68,1,1.2103
"PLY22",22004,"EasyMed",2,2,205,8,109.84,199.37,0,"Medium",68,1,0.53019
"PLY22",22004,"EasyMed",2,2,206,25,261.74,174.01,1,"Medium",75,1,0.53502
"PLY22",22004,"EasyMed",2,2,207,8,109.84,199.37,0,"Medium",68,1,0.54497
"PLY22",22004,"EasyMed",2,2,208,6,46.895,135.96,0,"Medium",68,1,0.58537
"PLY22",22004,"EasyMed",2,2,209,25,261.74,174.01,1,"Medium",75,1,0.42045
"PLY22",22004,"EasyMed",2,2,210,7,78.368,167.68,0,"Medium",68,1,0.50064
"PLY22",22004,"EasyMed",2,3,211,21,135.84,47.187,1,"Medium",75,1,0.72537
"PLY22",22004,"EasyMed",2,3,212,9,141.32,231.09,0,"Medium",68,1,0.86512
"PLY22",22004,"EasyMed",2,3,213,10,172.79,262.78,0,"Medium",68,1,0.73535
"PLY22",22004,"EasyMed",2,3,214,22,167.32,78.878,1,"Medium",75,1,0.65593
"PLY22",22004,"EasyMed",2,3,215,22,167.32,78.878,1,"Medium",75,1,0.50017
"PLY22",22004,"EasyMed",2,3,216,25,261.74,174.01,1,"Medium",75,1,0.65034
"PLY22",22004,"EasyMed",2,3,217,7,78.368,167.68,0,"Medium",68,1,0.64994
"PLY22",22004,"EasyMed",2,3,218,21,135.84,47.187,1,"Medium",75,1,0.64048
"PLY22",22004,"EasyMed",2,3,219,22,167.32,78.878,1,"Medium",75,1,0.56042
"PLY22",22004,"EasyMed",2,3,220,9,141.32,231.09,0,"Medium",68,1,0.96058
"PLY22",22004,"EasyMed",2,3,221,8,109.84,199.37,0,"Medium",68,1,0.64583
"PLY22",22004,"EasyMed",2,3,222,23,198.79,110.6,1,"Medium",75,1,0.39566
"PLY22",22004,"EasyMed",2,3,223,23,198.79,110.6,1,"Medium",68,0,0.86063
"PLY22",22004,"EasyMed",2,3,224,8,109.84,199.37,0,"Medium",68,1,0.75625
"PLY22",22004,"EasyMed",2,3,225,24,230.26,142.32,1,"Medium",75,1,0.49081
"PLY22",22004,"EasyMed",2,3,226,8,109.84,199.37,0,"Medium",68,1,0.5249
"PLY22",22004,"EasyMed",2,3,227,24,230.26,142.32,1,"Medium",75,1,0.41082
"PLY22",22004,"EasyMed",2,3,228,25,261.74,174.01,1,"Medium",75,1,0.98628
"PLY22",22004,"EasyMed",2,3,229,23,198.79,110.6,1,"Medium",75,1,0.38539
"PLY22",22004,"EasyMed",2,3,230,25,261.74,174.01,1,"Medium",75,1,0.63555
"PLY22",22004,"EasyMed",2,3,231,22,167.32,78.878,1,"Medium",68,0,0.73017
"PLY22",22004,"EasyMed",2,3,232,24,230.26,142.32,1,"Medium",75,1,0.48534
"PLY22",22004,"EasyMed",2,3,233,8,109.84,199.37,0,"Medium",68,1,0.54061
"PLY22",22004,"EasyMed",2,3,234,10,172.79,262.78,0,"Medium",68,1,1.2955
"PLY22",22004,"EasyMed",2,3,235,8,109.84,199.37,0,"Medium",68,1,0.59043
"PLY22",22004,"EasyMed",2,3,236,25,261.74,174.01,1,"Medium",75,1,0.54061
"PLY22",22004,"EasyMed",2,3,237,8,109.84,199.37,0,"Medium",68,1,0.54556
"PLY22",22004,"EasyMed",2,3,238,9,141.32,231.09,0,"Medium",68,1,0.5552
"PLY22",22004,"EasyMed",2,3,239,9,141.32,231.09,0,"Medium",68,1,0.62543
"PLY22",22004,"EasyMed",2,3,240,9,141.32,231.09,0,"Medium",68,1,0.51506
"PLY22",22004,"EasyMed",2,4,241,23,198.79,110.6,1,"Medium",75,1,2.5604
"PLY22",22004,"EasyMed",2,4,242,7,78.368,167.68,0,"Medium",68,1,0.55515
"PLY22",22004,"EasyMed",2,4,243,9,141.32,231.09,0,"Medium",68,1,0.58076
"PLY22",22004,"EasyMed",2,4,244,7,78.368,167.68,0,"Medium",68,1,0.48064
"PLY22",22004,"EasyMed",2,4,245,8,109.84,199.37,0,"Medium",68,1,0.46084
"PLY22",22004,"EasyMed",2,4,246,22,167.32,78.878,1,"Medium",75,1,1.2906
"PLY22",22004,"EasyMed",2,4,247,9,141.32,231.09,0,"Medium",68,1,0.67538
"PLY22",22004,"EasyMed",2,4,248,8,109.84,199.37,0,"Medium",68,1,0.49517
"PLY22",22004,"EasyMed",2,4,249,25,261.74,174.01,1,"Medium",75,1,0.52537
"PLY22",22004,"EasyMed",2,4,250,23,198.79,110.6,1,"Medium",75,1,2.0007
"PLY22",22004,"EasyMed",2,4,251,24,230.26,142.32,1,"Medium",75,1,0.71102
"PLY22",22004,"EasyMed",2,4,252,21,135.84,47.187,1,"Medium",68,0,1.1807
"PLY22",22004,"EasyMed",2,4,253,24,230.26,142.32,1,"Medium",75,1,1.0052
"PLY22",22004,"EasyMed",2,4,254,7,78.368,167.68,0,"Medium",68,1,0.71021
"PLY22",22004,"EasyMed",2,4,255,9,141.32,231.09,0,"Medium",68,1,1.0856
"PLY22",22004,"EasyMed",2,4,256,24,230.26,142.32,1,"Medium",75,1,1.0406
"PLY22",22004,"EasyMed",2,4,257,6,46.895,135.96,0,"Medium",68,1,0.51097
"PLY22",22004,"EasyMed",2,4,258,10,172.79,262.78,0,"Medium",68,1,1.1007
"PLY22",22004,"EasyMed",2,4,259,10,172.79,262.78,0,"Medium",68,1,0.59036
"PLY22",22004,"EasyMed",2,4,260,24,230.26,142.32,1,"Medium",75,1,0.55017
"PLY22",22004,"EasyMed",2,4,261,10,172.79,262.78,0,"Medium",68,1,0.6501
"PLY22",22004,"EasyMed",2,4,262,10,172.79,262.78,0,"Medium",68,1,0.47069
"PLY22",22004,"EasyMed",2,4,263,8,109.84,199.37,0,"Medium",68,1,0.72014
"PLY22",22004,"EasyMed",2,4,264,7,78.368,167.68,0,"Medium",68,1,0.57575
"PLY22",22004,"EasyMed",2,4,265,10,172.79,262.78,0,"Medium",68,1,1.3957
"PLY22",22004,"EasyMed",2,4,266,23,198.79,110.6,1,"Medium",75,1,1.7407
"PLY22",22004,"EasyMed",2,4,267,6,46.895,135.96,0,"Medium",68,1,0.51017
"PLY22",22004,"EasyMed",2,4,268,23,198.79,110.6,1,"Medium",75,1,1.0805
"PLY22",22004,"EasyMed",2,4,269,21,135.84,47.187,1,"Medium",75,1,0.95043
"PLY22",22004,"EasyMed",2,4,270,22,167.32,78.878,1,"Medium",75,1,0.76007
"PLY22",22004,"EasyMed",2,5,271,22,167.32,78.878,1,"Medium",75,1,0.49104
"PLY22",22004,"EasyMed",2,5,272,9,141.32,231.09,0,"Medium",75,0,0.91579
"PLY22",22004,"EasyMed",2,5,273,21,135.84,47.187,1,"Medium",75,1,0.58543
"PLY22",22004,"EasyMed",2,5,274,23,198.79,110.6,1,"Medium",75,1,0.65504
"PLY22",22004,"EasyMed",2,5,275,21,135.84,47.187,1,"Medium",75,1,0.54081
"PLY22",22004,"EasyMed",2,5,276,10,172.79,262.78,0,"Medium",68,1,0.78037
"PLY22",22004,"EasyMed",2,5,277,23,198.79,110.6,1,"Medium",75,1,0.72494
"PLY22",22004,"EasyMed",2,5,278,10,172.79,262.78,0,"Medium",68,1,0.73997
"PLY22",22004,"EasyMed",2,5,279,6,46.895,135.96,0,"Medium",68,1,0.56015
"PLY22",22004,"EasyMed",2,5,280,6,46.895,135.96,0,"Medium",68,1,0.50496
"PLY22",22004,"EasyMed",2,5,281,22,167.32,78.878,1,"Medium",75,1,0.51985
"PLY22",22004,"EasyMed",2,5,282,23,198.79,110.6,1,"Medium",75,1,0.67543
"PLY22",22004,"EasyMed",2,5,283,24,230.26,142.32,1,"Medium",75,1,0.58071
"PLY22",22004,"EasyMed",2,5,284,24,230.26,142.32,1,"Medium",75,1,0.46025
"PLY22",22004,"EasyMed",2,5,285,21,135.84,47.187,1,"Medium",75,1,0.9052
"PLY22",22004,"EasyMed",2,5,286,21,135.84,47.187,1,"Medium",75,1,0.45017
"PLY22",22004,"EasyMed",2,5,287,24,230.26,142.32,1,"Medium",75,1,0.58061
"PLY22",22004,"EasyMed",2,5,288,10,172.79,262.78,0,"Medium",68,1,0.65535
"PLY22",22004,"EasyMed",2,5,289,23,198.79,110.6,1,"Medium",75,1,0.5353
"PLY22",22004,"EasyMed",2,5,290,7,78.368,167.68,0,"Medium",68,1,1.1107
"PLY22",22004,"EasyMed",2,5,291,21,135.84,47.187,1,"Medium",75,1,0.65058
"PLY22",22004,"EasyMed",2,5,292,8,109.84,199.37,0,"Medium",68,1,1.1204
"PLY22",22004,"EasyMed",2,5,293,6,46.895,135.96,0,"Medium",68,1,0.60512
"PLY22",22004,"EasyMed",2,5,294,21,135.84,47.187,1,"Medium",75,1,1.1599
"PLY22",22004,"EasyMed",2,5,295,6,46.895,135.96,0,"Medium",68,1,0.54555
"PLY22",22004,"EasyMed",2,5,296,21,135.84,47.187,1,"Medium",75,1,0.79084
"PLY22",22004,"EasyMed",2,5,297,22,167.32,78.878,1,"Medium",75,1,0.96501
"PLY22",22004,"EasyMed",2,5,298,25,261.74,174.01,1,"Medium",75,1,0.57553
"PLY22",22004,"EasyMed",2,5,299,8,109.84,199.37,0,"Medium",68,1,0.45046
"PLY22",22004,"EasyMed",2,5,300,24,230.26,142.32,1,"Medium",75,1,0.53017
"PLY22",22005,"EasyMed",1,1,1,3,87.947,221.56,0,"Easy",68,1,2.3374
"PLY22",22005,"EasyMed",1,1,2,3,87.947,221.56,0,"Easy",68,1,0.97595
"PLY22",22005,"EasyMed",1,1,3,1,25,158.15,0,"Easy",75,0,1.1706
"PLY22",22005,"EasyMed",1,1,4,30,285,151.82,1,"Easy",75,1,1.2366
"PLY22",22005,"EasyMed",1,1,5,27,189.21,56.691,1,"Easy",75,1,1.7054
"PLY22",22005,"EasyMed",1,1,6,4,119.42,253.28,0,"Easy",75,0,1.1203
"PLY22",22005,"EasyMed",1,1,7,1,25,158.15,0,"Easy",68,1,0.64562
"PLY22",22005,"EasyMed",1,1,8,30,285,151.82,1,"Easy",75,1,1.226
"PLY22",22005,"EasyMed",1,1,9,28,220.68,88.411,1,"Easy",68,0,0.77075
"PLY22",22005,"EasyMed",1,1,10,1,25,158.15,0,"Easy",68,1,0.95085
"PLY22",22005,"EasyMed",1,1,11,1,25,158.15,0,"Easy",68,1,0.71002
"PLY22",22005,"EasyMed",1,1,12,30,285,151.82,1,"Easy",75,1,0.81523
"PLY22",22005,"EasyMed",1,1,13,2,56.474,189.87,0,"Easy",68,1,0.62542
"PLY22",22005,"EasyMed",1,1,14,4,119.42,253.28,0,"Easy",68,1,1.4803
"PLY22",22005,"EasyMed",1,1,15,5,150.89,285,0,"Easy",68,1,0.6449
"PLY22",22005,"EasyMed",1,1,16,4,119.42,253.28,0,"Easy",68,1,0.97101
"PLY22",22005,"EasyMed",1,1,17,4,119.42,253.28,0,"Easy",68,1,0.77516
"PLY22",22005,"EasyMed",1,1,18,26,157.74,25,1,"Easy",68,0,1.0399
"PLY22",22005,"EasyMed",1,1,19,3,87.947,221.56,0,"Easy",68,1,1.8556
"PLY22",22005,"EasyMed",1,1,20,26,157.74,25,1,"Easy",75,1,0.76542
"PLY22",22005,"EasyMed",1,1,21,5,150.89,285,0,"Easy",68,1,1.0156
"PLY22",22005,"EasyMed",1,1,22,2,56.474,189.87,0,"Easy",68,1,0.65006
"PLY22",22005,"EasyMed",1,1,23,1,25,158.15,0,"Easy",68,1,0.70076
"PLY22",22005,"EasyMed",1,1,24,29,252.16,120.1,1,"Easy",68,0,1.0153
"PLY22",22005,"EasyMed",1,1,25,5,150.89,285,0,"Easy",68,1,0.98521
"PLY22",22005,"EasyMed",1,1,26,5,150.89,285,0,"Easy",68,1,0.78577
"PLY22",22005,"EasyMed",1,1,27,3,87.947,221.56,0,"Easy",68,1,0.80062
"PLY22",22005,"EasyMed",1,1,28,3,87.947,221.56,0,"Easy",68,1,0.82089
"PLY22",22005,"EasyMed",1,1,29,29,252.16,120.1,1,"Easy",75,1,0.51579
"PLY22",22005,"EasyMed",1,1,30,26,157.74,25,1,"Easy",75,1,1.2657
"PLY22",22005,"EasyMed",1,2,31,2,56.474,189.87,0,"Easy",68,1,0.64009
"PLY22",22005,"EasyMed",1,2,32,27,189.21,56.691,1,"Easy",75,1,0.79035
"PLY22",22005,"EasyMed",1,2,33,27,189.21,56.691,1,"Easy",75,1,0.61546
"PLY22",22005,"EasyMed",1,2,34,30,285,151.82,1,"Easy",75,1,1.3317
"PLY22",22005,"EasyMed",1,2,35,30,285,151.82,1,"Easy",75,1,0.69489
"PLY22",22005,"EasyMed",1,2,36,29,252.16,120.1,1,"Easy",75,1,0.50563
"PLY22",22005,"EasyMed",1,2,37,3,87.947,221.56,0,"Easy",68,1,0.96072
"PLY22",22005,"EasyMed",1,2,38,27,189.21,56.691,1,"Easy",75,1,0.57565
"PLY22",22005,"EasyMed",1,2,39,28,220.68,88.411,1,"Easy",75,1,0.68515
"PLY22",22005,"EasyMed",1,2,40,29,252.16,120.1,1,"Easy",75,1,0.59517
"PLY22",22005,"EasyMed",1,2,41,2,56.474,189.87,0,"Easy",68,1,0.60072
"PLY22",22005,"EasyMed",1,2,42,26,157.74,25,1,"Easy",68,0,1.0301
"PLY22",22005,"EasyMed",1,2,43,26,157.74,25,1,"Easy",75,1,1.9005
"PLY22",22005,"EasyMed",1,2,44,1,25,158.15,0,"Easy",68,1,1.1456
"PLY22",22005,"EasyMed",1,2,45,5,150.89,285,0,"Easy",75,0,1.2308
"PLY22",22005,"EasyMed",1,2,46,28,220.68,88.411,1,"Easy",75,1,1.105
"PLY22",22005,"EasyMed",1,2,47,5,150.89,285,0,"Easy",68,1,1.5653
"PLY22",22005,"EasyMed",1,2,48,5,150.89,285,0,"Easy",68,1,1.0152
"PLY22",22005,"EasyMed",1,2,49,4,119.42,253.28,0,"Easy",68,1,1.4106
"PLY22",22005,"EasyMed",1,2,50,29,252.16,120.1,1,"Easy",75,1,1.2752
"PLY22",22005,"EasyMed",1,2,51,5,150.89,285,0,"Easy",75,0,1.7354
"PLY22",22005,"EasyMed",1,2,52,27,189.21,56.691,1,"Easy",75,1,1.005
"PLY22",22005,"EasyMed",1,2,53,5,150.89,285,0,"Easy",75,0,0.99107
"PLY22",22005,"EasyMed",1,2,54,3,87.947,221.56,0,"Easy",68,1,1.4708
"PLY22",22005,"EasyMed",1,2,55,3,87.947,221.56,0,"Easy",68,1,1.4455
"PLY22",22005,"EasyMed",1,2,56,27,189.21,56.691,1,"Easy",75,1,1.1406
"PLY22",22005,"EasyMed",1,2,57,1,25,158.15,0,"Easy",68,1,1.7455
"PLY22",22005,"EasyMed",1,2,58,30,285,151.82,1,"Easy",75,1,1.1807
"PLY22",22005,"EasyMed",1,2,59,4,119.42,253.28,0,"Easy",75,0,1.3001
"PLY22",22005,"EasyMed",1,2,60,5,150.89,285,0,"Easy",75,0,2.4205
"PLY22",22005,"EasyMed",1,3,61,30,285,151.82,1,"Easy",75,1,1.376
"PLY22",22005,"EasyMed",1,3,62,4,119.42,253.28,0,"Easy",68,1,1.286
"PLY22",22005,"EasyMed",1,3,63,2,56.474,189.87,0,"Easy",68,1,1.2954
"PLY22",22005,"EasyMed",1,3,64,27,189.21,56.691,1,"Easy",75,1,1.5859
"PLY22",22005,"EasyMed",1,3,65,26,157.74,25,1,"Easy",75,1,2.5508
"PLY22",22005,"EasyMed",1,3,66,30,285,151.82,1,"Easy",75,1,0.96998
"PLY22",22005,"EasyMed",1,3,67,1,25,158.15,0,"Easy",68,1,1.0704
"PLY22",22005,"EasyMed",1,3,68,26,157.74,25,1,"Easy",75,1,3.4007
"PLY22",22005,"EasyMed",1,3,69,28,220.68,88.411,1,"Easy",75,1,1.1702
"PLY22",22005,"EasyMed",1,3,70,28,220.68,88.411,1,"Easy",75,1,0.88025
"PLY22",22005,"EasyMed",1,3,71,27,189.21,56.691,1,"Easy",75,1,0.90041
"PLY22",22005,"EasyMed",1,3,72,2,56.474,189.87,0,"Easy",68,1,0.99067
"PLY22",22005,"EasyMed",1,3,73,30,285,151.82,1,"Easy",75,1,0.93559
"PLY22",22005,"EasyMed",1,3,74,26,157.74,25,1,"Easy",75,1,1.5158
"PLY22",22005,"EasyMed",1,3,75,27,189.21,56.691,1,"Easy",75,1,2.0352
"PLY22",22005,"EasyMed",1,3,76,4,119.42,253.28,0,"Easy",68,1,2.5458
"PLY22",22005,"EasyMed",1,3,77,29,252.16,120.1,1,"Easy",75,1,0.93048
"PLY22",22005,"EasyMed",1,3,78,26,157.74,25,1,"Easy",75,1,1.8058
"PLY22",22005,"EasyMed",1,3,79,28,220.68,88.411,1,"Easy",75,1,1.025
"PLY22",22005,"EasyMed",1,3,80,5,150.89,285,0,"Easy",75,0,2.065
"PLY22",22005,"EasyMed",1,3,81,28,220.68,88.411,1,"Easy",75,1,1.9704
"PLY22",22005,"EasyMed",1,3,82,29,252.16,120.1,1,"Easy",75,1,1.1457
"PLY22",22005,"EasyMed",1,3,83,28,220.68,88.411,1,"Easy",75,1,1.1649
"PLY22",22005,"EasyMed",1,3,84,28,220.68,88.411,1,"Easy",75,1,0.90559
"PLY22",22005,"EasyMed",1,3,85,5,150.89,285,0,"Easy",68,1,2.105
"PLY22",22005,"EasyMed",1,3,86,29,252.16,120.1,1,"Easy",75,1,1.1901
"PLY22",22005,"EasyMed",1,3,87,27,189.21,56.691,1,"Easy",75,1,1.8057
"PLY22",22005,"EasyMed",1,3,88,4,119.42,253.28,0,"Easy",68,1,1.5804
"PLY22",22005,"EasyMed",1,3,89,3,87.947,221.56,0,"Easy",68,1,1.3855
"PLY22",22005,"EasyMed",1,3,90,2,56.474,189.87,0,"Easy",68,1,1.0352
"PLY22",22005,"EasyMed",1,4,91,3,87.947,221.56,0,"Easy",68,1,1.3552
"PLY22",22005,"EasyMed",1,4,92,28,220.68,88.411,1,"Easy",75,1,0.91045
"PLY22",22005,"EasyMed",1,4,93,30,285,151.82,1,"Easy",75,1,0.90047
"PLY22",22005,"EasyMed",1,4,94,26,157.74,25,1,"Easy",68,0,1.5053
"PLY22",22005,"EasyMed",1,4,95,28,220.68,88.411,1,"Easy",75,1,1.8602
"PLY22",22005,"EasyMed",1,4,96,2,56.474,189.87,0,"Easy",68,1,2.1853
"PLY22",22005,"EasyMed",1,4,97,3,87.947,221.56,0,"Easy",68,1,0.98014
"PLY22",22005,"EasyMed",1,4,98,4,119.42,253.28,0,"Easy",68,1,1.2403
"PLY22",22005,"EasyMed",1,4,99,28,220.68,88.411,1,"Easy",75,1,0.87032
"PLY22",22005,"EasyMed",1,4,100,2,56.474,189.87,0,"Easy",68,1,0.81524
"PLY22",22005,"EasyMed",1,4,101,26,157.74,25,1,"Easy",68,0,1.4052
"PLY22",22005,"EasyMed",1,4,102,29,252.16,120.1,1,"Easy",75,1,1.3605
"PLY22",22005,"EasyMed",1,4,103,2,56.474,189.87,0,"Easy",68,1,1.3857
"PLY22",22005,"EasyMed",1,4,104,2,56.474,189.87,0,"Easy",68,1,0.915
"PLY22",22005,"EasyMed",1,4,105,2,56.474,189.87,0,"Easy",68,1,0.45528
"PLY22",22005,"EasyMed",1,4,106,1,25,158.15,0,"Easy",68,1,0.95543
"PLY22",22005,"EasyMed",1,4,107,4,119.42,253.28,0,"Easy",75,0,1.6254
"PLY22",22005,"EasyMed",1,4,108,5,150.89,285,0,"Easy",75,0,1.7601
"PLY22",22005,"EasyMed",1,4,109,29,252.16,120.1,1,"Easy",75,1,0.90064
"PLY22",22005,"EasyMed",1,4,110,28,220.68,88.411,1,"Easy",75,1,0.81026
"PLY22",22005,"EasyMed",1,4,111,4,119.42,253.28,0,"Easy",68,1,0.98556
"PLY22",22005,"EasyMed",1,4,112,27,189.21,56.691,1,"Easy",75,1,1.0609
"PLY22",22005,"EasyMed",1,4,113,27,189.21,56.691,1,"Easy",68,0,1.1357
"PLY22",22005,"EasyMed",1,4,114,3,87.947,221.56,0,"Easy",68,1,0.52533
"PLY22",22005,"EasyMed",1,4,115,29,252.16,120.1,1,"Easy",75,1,1.1301
"PLY22",22005,"EasyMed",1,4,116,29,252.16,120.1,1,"Easy",75,1,0.85523
"PLY22",22005,"EasyMed",1,4,117,1,25,158.15,0,"Easy",68,1,1.0499
"PLY22",22005,"EasyMed",1,4,118,1,25,158.15,0,"Easy",68,1,0.38508
"PLY22",22005,"EasyMed",1,4,119,1,25,158.15,0,"Easy",68,1,0.28552
"PLY22",22005,"EasyMed",1,4,120,3,87.947,221.56,0,"Easy",68,1,0.93513
"PLY22",22005,"EasyMed",1,5,121,2,56.474,189.87,0,"Easy",68,1,0.27502
"PLY22",22005,"EasyMed",1,5,122,26,157.74,25,1,"Easy",68,0,0.31075
"PLY22",22005,"EasyMed",1,5,123,26,157.74,25,1,"Easy",68,0,1.2651
"PLY22",22005,"EasyMed",1,5,124,3,87.947,221.56,0,"Easy",75,0,1.5607
"PLY22",22005,"EasyMed",1,5,125,30,285,151.82,1,"Easy",75,1,0.88063
"PLY22",22005,"EasyMed",1,5,126,28,220.68,88.411,1,"Easy",75,1,0.4008
"PLY22",22005,"EasyMed",1,5,127,27,189.21,56.691,1,"Easy",75,1,0.60033
"PLY22",22005,"EasyMed",1,5,128,27,189.21,56.691,1,"Easy",75,1,0.79996
"PLY22",22005,"EasyMed",1,5,129,30,285,151.82,1,"Easy",75,1,0.72126
"PLY22",22005,"EasyMed",1,5,130,4,119.42,253.28,0,"Easy",75,0,0.96076
"PLY22",22005,"EasyMed",1,5,131,1,25,158.15,0,"Easy",68,1,0.53561
"PLY22",22005,"EasyMed",1,5,132,1,25,158.15,0,"Easy",68,1,0.36519
"PLY22",22005,"EasyMed",1,5,133,27,189.21,56.691,1,"Easy",68,0,0.75994
"PLY22",22005,"EasyMed",1,5,134,4,119.42,253.28,0,"Easy",68,1,0.88001
"PLY22",22005,"EasyMed",1,5,135,29,252.16,120.1,1,"Easy",75,1,1.4651
"PLY22",22005,"EasyMed",1,5,136,30,285,151.82,1,"Easy",75,1,1.1104
"PLY22",22005,"EasyMed",1,5,137,29,252.16,120.1,1,"Easy",75,1,0.87592
"PLY22",22005,"EasyMed",1,5,138,1,25,158.15,0,"Easy",68,1,1.1407
"PLY22",22005,"EasyMed",1,5,139,5,150.89,285,0,"Easy",75,0,1.3909
"PLY22",22005,"EasyMed",1,5,140,29,252.16,120.1,1,"Easy",75,1,1.6153
"PLY22",22005,"EasyMed",1,5,141,2,56.474,189.87,0,"Easy",68,1,1.331
"PLY22",22005,"EasyMed",1,5,142,5,150.89,285,0,"Easy",68,1,1.2354
"PLY22",22005,"EasyMed",1,5,143,30,285,151.82,1,"Easy",75,1,0.89576
"PLY22",22005,"EasyMed",1,5,144,26,157.74,25,1,"Easy",68,0,1.2454
"PLY22",22005,"EasyMed",1,5,145,30,285,151.82,1,"Easy",75,1,1.1857
"PLY22",22005,"EasyMed",1,5,146,26,157.74,25,1,"Easy",68,0,1.7902
"PLY22",22005,"EasyMed",1,5,147,2,56.474,189.87,0,"Easy",68,1,1.2156
"PLY22",22005,"EasyMed",1,5,148,3,87.947,221.56,0,"Easy",68,1,1.4002
"PLY22",22005,"EasyMed",1,5,149,4,119.42,253.28,0,"Easy",68,1,1.2102
"PLY22",22005,"EasyMed",1,5,150,28,220.68,88.411,1,"Easy",75,1,0.96507
"PLY22",22005,"EasyMed",2,1,151,8,109.84,199.37,0,"Medium",68,1,1.9451
"PLY22",22005,"EasyMed",2,1,152,10,172.79,262.78,0,"Medium",75,0,2.9052
"PLY22",22005,"EasyMed",2,1,153,23,198.79,110.6,1,"Medium",75,1,1.2557
"PLY22",22005,"EasyMed",2,1,154,22,167.32,78.878,1,"Medium",75,1,2.1255
"PLY22",22005,"EasyMed",2,1,155,9,141.32,231.09,0,"Medium",68,1,2.5809
"PLY22",22005,"EasyMed",2,1,156,22,167.32,78.878,1,"Medium",68,0,1.2807
"PLY22",22005,"EasyMed",2,1,157,22,167.32,78.878,1,"Medium",75,1,1.3005
"PLY22",22005,"EasyMed",2,1,158,24,230.26,142.32,1,"Medium",75,1,0.98511
"PLY22",22005,"EasyMed",2,1,159,21,135.84,47.187,1,"Medium",68,0,2.4207
"PLY22",22005,"EasyMed",2,1,160,7,78.368,167.68,0,"Medium",68,1,1.2508
"PLY22",22005,"EasyMed",2,1,161,23,198.79,110.6,1,"Medium",75,1,1.4708
"PLY22",22005,"EasyMed",2,1,162,25,261.74,174.01,1,"Medium",75,1,1.1954
"PLY22",22005,"EasyMed",2,1,163,23,198.79,110.6,1,"Medium",75,1,1.0006
"PLY22",22005,"EasyMed",2,1,164,22,167.32,78.878,1,"Medium",75,1,1.2301
"PLY22",22005,"EasyMed",2,1,165,21,135.84,47.187,1,"Medium",75,1,2.6253
"PLY22",22005,"EasyMed",2,1,166,24,230.26,142.32,1,"Medium",75,1,2.8001
"PLY22",22005,"EasyMed",2,1,167,6,46.895,135.96,0,"Medium",68,1,1.1557
"PLY22",22005,"EasyMed",2,1,168,10,172.79,262.78,0,"Medium",75,0,2.925
"PLY22",22005,"EasyMed",2,1,169,25,261.74,174.01,1,"Medium",75,1,0.93499
"PLY22",22005,"EasyMed",2,1,170,8,109.84,199.37,0,"Medium",68,1,1.5104
"PLY22",22005,"EasyMed",2,1,171,6,46.895,135.96,0,"Medium",68,1,1.2606
"PLY22",22005,"EasyMed",2,1,172,21,135.84,47.187,1,"Medium",68,0,1.7452
"PLY22",22005,"EasyMed",2,1,173,9,141.32,231.09,0,"Medium",68,1,1.1106
"PLY22",22005,"EasyMed",2,1,174,22,167.32,78.878,1,"Medium",75,1,0.8905
"PLY22",22005,"EasyMed",2,1,175,21,135.84,47.187,1,"Medium",75,1,1.1906
"PLY22",22005,"EasyMed",2,1,176,24,230.26,142.32,1,"Medium",75,1,1.2402
"PLY22",22005,"EasyMed",2,1,177,7,78.368,167.68,0,"Medium",68,1,2.9705
"PLY22",22005,"EasyMed",2,1,178,10,172.79,262.78,0,"Medium",75,0,1.7052
"PLY22",22005,"EasyMed",2,1,179,6,46.895,135.96,0,"Medium",68,1,1.4254
"PLY22",22005,"EasyMed",2,1,180,10,172.79,262.78,0,"Medium",75,0,1.7008
"PLY22",22005,"EasyMed",2,2,181,6,46.895,135.96,0,"Medium",68,1,1.1959
"PLY22",22005,"EasyMed",2,2,182,7,78.368,167.68,0,"Medium",68,1,1.5957
"PLY22",22005,"EasyMed",2,2,183,24,230.26,142.32,1,"Medium",75,1,1.0502
"PLY22",22005,"EasyMed",2,2,184,25,261.74,174.01,1,"Medium",75,1,1.4459
"PLY22",22005,"EasyMed",2,2,185,24,230.26,142.32,1,"Medium",75,1,0.69088
"PLY22",22005,"EasyMed",2,2,186,6,46.895,135.96,0,"Medium",68,1,1.0003
"PLY22",22005,"EasyMed",2,2,187,7,78.368,167.68,0,"Medium",68,1,1.2056
"PLY22",22005,"EasyMed",2,2,188,25,261.74,174.01,1,"Medium",75,1,0.88531
"PLY22",22005,"EasyMed",2,2,189,25,261.74,174.01,1,"Medium",75,1,0.98052
"PLY22",22005,"EasyMed",2,2,190,23,198.79,110.6,1,"Medium",75,1,0.70076
"PLY22",22005,"EasyMed",2,2,191,23,198.79,110.6,1,"Medium",75,1,0.64038
"PLY22",22005,"EasyMed",2,2,192,10,172.79,262.78,0,"Medium",75,0,0.54532
"PLY22",22005,"EasyMed",2,2,193,25,261.74,174.01,1,"Medium",75,1,0.52543
"PLY22",22005,"EasyMed",2,2,194,8,109.84,199.37,0,"Medium",68,1,1.6258
"PLY22",22005,"EasyMed",2,2,195,22,167.32,78.878,1,"Medium",75,1,0.94499
"PLY22",22005,"EasyMed",2,2,196,7,78.368,167.68,0,"Medium",68,1,1.4552
"PLY22",22005,"EasyMed",2,2,197,10,172.79,262.78,0,"Medium",75,0,2.0554
"PLY22",22005,"EasyMed",2,2,198,7,78.368,167.68,0,"Medium",68,1,1.2358
"PLY22",22005,"EasyMed",2,2,199,9,141.32,231.09,0,"Medium",75,0,1.8506
"PLY22",22005,"EasyMed",2,2,200,21,135.84,47.187,1,"Medium",75,1,1.15
"PLY22",22005,"EasyMed",2,2,201,21,135.84,47.187,1,"Medium",75,1,1.3454
"PLY22",22005,"EasyMed",2,2,202,9,141.32,231.09,0,"Medium",68,1,2.2455
"PLY22",22005,"EasyMed",2,2,203,23,198.79,110.6,1,"Medium",75,1,0.83067
"PLY22",22005,"EasyMed",2,2,204,21,135.84,47.187,1,"Medium",75,1,2.6357
"PLY22",22005,"EasyMed",2,2,205,6,46.895,135.96,0,"Medium",68,1,1.0356
"PLY22",22005,"EasyMed",2,2,206,21,135.84,47.187,1,"Medium",75,1,2.1956
"PLY22",22005,"EasyMed",2,2,207,9,141.32,231.09,0,"Medium",75,0,1.1256
"PLY22",22005,"EasyMed",2,2,208,6,46.895,135.96,0,"Medium",68,1,1.1954
"PLY22",22005,"EasyMed",2,2,209,9,141.32,231.09,0,"Medium",75,0,1.8306
"PLY22",22005,"EasyMed",2,2,210,7,78.368,167.68,0,"Medium",68,1,1.4153
"PLY22",22005,"EasyMed",2,3,211,21,135.84,47.187,1,"Medium",75,1,4.2558
"PLY22",22005,"EasyMed",2,3,212,8,109.84,199.37,0,"Medium",75,0,2.6902
"PLY22",22005,"EasyMed",2,3,213,21,135.84,47.187,1,"Medium",75,1,3.4002
"PLY22",22005,"EasyMed",2,3,214,22,167.32,78.878,1,"Medium",75,1,3.5109
"PLY22",22005,"EasyMed",2,3,215,10,172.79,262.78,0,"Medium",75,0,2.1208
"PLY22",22005,"EasyMed",2,3,216,10,172.79,262.78,0,"Medium",75,0,2.0907
"PLY22",22005,"EasyMed",2,3,217,10,172.79,262.78,0,"Medium",68,1,1.0552
"PLY22",22005,"EasyMed",2,3,218,6,46.895,135.96,0,"Medium",68,1,0.97568
"PLY22",22005,"EasyMed",2,3,219,7,78.368,167.68,0,"Medium",68,1,1.7208
"PLY22",22005,"EasyMed",2,3,220,6,46.895,135.96,0,"Medium",68,1,1.3054
"PLY22",22005,"EasyMed",2,3,221,25,261.74,174.01,1,"Medium",75,1,1.7808
"PLY22",22005,"EasyMed",2,3,222,6,46.895,135.96,0,"Medium",68,1,1.3907
"PLY22",22005,"EasyMed",2,3,223,23,198.79,110.6,1,"Medium",75,1,1.3849
"PLY22",22005,"EasyMed",2,3,224,9,141.32,231.09,0,"Medium",75,0,2.2109
"PLY22",22005,"EasyMed",2,3,225,24,230.26,142.32,1,"Medium",75,1,0.92586
"PLY22",22005,"EasyMed",2,3,226,24,230.26,142.32,1,"Medium",75,1,1.6906
"PLY22",22005,"EasyMed",2,3,227,8,109.84,199.37,0,"Medium",68,1,1.6154
"PLY22",22005,"EasyMed",2,3,228,24,230.26,142.32,1,"Medium",75,1,1.0701
