"date"	"cond"	"subj"	"cb"	"phase"	"blk"	"trial"	"stim"	"resp"	"rt"	"corrcount"
"2013-11-13"	2	15001	1	2	1	1	5	1	0	0
"2013-11-13"	2	15001	1	2	1	2	4	1	0	0
"2013-11-13"	2	15001	1	2	1	3	1	1	0	0
"2013-11-13"	2	15001	1	2	1	4	2	1	0	0
"2013-11-13"	2	15001	1	2	1	5	8	1	0	0
"2013-11-13"	2	15001	1	2	1	6	7	1	0	0
"2013-11-13"	2	15001	1	2	1	7	6	1	0	0
"2013-11-13"	2	15001	1	2	1	8	3	1	0	0
"2013-11-13"	2	15001	1	2	2	9	1	1	0	0
"2013-11-13"	2	15001	1	2	2	10	7	1	0	0
"2013-11-13"	2	15001	1	2	2	11	5	1	0	0
"2013-11-13"	2	15001	1	2	2	12	6	1	0	0
"2013-11-13"	2	15001	1	2	2	13	3	1	0	0
"2013-11-13"	2	15001	1	2	2	14	2	1	0	0
"2013-11-13"	2	15001	1	2	2	15	8	1	0	0
"2013-11-13"	2	15001	1	2	2	16	4	1	0	0
"2013-11-13"	2	15001	1	2	3	17	5	1	0	0
"2013-11-13"	2	15001	1	2	3	18	6	1	0	0
"2013-11-13"	2	15001	1	2	3	19	7	1	0	0
"2013-11-13"	2	15001	1	2	3	20	8	1	0	0
"2013-11-13"	2	15001	1	2	3	21	2	1	0	0
"2013-11-13"	2	15001	1	2	3	22	3	1	0	0
"2013-11-13"	2	15001	1	2	3	23	4	1	0	0
"2013-11-13"	2	15001	1	2	3	24	1	1	0	0
"2013-11-13"	2	15001	1	3	1	1	8	1	0	0
"2013-11-13"	2	15001	1	3	1	2	3	1	281	0
"2013-11-13"	2	15001	1	3	1	3	4	1	245	0
"2013-11-13"	2	15001	1	3	1	4	10	1	290	0
"2013-11-13"	2	15001	1	3	1	5	9	0	230	0
"2013-11-13"	2	15001	1	3	1	6	5	0	251	0
"2013-11-13"	2	15001	1	3	1	7	11	0	256	0
"2013-11-13"	2	15001	1	3	1	8	7	0	326	0
"2013-11-13"	2	15001	1	3	1	9	1	1	279	0
"2013-11-13"	2	15001	1	3	1	10	6	0	219	0
"2013-11-13"	2	15001	1	3	1	11	15	0	505	0
"2013-11-13"	2	15001	1	3	1	12	14	1	284	0
"2013-11-13"	2	15001	1	3	1	13	13	0	176	0
"2013-11-13"	2	15001	1	3	1	14	2	1	320	0
"2013-11-13"	2	15001	1	3	1	15	16	1	43	0
"2013-11-13"	2	15001	1	3	1	16	12	1	401	0
"2013-11-13"	2	15001	1	3	2	17	4	1	423	0
"2013-11-13"	2	15001	1	3	2	18	6	0	332	0
"2013-11-13"	2	15001	1	3	2	19	3	1	310	0
"2013-11-13"	2	15001	1	3	2	20	11	0	329	0
"2013-11-13"	2	15001	1	3	2	21	14	1	323	0
"2013-11-13"	2	15001	1	3	2	22	9	0	492	0
"2013-11-13"	2	15001	1	3	2	23	15	0	439	0
"2013-11-13"	2	15001	1	3	2	24	5	0	516	0
"2013-11-13"	2	15001	1	3	2	25	2	1	446	0
"2013-11-13"	2	15001	1	3	2	26	12	1	571	0
"2013-11-13"	2	15001	1	3	2	27	7	0	266	0
"2013-11-13"	2	15001	1	3	2	28	1	1	455	0
"2013-11-13"	2	15001	1	3	2	29	16	1	499	0
"2013-11-13"	2	15001	1	3	2	30	13	0	262	0
"2013-11-13"	2	15001	1	3	2	31	10	1	259	0
"2013-11-13"	2	15001	1	3	2	32	8	0	262	0
"2013-11-13"	2	15001	1	3	3	33	9	0	275	0
"2013-11-13"	2	15001	1	3	3	34	14	1	239	0
"2013-11-13"	2	15001	1	3	3	35	4	1	293	0
"2013-11-13"	2	15001	1	3	3	36	2	1	289	0
"2013-11-13"	2	15001	1	3	3	37	10	1	348	0
"2013-11-13"	2	15001	1	3	3	38	15	0	381	0
"2013-11-13"	2	15001	1	3	3	39	16	1	292	0
"2013-11-13"	2	15001	1	3	3	40	8	0	408	0
"2013-11-13"	2	15001	1	3	3	41	12	1	342	0
"2013-11-13"	2	15001	1	3	3	42	5	0	303	0
"2013-11-13"	2	15001	1	3	3	43	1	1	306	0
"2013-11-13"	2	15001	1	3	3	44	13	0	365	0
"2013-11-13"	2	15001	1	3	3	45	7	0	517	0
"2013-11-13"	2	15001	1	3	3	46	6	0	367	0
"2013-11-13"	2	15001	1	3	3	47	3	1	759	0
"2013-11-13"	2	15001	1	3	3	48	11	0	582	0
"2013-11-13"	2	15001	1	3	4	49	8	0	349	0
"2013-11-13"	2	15001	1	3	4	50	10	1	423	0
"2013-11-13"	2	15001	1	3	4	51	5	0	397	0
"2013-11-13"	2	15001	1	3	4	52	3	1	364	0
"2013-11-13"	2	15001	1	3	4	53	6	0	275	0
"2013-11-13"	2	15001	1	3	4	54	13	0	327	0
"2013-11-13"	2	15001	1	3	4	55	11	0	417	0
"2013-11-13"	2	15001	1	3	4	56	12	1	295	0
"2013-11-13"	2	15001	1	3	4	57	4	1	362	0
"2013-11-13"	2	15001	1	3	4	58	16	1	338	0
"2013-11-13"	2	15001	1	3	4	59	14	1	452	0
"2013-11-13"	2	15001	1	3	4	60	2	1	385	0
"2013-11-13"	2	15001	1	3	4	61	15	0	256	0
"2013-11-13"	2	15001	1	3	4	62	7	0	286	0
"2013-11-13"	2	15001	1	3	4	63	9	0	409	0
"2013-11-13"	2	15001	1	3	4	64	1	1	223	0
"2013-11-13"	2	15001	1	3	5	65	11	0	246	0
"2013-11-13"	2	15001	1	3	5	66	13	0	387	0
"2013-11-13"	2	15001	1	3	5	67	5	0	291	0
"2013-11-13"	2	15001	1	3	5	68	8	0	318	0
"2013-11-13"	2	15001	1	3	5	69	10	1	472	0
"2013-11-13"	2	15001	1	3	5	70	15	0	348	0
"2013-11-13"	2	15001	1	3	5	71	2	1	341	0
"2013-11-13"	2	15001	1	3	5	72	3	1	334	0
"2013-11-13"	2	15001	1	3	5	73	7	0	504	0
"2013-11-13"	2	15001	1	3	5	74	6	0	330	0
"2013-11-13"	2	15001	1	3	5	75	16	1	363	0
"2013-11-13"	2	15001	1	3	5	76	14	1	380	0
"2013-11-13"	2	15001	1	3	5	77	9	0	268	0
"2013-11-13"	2	15001	1	3	5	78	4	1	280	0
"2013-11-13"	2	15001	1	3	5	79	1	1	331	0
"2013-11-13"	2	15001	1	3	5	80	12	1	453	0
"2013-11-13"	2	15001	1	3	6	81	1	1	322	0
"2013-11-13"	2	15001	1	3	6	82	7	0	356	0
"2013-11-13"	2	15001	1	3	6	83	4	1	534	0
"2013-11-13"	2	15001	1	3	6	84	6	0	606	0
"2013-11-13"	2	15001	1	3	6	85	16	1	780	0
"2013-11-13"	2	15001	1	3	6	86	10	1	539	0
"2013-11-13"	2	15001	1	3	6	87	8	0	444	0
"2013-11-13"	2	15001	1	3	6	88	15	0	25	0
"2013-11-13"	2	15001	1	3	6	89	2	1	342	0
"2013-11-13"	2	15001	1	3	6	90	11	0	304	0
"2013-11-13"	2	15001	1	3	6	91	14	1	355	0
"2013-11-13"	2	15001	1	3	6	92	12	1	292	0
"2013-11-13"	2	15001	1	3	6	93	9	0	351	0
"2013-11-13"	2	15001	1	3	6	94	13	0	376	0
"2013-11-13"	2	15001	1	3	6	95	3	1	391	0
"2013-11-13"	2	15001	1	3	6	96	5	0	254	0
"2013-11-13"	2	15001	1	3	7	97	14	1	475	0
"2013-11-13"	2	15001	1	3	7	98	10	1	392	0
"2013-11-13"	2	15001	1	3	7	99	8	0	423	0
"2013-11-13"	2	15001	1	3	7	100	2	1	332	0
"2013-11-13"	2	15001	1	3	7	101	7	0	302	0
"2013-11-13"	2	15001	1	3	7	102	3	1	561	0
"2013-11-13"	2	15001	1	3	7	103	12	1	177	0
"2013-11-13"	2	15001	1	3	7	104	1	1	281	0
"2013-11-13"	2	15001	1	3	7	105	9	0	309	0
"2013-11-13"	2	15001	1	3	7	106	6	0	383	0
"2013-11-13"	2	15001	1	3	7	107	15	0	318	0
"2013-11-13"	2	15001	1	3	7	108	16	1	225	0
"2013-11-13"	2	15001	1	3	7	109	5	0	215	0
"2013-11-13"	2	15001	1	3	7	110	11	0	333	0
"2013-11-13"	2	15001	1	3	7	111	4	1	263	0
"2013-11-13"	2	15001	1	3	7	112	13	0	323	0
"2013-11-13"	2	15001	1	3	8	113	7	0	366	0
"2013-11-13"	2	15001	1	3	8	114	3	1	302	0
"2013-11-13"	2	15001	1	3	8	115	5	0	434	0
"2013-11-13"	2	15001	1	3	8	116	4	1	438	0
"2013-11-13"	2	15001	1	3	8	117	8	0	460	0
"2013-11-13"	2	15001	1	3	8	118	13	0	432	0
"2013-11-13"	2	15001	1	3	8	119	6	0	317	0
"2013-11-13"	2	15001	1	3	8	120	12	1	359	0
"2013-11-13"	2	15001	1	3	8	121	15	0	327	0
"2013-11-13"	2	15001	1	3	8	122	2	1	345	0
"2013-11-13"	2	15001	1	3	8	123	10	1	386	0
"2013-11-13"	2	15001	1	3	8	124	9	0	458	0
"2013-11-13"	2	15001	1	3	8	125	1	1	525	0
"2013-11-13"	2	15001	1	3	8	126	11	0	390	0
"2013-11-13"	2	15001	1	3	8	127	16	1	317	0
"2013-11-13"	2	15001	1	3	8	128	14	1	680	0
"2013-11-13"	2	15002	4	2	1	1	2	1	0	0
"2013-11-13"	2	15002	4	2	1	2	7	1	0	0
"2013-11-13"	2	15002	4	2	1	3	3	1	0	0
"2013-11-13"	2	15002	4	2	1	4	4	1	0	0
"2013-11-13"	2	15002	4	2	1	5	5	1	0	0
"2013-11-13"	2	15002	4	2	1	6	1	1	0	0
"2013-11-13"	2	15002	4	2	1	7	6	1	0	0
"2013-11-13"	2	15002	4	2	1	8	8	1	0	0
"2013-11-13"	2	15002	4	2	2	9	5	1	0	0
"2013-11-13"	2	15002	4	2	2	10	6	1	0	0
"2013-11-13"	2	15002	4	2	2	11	7	1	0	0
"2013-11-13"	2	15002	4	2	2	12	1	1	0	0
"2013-11-13"	2	15002	4	2	2	13	4	1	0	0
"2013-11-13"	2	15002	4	2	2	14	2	1	0	0
"2013-11-13"	2	15002	4	2	2	15	8	1	0	0
"2013-11-13"	2	15002	4	2	2	16	3	1	0	0
"2013-11-13"	2	15002	4	2	3	17	6	1	0	0
"2013-11-13"	2	15002	4	2	3	18	2	1	0	0
"2013-11-13"	2	15002	4	2	3	19	3	1	0	0
"2013-11-13"	2	15002	4	2	3	20	4	1	0	0
"2013-11-13"	2	15002	4	2	3	21	1	1	0	0
"2013-11-13"	2	15002	4	2	3	22	5	1	0	0
"2013-11-13"	2	15002	4	2	3	23	8	1	0	0
"2013-11-13"	2	15002	4	2	3	24	7	1	0	0
"2013-11-13"	2	15002	4	3	1	1	12	0	1306	0
"2013-11-13"	2	15002	4	3	1	2	13	1	642	0
"2013-11-13"	2	15002	4	3	1	3	4	1	534	0
"2013-11-13"	2	15002	4	3	1	4	16	1	232	0
"2013-11-13"	2	15002	4	3	1	5	10	0	278	0
"2013-11-13"	2	15002	4	3	1	6	14	1	0	0
"2013-11-13"	2	15002	4	3	1	7	7	0	340	0
"2013-11-13"	2	15002	4	3	1	8	2	1	421	0
"2013-11-13"	2	15002	4	3	1	9	15	1	508	0
"2013-11-13"	2	15002	4	3	1	10	8	0	494	0
"2013-11-13"	2	15002	4	3	1	11	5	0	432	0
"2013-11-13"	2	15002	4	3	1	12	11	1	461	0
"2013-11-13"	2	15002	4	3	1	13	1	1	281	0
"2013-11-13"	2	15002	4	3	1	14	6	1	525	0
"2013-11-13"	2	15002	4	3	1	15	9	1	254	0
"2013-11-13"	2	15002	4	3	1	16	3	0	411	0
"2013-11-13"	2	15002	4	3	2	17	16	0	378	0
"2013-11-13"	2	15002	4	3	2	18	5	1	489	0
"2013-11-13"	2	15002	4	3	2	19	9	1	549	0
"2013-11-13"	2	15002	4	3	2	20	15	1	556	0
"2013-11-13"	2	15002	4	3	2	21	2	0	316	0
"2013-11-13"	2	15002	4	3	2	22	13	1	311	0
"2013-11-13"	2	15002	4	3	2	23	11	1	385	0
"2013-11-13"	2	15002	4	3	2	24	14	0	345	0
"2013-11-13"	2	15002	4	3	2	25	3	0	242	0
"2013-11-13"	2	15002	4	3	2	26	7	1	239	0
"2013-11-13"	2	15002	4	3	2	27	6	1	389	0
"2013-11-13"	2	15002	4	3	2	28	4	0	181	0
"2013-11-13"	2	15002	4	3	2	29	8	1	205	0
"2013-11-13"	2	15002	4	3	2	30	1	0	372	0
"2013-11-13"	2	15002	4	3	2	31	10	0	332	0
"2013-11-13"	2	15002	4	3	2	32	12	0	406	0
"2013-11-13"	2	15002	4	3	3	33	10	0	285	0
"2013-11-13"	2	15002	4	3	3	34	16	0	312	0
"2013-11-13"	2	15002	4	3	3	35	5	1	251	0
"2013-11-13"	2	15002	4	3	3	36	9	0	312	0
"2013-11-13"	2	15002	4	3	3	37	2	0	347	0
"2013-11-13"	2	15002	4	3	3	38	4	0	436	0
"2013-11-13"	2	15002	4	3	3	39	6	1	385	0
"2013-11-13"	2	15002	4	3	3	40	13	1	440	0
"2013-11-13"	2	15002	4	3	3	41	11	1	492	0
"2013-11-13"	2	15002	4	3	3	42	7	1	303	0
"2013-11-13"	2	15002	4	3	3	43	12	0	162	0
"2013-11-13"	2	15002	4	3	3	44	15	1	211	0
"2013-11-13"	2	15002	4	3	3	45	1	0	250	0
"2013-11-13"	2	15002	4	3	3	46	3	0	343	0
"2013-11-13"	2	15002	4	3	3	47	8	1	312	0
"2013-11-13"	2	15002	4	3	3	48	14	0	427	0
"2013-11-13"	2	15002	4	3	4	49	3	0	344	0
"2013-11-13"	2	15002	4	3	4	50	15	1	361	0
"2013-11-13"	2	15002	4	3	4	51	6	1	368	0
"2013-11-13"	2	15002	4	3	4	52	12	0	249	0
"2013-11-13"	2	15002	4	3	4	53	13	1	366	0
"2013-11-13"	2	15002	4	3	4	54	7	1	574	0
"2013-11-13"	2	15002	4	3	4	55	5	1	365	0
"2013-11-13"	2	15002	4	3	4	56	4	0	222	0
"2013-11-13"	2	15002	4	3	4	57	10	0	420	0
"2013-11-13"	2	15002	4	3	4	58	2	0	467	0
"2013-11-13"	2	15002	4	3	4	59	16	0	479	0
"2013-11-13"	2	15002	4	3	4	60	8	1	322	0
"2013-11-13"	2	15002	4	3	4	61	1	0	307	0
"2013-11-13"	2	15002	4	3	4	62	14	0	349	0
"2013-11-13"	2	15002	4	3	4	63	11	1	406	0
"2013-11-13"	2	15002	4	3	4	64	9	1	509	0
"2013-11-13"	2	15002	4	3	5	65	3	0	431	0
"2013-11-13"	2	15002	4	3	5	66	2	0	484	0
"2013-11-13"	2	15002	4	3	5	67	1	0	280	0
"2013-11-13"	2	15002	4	3	5	68	8	1	628	0
"2013-11-13"	2	15002	4	3	5	69	9	1	568	0
"2013-11-13"	2	15002	4	3	5	70	13	1	320	0
"2013-11-13"	2	15002	4	3	5	71	6	1	354	0
"2013-11-13"	2	15002	4	3	5	72	14	0	595	0
"2013-11-13"	2	15002	4	3	5	73	7	1	241	0
"2013-11-13"	2	15002	4	3	5	74	12	0	350	0
"2013-11-13"	2	15002	4	3	5	75	16	0	479	0
"2013-11-13"	2	15002	4	3	5	76	11	1	459	0
"2013-11-13"	2	15002	4	3	5	77	4	0	431	0
"2013-11-13"	2	15002	4	3	5	78	5	1	476	0
"2013-11-13"	2	15002	4	3	5	79	10	0	631	0
"2013-11-13"	2	15002	4	3	5	80	15	1	452	0
"2013-11-13"	2	15002	4	3	6	81	11	1	328	0
"2013-11-13"	2	15002	4	3	6	82	7	1	386	0
"2013-11-13"	2	15002	4	3	6	83	6	1	297	0
"2013-11-13"	2	15002	4	3	6	84	15	1	492	0
"2013-11-13"	2	15002	4	3	6	85	13	1	351	0
"2013-11-13"	2	15002	4	3	6	86	1	0	208	0
"2013-11-13"	2	15002	4	3	6	87	5	1	439	0
"2013-11-13"	2	15002	4	3	6	88	3	0	348	0
"2013-11-13"	2	15002	4	3	6	89	14	0	317	0
"2013-11-13"	2	15002	4	3	6	90	12	0	432	0
"2013-11-13"	2	15002	4	3	6	91	2	0	532	0
"2013-11-13"	2	15002	4	3	6	92	16	0	493	0
"2013-11-13"	2	15002	4	3	6	93	9	1	368	0
"2013-11-13"	2	15002	4	3	6	94	8	1	344	0
"2013-11-13"	2	15002	4	3	6	95	4	0	353	0
"2013-11-13"	2	15002	4	3	6	96	10	0	386	0
"2013-11-13"	2	15002	4	3	7	97	15	1	386	0
"2013-11-13"	2	15002	4	3	7	98	1	0	385	0
"2013-11-13"	2	15002	4	3	7	99	16	0	473	0
"2013-11-13"	2	15002	4	3	7	100	13	1	476	0
"2013-11-13"	2	15002	4	3	7	101	4	0	672	0
"2013-11-13"	2	15002	4	3	7	102	5	1	322	0
"2013-11-13"	2	15002	4	3	7	103	7	1	692	0
"2013-11-13"	2	15002	4	3	7	104	3	0	270	0
"2013-11-13"	2	15002	4	3	7	105	2	0	691	0
"2013-11-13"	2	15002	4	3	7	106	11	1	486	0
"2013-11-13"	2	15002	4	3	7	107	14	0	265	0
"2013-11-13"	2	15002	4	3	7	108	10	0	366	0
"2013-11-13"	2	15002	4	3	7	109	12	0	454	0
"2013-11-13"	2	15002	4	3	7	110	8	1	467	0
"2013-11-13"	2	15002	4	3	7	111	9	1	646	0
"2013-11-13"	2	15002	4	3	7	112	6	1	339	0
"2013-11-13"	2	15002	4	3	8	113	9	1	404	0
"2013-11-13"	2	15002	4	3	8	114	8	1	570	0
"2013-11-13"	2	15002	4	3	8	115	5	1	498	0
"2013-11-13"	2	15002	4	3	8	116	14	0	437	0
"2013-11-13"	2	15002	4	3	8	117	4	0	242	0
"2013-11-13"	2	15002	4	3	8	118	13	1	408	0
"2013-11-13"	2	15002	4	3	8	119	10	0	246	0
"2013-11-13"	2	15002	4	3	8	120	2	0	363	0
"2013-11-13"	2	15002	4	3	8	121	12	0	266	0
"2013-11-13"	2	15002	4	3	8	122	11	1	295	0
"2013-11-13"	2	15002	4	3	8	123	7	1	458	0
"2013-11-13"	2	15002	4	3	8	124	3	0	222	0
"2013-11-13"	2	15002	4	3	8	125	1	0	445	0
"2013-11-13"	2	15002	4	3	8	126	6	1	442	0
"2013-11-13"	2	15002	4	3	8	127	15	1	286	0
"2013-11-13"	2	15002	4	3	8	128	16	0	338	0
"2013-11-13"	2	15003	7	2	1	1	4	1	0	0
"2013-11-13"	2	15003	7	2	1	2	2	1	0	0
"2013-11-13"	2	15003	7	2	1	3	7	1	0	0
"2013-11-13"	2	15003	7	2	1	4	3	1	0	0
"2013-11-13"	2	15003	7	2	1	5	6	1	0	0
"2013-11-13"	2	15003	7	2	1	6	1	1	0	0
"2013-11-13"	2	15003	7	2	1	7	8	1	0	0
"2013-11-13"	2	15003	7	2	1	8	5	1	0	0
"2013-11-13"	2	15003	7	2	2	9	2	1	0	0
"2013-11-13"	2	15003	7	2	2	10	8	1	0	0
"2013-11-13"	2	15003	7	2	2	11	6	1	0	0
"2013-11-13"	2	15003	7	2	2	12	1	1	0	0
"2013-11-13"	2	15003	7	2	2	13	4	1	0	0
"2013-11-13"	2	15003	7	2	2	14	5	1	0	0
"2013-11-13"	2	15003	7	2	2	15	3	1	0	0
"2013-11-13"	2	15003	7	2	2	16	7	1	0	0
"2013-11-13"	2	15003	7	2	3	17	4	1	0	0
"2013-11-13"	2	15003	7	2	3	18	8	1	0	0
"2013-11-13"	2	15003	7	2	3	19	6	1	0	0
"2013-11-13"	2	15003	7	2	3	20	3	1	0	0
"2013-11-13"	2	15003	7	2	3	21	7	1	0	0
"2013-11-13"	2	15003	7	2	3	22	1	1	0	0
"2013-11-13"	2	15003	7	2	3	23	5	1	0	0
"2013-11-13"	2	15003	7	2	3	24	2	1	0	0
"2013-11-13"	2	15003	7	3	1	1	4	1	1069	0
"2013-11-13"	2	15003	7	3	1	2	14	0	1351	0
"2013-11-13"	2	15003	7	3	1	3	10	0	1174	0
"2013-11-13"	2	15003	7	3	1	4	11	1	1003	0
"2013-11-13"	2	15003	7	3	1	5	16	1	1256	0
"2013-11-13"	2	15003	7	3	1	6	13	1	954	0
"2013-11-13"	2	15003	7	3	1	7	15	0	521	0
"2013-11-13"	2	15003	7	3	1	8	3	1	395	0
"2013-11-13"	2	15003	7	3	1	9	8	0	570	0
"2013-11-13"	2	15003	7	3	1	10	6	1	305	0
"2013-11-13"	2	15003	7	3	1	11	12	0	820	0
"2013-11-13"	2	15003	7	3	1	12	7	0	457	0
"2013-11-13"	2	15003	7	3	1	13	9	1	0	0
"2013-11-13"	2	15003	7	3	1	14	5	0	615	0
"2013-11-13"	2	15003	7	3	1	15	1	1	676	0
"2013-11-13"	2	15003	7	3	1	16	2	0	367	0
"2013-11-13"	2	15003	7	3	2	17	10	0	375	0
"2013-11-13"	2	15003	7	3	2	18	16	1	935	0
"2013-11-13"	2	15003	7	3	2	19	9	1	367	0
"2013-11-13"	2	15003	7	3	2	20	11	1	247	0
"2013-11-13"	2	15003	7	3	2	21	13	1	236	0
"2013-11-13"	2	15003	7	3	2	22	1	0	482	0
"2013-11-13"	2	15003	7	3	2	23	6	1	445	0
"2013-11-13"	2	15003	7	3	2	24	5	0	450	0
"2013-11-13"	2	15003	7	3	2	25	7	0	655	0
"2013-11-13"	2	15003	7	3	2	26	14	0	410	0
"2013-11-13"	2	15003	7	3	2	27	2	0	440	0
"2013-11-13"	2	15003	7	3	2	28	3	1	613	0
"2013-11-13"	2	15003	7	3	2	29	8	0	875	0
"2013-11-13"	2	15003	7	3	2	30	15	0	414	0
"2013-11-13"	2	15003	7	3	2	31	4	1	1051	0
"2013-11-13"	2	15003	7	3	2	32	12	0	534	0
"2013-11-13"	2	15003	7	3	3	33	2	0	343	0
"2013-11-13"	2	15003	7	3	3	34	10	0	328	0
"2013-11-13"	2	15003	7	3	3	35	14	0	282	0
"2013-11-13"	2	15003	7	3	3	36	7	0	798	0
"2013-11-13"	2	15003	7	3	3	37	16	0	211	0
"2013-11-13"	2	15003	7	3	3	38	12	0	346	0
"2013-11-13"	2	15003	7	3	3	39	5	0	291	0
"2013-11-13"	2	15003	7	3	3	40	3	0	222	0
"2013-11-13"	2	15003	7	3	3	41	9	1	317	0
"2013-11-13"	2	15003	7	3	3	42	13	1	439	0
"2013-11-13"	2	15003	7	3	3	43	15	0	380	0
"2013-11-13"	2	15003	7	3	3	44	8	0	268	0
"2013-11-13"	2	15003	7	3	3	45	11	1	1104	0
"2013-11-13"	2	15003	7	3	3	46	6	1	409	0
"2013-11-13"	2	15003	7	3	3	47	1	1	231	0
"2013-11-13"	2	15003	7	3	3	48	4	1	254	0
"2013-11-13"	2	15003	7	3	4	49	11	0	226	0
"2013-11-13"	2	15003	7	3	4	50	2	0	304	0
"2013-11-13"	2	15003	7	3	4	51	8	0	211	0
"2013-11-13"	2	15003	7	3	4	52	3	0	1146	0
"2013-11-13"	2	15003	7	3	4	53	5	0	217	0
"2013-11-13"	2	15003	7	3	4	54	6	1	296	0
"2013-11-13"	2	15003	7	3	4	55	9	1	370	0
"2013-11-13"	2	15003	7	3	4	56	14	0	314	0
"2013-11-13"	2	15003	7	3	4	57	16	1	789	0
"2013-11-13"	2	15003	7	3	4	58	10	0	563	0
"2013-11-13"	2	15003	7	3	4	59	15	0	459	0
"2013-11-13"	2	15003	7	3	4	60	7	0	983	0
"2013-11-13"	2	15003	7	3	4	61	13	0	452	0
"2013-11-13"	2	15003	7	3	4	62	1	1	273	0
"2013-11-13"	2	15003	7	3	4	63	12	0	301	0
"2013-11-13"	2	15003	7	3	4	64	4	1	200	0
"2013-11-13"	2	15003	7	3	5	65	16	1	224	0
"2013-11-13"	2	15003	7	3	5	66	1	1	246	0
"2013-11-13"	2	15003	7	3	5	67	9	1	291	0
"2013-11-13"	2	15003	7	3	5	68	7	0	326	0
"2013-11-13"	2	15003	7	3	5	69	10	0	1248	0
"2013-11-13"	2	15003	7	3	5	70	11	1	850	0
"2013-11-13"	2	15003	7	3	5	71	5	0	766	0
"2013-11-13"	2	15003	7	3	5	72	8	0	324	0
"2013-11-13"	2	15003	7	3	5	73	14	0	718	0
"2013-11-13"	2	15003	7	3	5	74	15	0	351	0
"2013-11-13"	2	15003	7	3	5	75	3	1	464	0
"2013-11-13"	2	15003	7	3	5	76	13	0	220	0
"2013-11-13"	2	15003	7	3	5	77	2	0	283	0
"2013-11-13"	2	15003	7	3	5	78	6	1	414	0
"2013-11-13"	2	15003	7	3	5	79	4	1	204	0
"2013-11-13"	2	15003	7	3	5	80	12	0	244	0
"2013-11-13"	2	15003	7	3	6	81	8	1	649	0
"2013-11-13"	2	15003	7	3	6	82	1	1	310	0
"2013-11-13"	2	15003	7	3	6	83	13	0	216	0
"2013-11-13"	2	15003	7	3	6	84	16	1	351	0
"2013-11-13"	2	15003	7	3	6	85	11	1	455	0
"2013-11-13"	2	15003	7	3	6	86	10	0	628	0
"2013-11-13"	2	15003	7	3	6	87	5	0	217	0
"2013-11-13"	2	15003	7	3	6	88	9	1	320	0
"2013-11-13"	2	15003	7	3	6	89	7	0	298	0
"2013-11-13"	2	15003	7	3	6	90	12	0	260	0
"2013-11-13"	2	15003	7	3	6	91	3	0	225	0
"2013-11-13"	2	15003	7	3	6	92	15	0	215	0
"2013-11-13"	2	15003	7	3	6	93	6	1	238	0
"2013-11-13"	2	15003	7	3	6	94	4	1	340	0
"2013-11-13"	2	15003	7	3	6	95	14	0	238	0
"2013-11-13"	2	15003	7	3	6	96	2	0	251	0
"2013-11-13"	2	15003	7	3	7	97	11	1	352	0
"2013-11-13"	2	15003	7	3	7	98	12	0	234	0
"2013-11-13"	2	15003	7	3	7	99	13	0	296	0
"2013-11-13"	2	15003	7	3	7	100	5	0	811	0
"2013-11-13"	2	15003	7	3	7	101	4	1	232	0
"2013-11-13"	2	15003	7	3	7	102	9	1	206	0
"2013-11-13"	2	15003	7	3	7	103	1	1	405	0
"2013-11-13"	2	15003	7	3	7	104	14	0	244	0
"2013-11-13"	2	15003	7	3	7	105	7	0	321	0
"2013-11-13"	2	15003	7	3	7	106	10	0	227	0
"2013-11-13"	2	15003	7	3	7	107	2	0	234	0
"2013-11-13"	2	15003	7	3	7	108	15	0	263	0
"2013-11-13"	2	15003	7	3	7	109	6	1	555	0
"2013-11-13"	2	15003	7	3	7	110	16	1	260	0
"2013-11-13"	2	15003	7	3	7	111	3	0	521	0
"2013-11-13"	2	15003	7	3	7	112	8	0	274	0
"2013-11-13"	2	15003	7	3	8	113	3	1	358	0
"2013-11-13"	2	15003	7	3	8	114	6	1	287	0
"2013-11-13"	2	15003	7	3	8	115	10	0	362	0
"2013-11-13"	2	15003	7	3	8	116	13	1	251	0
"2013-11-13"	2	15003	7	3	8	117	8	0	544	0
"2013-11-13"	2	15003	7	3	8	118	2	0	321	0
"2013-11-13"	2	15003	7	3	8	119	14	0	347	0
"2013-11-13"	2	15003	7	3	8	120	9	1	315	0
"2013-11-13"	2	15003	7	3	8	121	15	0	478	0
"2013-11-13"	2	15003	7	3	8	122	12	0	521	0
"2013-11-13"	2	15003	7	3	8	123	16	1	451	0
"2013-11-13"	2	15003	7	3	8	124	11	1	264	0
"2013-11-13"	2	15003	7	3	8	125	5	0	317	0
"2013-11-13"	2	15003	7	3	8	126	4	1	238	0
"2013-11-13"	2	15003	7	3	8	127	1	1	212	0
"2013-11-13"	2	15003	7	3	8	128	7	0	187	0
"2013-11-13"	2	15004	10	2	1	1	3	1	0	0
"2013-11-13"	2	15004	10	2	1	2	5	1	0	0
"2013-11-13"	2	15004	10	2	1	3	7	1	0	0
"2013-11-13"	2	15004	10	2	1	4	1	1	0	0
"2013-11-13"	2	15004	10	2	1	5	4	1	0	0
"2013-11-13"	2	15004	10	2	1	6	2	1	0	0
"2013-11-13"	2	15004	10	2	1	7	6	1	0	0
"2013-11-13"	2	15004	10	2	1	8	8	1	0	0
"2013-11-13"	2	15004	10	2	2	9	7	1	0	0
"2013-11-13"	2	15004	10	2	2	10	4	1	0	0
"2013-11-13"	2	15004	10	2	2	11	6	1	0	0
"2013-11-13"	2	15004	10	2	2	12	2	1	0	0
"2013-11-13"	2	15004	10	2	2	13	1	1	0	0
"2013-11-13"	2	15004	10	2	2	14	8	1	0	0
"2013-11-13"	2	15004	10	2	2	15	5	1	0	0
"2013-11-13"	2	15004	10	2	2	16	3	1	0	0
"2013-11-13"	2	15004	10	2	3	17	4	1	0	0
"2013-11-13"	2	15004	10	2	3	18	5	1	0	0
"2013-11-13"	2	15004	10	2	3	19	8	1	0	0
"2013-11-13"	2	15004	10	2	3	20	2	1	0	0
"2013-11-13"	2	15004	10	2	3	21	7	1	0	0
"2013-11-13"	2	15004	10	2	3	22	6	1	0	0
"2013-11-13"	2	15004	10	2	3	23	1	1	0	0
"2013-11-13"	2	15004	10	2	3	24	3	1	0	0
"2013-11-13"	2	15004	10	3	1	1	13	1	0	0
"2013-11-13"	2	15004	10	3	1	2	3	1	289	0
"2013-11-13"	2	15004	10	3	1	3	9	0	269	0
"2013-11-13"	2	15004	10	3	1	4	15	0	274	0
"2013-11-13"	2	15004	10	3	1	5	6	0	230	0
"2013-11-13"	2	15004	10	3	1	6	14	1	259	0
"2013-11-13"	2	15004	10	3	1	7	16	1	263	0
"2013-11-13"	2	15004	10	3	1	8	1	1	292	0
"2013-11-13"	2	15004	10	3	1	9	2	1	279	0
"2013-11-13"	2	15004	10	3	1	10	5	0	259	0
"2013-11-13"	2	15004	10	3	1	11	8	0	280	0
"2013-11-13"	2	15004	10	3	1	12	12	1	307	0
"2013-11-13"	2	15004	10	3	1	13	11	0	237	0
"2013-11-13"	2	15004	10	3	1	14	4	1	252	0
"2013-11-13"	2	15004	10	3	1	15	10	1	273	0
"2013-11-13"	2	15004	10	3	1	16	7	0	342	0
"2013-11-13"	2	15004	10	3	2	17	1	1	294	0
"2013-11-13"	2	15004	10	3	2	18	10	1	282	0
"2013-11-13"	2	15004	10	3	2	19	13	0	278	0
"2013-11-13"	2	15004	10	3	2	20	9	0	322	0
"2013-11-13"	2	15004	10	3	2	21	15	0	468	0
"2013-11-13"	2	15004	10	3	2	22	7	0	272	0
"2013-11-13"	2	15004	10	3	2	23	14	1	220	0
"2013-11-13"	2	15004	10	3	2	24	8	0	298	0
"2013-11-13"	2	15004	10	3	2	25	5	0	237	0
"2013-11-13"	2	15004	10	3	2	26	6	0	348	0
"2013-11-13"	2	15004	10	3	2	27	16	1	309	0
"2013-11-13"	2	15004	10	3	2	28	11	0	279	0
"2013-11-13"	2	15004	10	3	2	29	12	1	226	0
"2013-11-13"	2	15004	10	3	2	30	4	1	240	0
"2013-11-13"	2	15004	10	3	2	31	2	1	222	0
"2013-11-13"	2	15004	10	3	2	32	3	1	229	0
"2013-11-13"	2	15004	10	3	3	33	14	1	251	0
"2013-11-13"	2	15004	10	3	3	34	5	0	255	0
"2013-11-13"	2	15004	10	3	3	35	8	0	284	0
"2013-11-13"	2	15004	10	3	3	36	2	1	288	0
"2013-11-13"	2	15004	10	3	3	37	10	1	292	0
"2013-11-13"	2	15004	10	3	3	38	11	0	288	0
"2013-11-13"	2	15004	10	3	3	39	16	1	308	0
"2013-11-13"	2	15004	10	3	3	40	4	1	277	0
"2013-11-13"	2	15004	10	3	3	41	6	0	313	0
"2013-11-13"	2	15004	10	3	3	42	1	1	324	0
"2013-11-13"	2	15004	10	3	3	43	9	0	318	0
"2013-11-13"	2	15004	10	3	3	44	7	0	961	0
"2013-11-13"	2	15004	10	3	3	45	3	1	231	0
"2013-11-13"	2	15004	10	3	3	46	12	1	381	0
"2013-11-13"	2	15004	10	3	3	47	15	0	268	0
"2013-11-13"	2	15004	10	3	3	48	13	0	289	0
"2013-11-13"	2	15004	10	3	4	49	11	0	309	0
"2013-11-13"	2	15004	10	3	4	50	5	0	263	0
"2013-11-13"	2	15004	10	3	4	51	3	1	412	0
"2013-11-13"	2	15004	10	3	4	52	7	0	457	0
"2013-11-13"	2	15004	10	3	4	53	13	0	309	0
"2013-11-13"	2	15004	10	3	4	54	4	1	248	0
"2013-11-13"	2	15004	10	3	4	55	2	1	285	0
"2013-11-13"	2	15004	10	3	4	56	16	1	409	0
"2013-11-13"	2	15004	10	3	4	57	1	1	431	0
"2013-11-13"	2	15004	10	3	4	58	6	0	300	0
"2013-11-13"	2	15004	10	3	4	59	10	1	343	0
"2013-11-13"	2	15004	10	3	4	60	12	0	833	0
"2013-11-13"	2	15004	10	3	4	61	15	0	301	0
"2013-11-13"	2	15004	10	3	4	62	14	1	391	0
"2013-11-13"	2	15004	10	3	4	63	9	0	294	0
"2013-11-13"	2	15004	10	3	4	64	8	0	321	0
"2013-11-13"	2	15004	10	3	5	65	13	0	356	0
"2013-11-13"	2	15004	10	3	5	66	2	1	365	0
"2013-11-13"	2	15004	10	3	5	67	9	0	341	0
"2013-11-13"	2	15004	10	3	5	68	10	1	382	0
"2013-11-13"	2	15004	10	3	5	69	16	1	278	0
"2013-11-13"	2	15004	10	3	5	70	3	1	298	0
"2013-11-13"	2	15004	10	3	5	71	6	0	509	0
"2013-11-13"	2	15004	10	3	5	72	15	0	327	0
"2013-11-13"	2	15004	10	3	5	73	14	1	313	0
"2013-11-13"	2	15004	10	3	5	74	1	1	402	0
"2013-11-13"	2	15004	10	3	5	75	8	0	433	0
"2013-11-13"	2	15004	10	3	5	76	7	0	351	0
"2013-11-13"	2	15004	10	3	5	77	5	0	592	0
"2013-11-13"	2	15004	10	3	5	78	11	0	302	0
"2013-11-13"	2	15004	10	3	5	79	12	1	313	0
"2013-11-13"	2	15004	10	3	5	80	4	1	379	0
"2013-11-13"	2	15004	10	3	6	81	5	0	491	0
"2013-11-13"	2	15004	10	3	6	82	1	1	470	0
"2013-11-13"	2	15004	10	3	6	83	11	0	330	0
"2013-11-13"	2	15004	10	3	6	84	13	0	331	0
"2013-11-13"	2	15004	10	3	6	85	4	1	325	0
"2013-11-13"	2	15004	10	3	6	86	12	1	495	0
"2013-11-13"	2	15004	10	3	6	87	8	0	338	0
"2013-11-13"	2	15004	10	3	6	88	9	0	627	0
"2013-11-13"	2	15004	10	3	6	89	7	0	328	0
"2013-11-13"	2	15004	10	3	6	90	16	1	313	0
"2013-11-13"	2	15004	10	3	6	91	15	0	420	0
"2013-11-13"	2	15004	10	3	6	92	3	1	354	0
"2013-11-13"	2	15004	10	3	6	93	2	1	315	0
"2013-11-13"	2	15004	10	3	6	94	14	1	470	0
"2013-11-13"	2	15004	10	3	6	95	10	1	361	0
"2013-11-13"	2	15004	10	3	6	96	6	0	329	0
"2013-11-13"	2	15004	10	3	7	97	10	1	579	0
"2013-11-13"	2	15004	10	3	7	98	15	0	330	0
"2013-11-13"	2	15004	10	3	7	99	2	1	292	0
"2013-11-13"	2	15004	10	3	7	100	4	1	311	0
"2013-11-13"	2	15004	10	3	7	101	7	0	265	0
"2013-11-13"	2	15004	10	3	7	102	9	0	277	0
"2013-11-13"	2	15004	10	3	7	103	3	1	449	0
"2013-11-13"	2	15004	10	3	7	104	16	1	414	0
"2013-11-13"	2	15004	10	3	7	105	12	1	396	0
"2013-11-13"	2	15004	10	3	7	106	5	0	274	0
"2013-11-13"	2	15004	10	3	7	107	13	0	286	0
"2013-11-13"	2	15004	10	3	7	108	14	1	314	0
"2013-11-13"	2	15004	10	3	7	109	6	0	453	0
"2013-11-13"	2	15004	10	3	7	110	11	0	482	0
"2013-11-13"	2	15004	10	3	7	111	1	1	317	0
"2013-11-13"	2	15004	10	3	7	112	8	0	286	0
"2013-11-13"	2	15004	10	3	8	113	15	0	330	0
"2013-11-13"	2	15004	10	3	8	114	14	1	340	0
"2013-11-13"	2	15004	10	3	8	115	6	0	334	0
"2013-11-13"	2	15004	10	3	8	116	2	1	616	0
"2013-11-13"	2	15004	10	3	8	117	11	0	373	0
"2013-11-13"	2	15004	10	3	8	118	1	1	301	0
"2013-11-13"	2	15004	10	3	8	119	3	1	232	0
"2013-11-13"	2	15004	10	3	8	120	13	0	286	0
"2013-11-13"	2	15004	10	3	8	121	16	1	378	0
"2013-11-13"	2	15004	10	3	8	122	8	0	610	0
"2013-11-13"	2	15004	10	3	8	123	7	0	328	0
"2013-11-13"	2	15004	10	3	8	124	5	0	360	0
"2013-11-13"	2	15004	10	3	8	125	12	1	361	0
"2013-11-13"	2	15004	10	3	8	126	4	1	209	0
"2013-11-13"	2	15004	10	3	8	127	9	0	232	0
"2013-11-13"	2	15004	10	3	8	128	10	1	214	0
"2013-11-13"	2	15005	13	2	1	1	7	1	0	0
"2013-11-13"	2	15005	13	2	1	2	3	1	0	0
"2013-11-13"	2	15005	13	2	1	3	5	1	0	0
"2013-11-13"	2	15005	13	2	1	4	4	1	0	0
"2013-11-13"	2	15005	13	2	1	5	8	1	0	0
"2013-11-13"	2	15005	13	2	1	6	1	1	0	0
"2013-11-13"	2	15005	13	2	1	7	2	1	0	0
"2013-11-13"	2	15005	13	2	1	8	6	1	0	0
"2013-11-13"	2	15005	13	2	2	9	5	1	0	0
"2013-11-13"	2	15005	13	2	2	10	6	1	0	0
"2013-11-13"	2	15005	13	2	2	11	2	1	0	0
"2013-11-13"	2	15005	13	2	2	12	4	1	0	0
"2013-11-13"	2	15005	13	2	2	13	7	1	0	0
"2013-11-13"	2	15005	13	2	2	14	8	1	0	0
"2013-11-13"	2	15005	13	2	2	15	1	1	0	0
"2013-11-13"	2	15005	13	2	2	16	3	1	0	0
"2013-11-13"	2	15005	13	2	3	17	1	1	0	0
"2013-11-13"	2	15005	13	2	3	18	2	1	0	0
"2013-11-13"	2	15005	13	2	3	19	3	1	0	0
"2013-11-13"	2	15005	13	2	3	20	4	1	0	0
"2013-11-13"	2	15005	13	2	3	21	7	1	0	0
"2013-11-13"	2	15005	13	2	3	22	6	1	0	0
"2013-11-13"	2	15005	13	2	3	23	8	1	0	0
"2013-11-13"	2	15005	13	2	3	24	5	1	0	0
"2013-11-13"	2	15005	13	3	1	1	14	1	0	0
"2013-11-13"	2	15005	13	3	1	2	4	0	1479	0
"2013-11-13"	2	15005	13	3	1	3	8	0	1079	0
"2013-11-13"	2	15005	13	3	1	4	9	0	848	0
"2013-11-13"	2	15005	13	3	1	5	6	0	340	0
"2013-11-13"	2	15005	13	3	1	6	15	1	414	0
"2013-11-13"	2	15005	13	3	1	7	1	0	596	0
"2013-11-13"	2	15005	13	3	1	8	13	0	417	0
"2013-11-13"	2	15005	13	3	1	9	11	1	359	0
"2013-11-13"	2	15005	13	3	1	10	16	1	480	0
"2013-11-13"	2	15005	13	3	1	11	12	1	1339	0
"2013-11-13"	2	15005	13	3	1	12	10	0	546	0
"2013-11-13"	2	15005	13	3	1	13	3	1	146	0
"2013-11-13"	2	15005	13	3	1	14	7	0	332	0
"2013-11-13"	2	15005	13	3	1	15	2	1	550	0
"2013-11-13"	2	15005	13	3	1	16	5	0	261	0
"2013-11-13"	2	15005	13	3	2	17	15	1	114	0
"2013-11-13"	2	15005	13	3	2	18	7	0	277	0
"2013-11-13"	2	15005	13	3	2	19	5	0	473	0
"2013-11-13"	2	15005	13	3	2	20	4	1	533	0
"2013-11-13"	2	15005	13	3	2	21	14	1	470	0
"2013-11-13"	2	15005	13	3	2	22	6	0	394	0
"2013-11-13"	2	15005	13	3	2	23	2	1	369	0
"2013-11-13"	2	15005	13	3	2	24	3	1	353	0
"2013-11-13"	2	15005	13	3	2	25	9	0	498	0
"2013-11-13"	2	15005	13	3	2	26	16	0	460	0
"2013-11-13"	2	15005	13	3	2	27	13	1	480	0
"2013-11-13"	2	15005	13	3	2	28	8	1	699	0
"2013-11-13"	2	15005	13	3	2	29	12	1	381	0
"2013-11-13"	2	15005	13	3	2	30	1	1	357	0
"2013-11-13"	2	15005	13	3	2	31	10	0	374	0
"2013-11-13"	2	15005	13	3	2	32	11	0	318	0
"2013-11-13"	2	15005	13	3	3	33	2	1	392	0
"2013-11-13"	2	15005	13	3	3	34	11	0	319	0
"2013-11-13"	2	15005	13	3	3	35	8	0	705	0
"2013-11-13"	2	15005	13	3	3	36	6	0	371	0
"2013-11-13"	2	15005	13	3	3	37	16	0	395	0
"2013-11-13"	2	15005	13	3	3	38	15	0	378	0
"2013-11-13"	2	15005	13	3	3	39	10	0	346	0
"2013-11-13"	2	15005	13	3	3	40	5	0	459	0
"2013-11-13"	2	15005	13	3	3	41	1	1	343	0
"2013-11-13"	2	15005	13	3	3	42	12	1	376	0
"2013-11-13"	2	15005	13	3	3	43	4	0	407	0
"2013-11-13"	2	15005	13	3	3	44	9	0	653	0
"2013-11-13"	2	15005	13	3	3	45	13	0	281	0
"2013-11-13"	2	15005	13	3	3	46	3	1	309	0
"2013-11-13"	2	15005	13	3	3	47	14	0	296	0
"2013-11-13"	2	15005	13	3	3	48	7	0	275	0
"2013-11-13"	2	15005	13	3	4	49	1	1	359	0
"2013-11-13"	2	15005	13	3	4	50	5	0	319	0
"2013-11-13"	2	15005	13	3	4	51	13	0	370	0
"2013-11-13"	2	15005	13	3	4	52	6	0	322	0
"2013-11-13"	2	15005	13	3	4	53	7	0	323	0
"2013-11-13"	2	15005	13	3	4	54	2	1	310	0
"2013-11-13"	2	15005	13	3	4	55	4	0	264	0
"2013-11-13"	2	15005	13	3	4	56	8	0	349	0
"2013-11-13"	2	15005	13	3	4	57	12	1	342	0
"2013-11-13"	2	15005	13	3	4	58	15	0	399	0
"2013-11-13"	2	15005	13	3	4	59	9	0	430	0
"2013-11-13"	2	15005	13	3	4	60	16	0	387	0
"2013-11-13"	2	15005	13	3	4	61	11	0	371	0
"2013-11-13"	2	15005	13	3	4	62	3	1	354	0
"2013-11-13"	2	15005	13	3	4	63	10	0	307	0
"2013-11-13"	2	15005	13	3	4	64	14	0	286	0
"2013-11-13"	2	15005	13	3	5	65	12	1	354	0
"2013-11-13"	2	15005	13	3	5	66	14	0	323	0
"2013-11-13"	2	15005	13	3	5	67	15	1	397	0
"2013-11-13"	2	15005	13	3	5	68	2	1	324	0
"2013-11-13"	2	15005	13	3	5	69	5	0	303	0
"2013-11-13"	2	15005	13	3	5	70	1	1	322	0
"2013-11-13"	2	15005	13	3	5	71	9	1	307	0
"2013-11-13"	2	15005	13	3	5	72	6	0	286	0
"2013-11-13"	2	15005	13	3	5	73	4	0	274	0
"2013-11-13"	2	15005	13	3	5	74	11	0	366	0
"2013-11-13"	2	15005	13	3	5	75	16	0	358	0
"2013-11-13"	2	15005	13	3	5	76	7	0	319	0
"2013-11-13"	2	15005	13	3	5	77	8	1	569	0
"2013-11-13"	2	15005	13	3	5	78	10	0	297	0
"2013-11-13"	2	15005	13	3	5	79	13	0	956	0
"2013-11-13"	2	15005	13	3	5	80	3	1	316	0
"2013-11-13"	2	15005	13	3	6	81	10	0	253	0
"2013-11-13"	2	15005	13	3	6	82	2	1	290	0
"2013-11-13"	2	15005	13	3	6	83	6	0	374	0
"2013-11-13"	2	15005	13	3	6	84	14	0	374	0
"2013-11-13"	2	15005	13	3	6	85	1	1	286	0
"2013-11-13"	2	15005	13	3	6	86	7	0	274	0
"2013-11-13"	2	15005	13	3	6	87	12	1	278	0
"2013-11-13"	2	15005	13	3	6	88	5	0	354	0
"2013-11-13"	2	15005	13	3	6	89	8	0	499	0
"2013-11-13"	2	15005	13	3	6	90	11	0	437	0
"2013-11-13"	2	15005	13	3	6	91	4	0	506	0
"2013-11-13"	2	15005	13	3	6	92	16	0	293	0
"2013-11-13"	2	15005	13	3	6	93	15	1	416	0
"2013-11-13"	2	15005	13	3	6	94	3	1	414	0
"2013-11-13"	2	15005	13	3	6	95	9	1	436	0
"2013-11-13"	2	15005	13	3	6	96	13	1	322	0
"2013-11-13"	2	15005	13	3	7	97	16	1	364	0
"2013-11-13"	2	15005	13	3	7	98	5	0	76	0
"2013-11-13"	2	15005	13	3	7	99	11	0	312	0
"2013-11-13"	2	15005	13	3	7	100	3	1	346	0
"2013-11-13"	2	15005	13	3	7	101	15	0	299	0
"2013-11-13"	2	15005	13	3	7	102	7	0	311	0
"2013-11-13"	2	15005	13	3	7	103	13	0	273	0
"2013-11-13"	2	15005	13	3	7	104	10	0	493	0
"2013-11-13"	2	15005	13	3	7	105	6	0	368	0
"2013-11-13"	2	15005	13	3	7	106	9	0	440	0
"2013-11-13"	2	15005	13	3	7	107	4	0	389	0
"2013-11-13"	2	15005	13	3	7	108	2	1	355	0
"2013-11-13"	2	15005	13	3	7	109	12	1	308	0
"2013-11-13"	2	15005	13	3	7	110	14	0	351	0
"2013-11-13"	2	15005	13	3	7	111	8	0	336	0
"2013-11-13"	2	15005	13	3	7	112	1	1	321	0
"2013-11-13"	2	15005	13	3	8	113	15	0	283	0
"2013-11-13"	2	15005	13	3	8	114	11	0	351	0
"2013-11-13"	2	15005	13	3	8	115	8	0	360	0
"2013-11-13"	2	15005	13	3	8	116	13	0	313	0
"2013-11-13"	2	15005	13	3	8	117	6	0	19	0
"2013-11-13"	2	15005	13	3	8	118	1	1	257	0
"2013-11-13"	2	15005	13	3	8	119	16	0	262	0
"2013-11-13"	2	15005	13	3	8	120	5	0	339	0
"2013-11-13"	2	15005	13	3	8	121	2	1	244	0
"2013-11-13"	2	15005	13	3	8	122	7	0	266	0
"2013-11-13"	2	15005	13	3	8	123	9	1	374	0
"2013-11-13"	2	15005	13	3	8	124	10	0	271	0
"2013-11-13"	2	15005	13	3	8	125	3	1	331	0
"2013-11-13"	2	15005	13	3	8	126	4	0	325	0
"2013-11-13"	2	15005	13	3	8	127	14	0	574	0
"2013-11-13"	2	15005	13	3	8	128	12	1	77	0
"2013-11-13"	2	15006	16	2	1	1	8	1	0	0
"2013-11-13"	2	15006	16	2	1	2	5	1	0	0
"2013-11-13"	2	15006	16	2	1	3	1	1	0	0
"2013-11-13"	2	15006	16	2	1	4	4	1	0	0
"2013-11-13"	2	15006	16	2	1	5	6	1	0	0
"2013-11-13"	2	15006	16	2	1	6	2	1	0	0
"2013-11-13"	2	15006	16	2	1	7	7	1	0	0
"2013-11-13"	2	15006	16	2	1	8	3	1	0	0
"2013-11-13"	2	15006	16	2	2	9	4	1	0	0
"2013-11-13"	2	15006	16	2	2	10	2	1	0	0
"2013-11-13"	2	15006	16	2	2	11	3	1	0	0
"2013-11-13"	2	15006	16	2	2	12	5	1	0	0
"2013-11-13"	2	15006	16	2	2	13	7	1	0	0
"2013-11-13"	2	15006	16	2	2	14	6	1	0	0
"2013-11-13"	2	15006	16	2	2	15	1	1	0	0
"2013-11-13"	2	15006	16	2	2	16	8	1	0	0
"2013-11-13"	2	15006	16	2	3	17	6	1	0	0
"2013-11-13"	2	15006	16	2	3	18	1	1	0	0
"2013-11-13"	2	15006	16	2	3	19	4	1	0	0
"2013-11-13"	2	15006	16	2	3	20	3	1	0	0
"2013-11-13"	2	15006	16	2	3	21	7	1	0	0
"2013-11-13"	2	15006	16	2	3	22	5	1	0	0
"2013-11-13"	2	15006	16	2	3	23	8	1	0	0
"2013-11-13"	2	15006	16	2	3	24	2	1	0	0
"2013-11-13"	2	15006	16	3	1	1	1	1	1689	0
"2013-11-13"	2	15006	16	3	1	2	5	0	225	0
"2013-11-13"	2	15006	16	3	1	3	16	1	263	0
"2013-11-13"	2	15006	16	3	1	4	9	0	396	0
"2013-11-13"	2	15006	16	3	1	5	2	1	267	0
"2013-11-13"	2	15006	16	3	1	6	7	0	302	0
"2013-11-13"	2	15006	16	3	1	7	13	0	986	0
"2013-11-13"	2	15006	16	3	1	8	3	1	552	0
"2013-11-13"	2	15006	16	3	1	9	10	1	496	0
"2013-11-13"	2	15006	16	3	1	10	8	0	363	0
"2013-11-13"	2	15006	16	3	1	11	6	0	323	0
"2013-11-13"	2	15006	16	3	1	12	11	0	708	0
"2013-11-13"	2	15006	16	3	1	13	12	1	597	0
"2013-11-13"	2	15006	16	3	1	14	15	0	500	0
"2013-11-13"	2	15006	16	3	1	15	14	1	574	0
"2013-11-13"	2	15006	16	3	1	16	4	1	565	0
"2013-11-13"	2	15006	16	3	2	17	11	0	508	0
"2013-11-13"	2	15006	16	3	2	18	3	1	310	0
"2013-11-13"	2	15006	16	3	2	19	9	0	553	0
"2013-11-13"	2	15006	16	3	2	20	15	0	441	0
"2013-11-13"	2	15006	16	3	2	21	7	0	334	0
"2013-11-13"	2	15006	16	3	2	22	5	0	263	0
"2013-11-13"	2	15006	16	3	2	23	6	0	588	0
"2013-11-13"	2	15006	16	3	2	24	10	1	395	0
"2013-11-13"	2	15006	16	3	2	25	1	1	546	0
"2013-11-13"	2	15006	16	3	2	26	8	0	842	0
"2013-11-13"	2	15006	16	3	2	27	2	1	558	0
"2013-11-13"	2	15006	16	3	2	28	14	1	373	0
"2013-11-13"	2	15006	16	3	2	29	4	1	341	0
"2013-11-13"	2	15006	16	3	2	30	13	0	526	0
"2013-11-13"	2	15006	16	3	2	31	16	1	231	0
"2013-11-13"	2	15006	16	3	2	32	12	1	957	0
"2013-11-13"	2	15006	16	3	3	33	13	0	547	0
"2013-11-13"	2	15006	16	3	3	34	5	0	716	0
"2013-11-13"	2	15006	16	3	3	35	9	0	709	0
"2013-11-13"	2	15006	16	3	3	36	11	0	382	0
"2013-11-13"	2	15006	16	3	3	37	14	1	406	0
"2013-11-13"	2	15006	16	3	3	38	15	0	229	0
"2013-11-13"	2	15006	16	3	3	39	2	1	290	0
"2013-11-13"	2	15006	16	3	3	40	7	0	237	0
"2013-11-13"	2	15006	16	3	3	41	16	1	843	0
"2013-11-13"	2	15006	16	3	3	42	6	0	847	0
"2013-11-13"	2	15006	16	3	3	43	3	1	363	0
"2013-11-13"	2	15006	16	3	3	44	10	1	594	0
"2013-11-13"	2	15006	16	3	3	45	8	0	472	0
"2013-11-13"	2	15006	16	3	3	46	4	1	284	0
"2013-11-13"	2	15006	16	3	3	47	12	1	448	0
"2013-11-13"	2	15006	16	3	3	48	1	1	701	0
"2013-11-13"	2	15006	16	3	4	49	5	0	230	0
"2013-11-13"	2	15006	16	3	4	50	12	1	228	0
"2013-11-13"	2	15006	16	3	4	51	11	0	250	0
"2013-11-13"	2	15006	16	3	4	52	8	0	831	0
"2013-11-13"	2	15006	16	3	4	53	7	0	316	0
"2013-11-13"	2	15006	16	3	4	54	16	1	286	0
"2013-11-13"	2	15006	16	3	4	55	2	1	297	0
"2013-11-13"	2	15006	16	3	4	56	9	0	468	0
"2013-11-13"	2	15006	16	3	4	57	13	0	825	0
"2013-11-13"	2	15006	16	3	4	58	14	1	966	0
"2013-11-13"	2	15006	16	3	4	59	1	1	356	0
"2013-11-13"	2	15006	16	3	4	60	15	0	468	0
"2013-11-13"	2	15006	16	3	4	61	6	0	376	0
"2013-11-13"	2	15006	16	3	4	62	4	1	264	0
"2013-11-13"	2	15006	16	3	4	63	3	1	717	0
"2013-11-13"	2	15006	16	3	4	64	10	1	246	0
"2013-11-13"	2	15006	16	3	5	65	2	1	259	0
"2013-11-13"	2	15006	16	3	5	66	4	1	591	0
"2013-11-13"	2	15006	16	3	5	67	16	1	414	0
"2013-11-13"	2	15006	16	3	5	68	9	0	364	0
"2013-11-13"	2	15006	16	3	5	69	3	1	236	0
"2013-11-13"	2	15006	16	3	5	70	5	0	586	0
"2013-11-13"	2	15006	16	3	5	71	8	0	896	0
"2013-11-13"	2	15006	16	3	5	72	15	0	586	0
"2013-11-13"	2	15006	16	3	5	73	6	0	553	0
"2013-11-13"	2	15006	16	3	5	74	13	0	266	0
"2013-11-13"	2	15006	16	3	5	75	7	0	302	0
"2013-11-13"	2	15006	16	3	5	76	14	1	240	0
"2013-11-13"	2	15006	16	3	5	77	1	1	462	0
"2013-11-13"	2	15006	16	3	5	78	10	1	370	0
"2013-11-13"	2	15006	16	3	5	79	11	0	962	0
"2013-11-13"	2	15006	16	3	5	80	12	1	305	0
"2013-11-13"	2	15006	16	3	6	81	7	0	244	0
"2013-11-13"	2	15006	16	3	6	82	13	0	217	0
"2013-11-13"	2	15006	16	3	6	83	1	1	215	0
"2013-11-13"	2	15006	16	3	6	84	15	0	206	0
"2013-11-13"	2	15006	16	3	6	85	12	1	350	0
"2013-11-13"	2	15006	16	3	6	86	6	0	287	0
"2013-11-13"	2	15006	16	3	6	87	2	1	218	0
"2013-11-13"	2	15006	16	3	6	88	9	0	41	0
"2013-11-13"	2	15006	16	3	6	89	8	0	271	0
"2013-11-13"	2	15006	16	3	6	90	11	0	204	0
"2013-11-13"	2	15006	16	3	6	91	14	1	195	0
"2013-11-13"	2	15006	16	3	6	92	10	1	363	0
"2013-11-13"	2	15006	16	3	6	93	5	0	451	0
"2013-11-13"	2	15006	16	3	6	94	3	1	319	0
"2013-11-13"	2	15006	16	3	6	95	16	1	337	0
"2013-11-13"	2	15006	16	3	6	96	4	1	267	0
"2013-11-13"	2	15006	16	3	7	97	10	1	384	0
"2013-11-13"	2	15006	16	3	7	98	7	0	400	0
"2013-11-13"	2	15006	16	3	7	99	9	0	294	0
"2013-11-13"	2	15006	16	3	7	100	6	0	521	0
"2013-11-13"	2	15006	16	3	7	101	4	1	275	0
"2013-11-13"	2	15006	16	3	7	102	5	0	727	0
"2013-11-13"	2	15006	16	3	7	103	13	0	263	0
"2013-11-13"	2	15006	16	3	7	104	12	1	315	0
"2013-11-13"	2	15006	16	3	7	105	16	1	286	0
"2013-11-13"	2	15006	16	3	7	106	2	1	378	0
"2013-11-13"	2	15006	16	3	7	107	14	1	273	0
"2013-11-13"	2	15006	16	3	7	108	15	0	813	0
"2013-11-13"	2	15006	16	3	7	109	1	1	1177	0
"2013-11-13"	2	15006	16	3	7	110	11	0	1631	0
"2013-11-13"	2	15006	16	3	7	111	8	0	481	0
"2013-11-13"	2	15006	16	3	7	112	3	1	300	0
"2013-11-13"	2	15006	16	3	8	113	14	1	511	0
"2013-11-13"	2	15006	16	3	8	114	13	0	313	0
"2013-11-13"	2	15006	16	3	8	115	8	0	283	0
"2013-11-13"	2	15006	16	3	8	116	7	0	559	0
"2013-11-13"	2	15006	16	3	8	117	1	1	694	0
"2013-11-13"	2	15006	16	3	8	118	3	1	272	0
"2013-11-13"	2	15006	16	3	8	119	11	0	533	0
"2013-11-13"	2	15006	16	3	8	120	6	0	310	0
"2013-11-13"	2	15006	16	3	8	121	10	1	328	0
"2013-11-13"	2	15006	16	3	8	122	16	1	322	0
"2013-11-13"	2	15006	16	3	8	123	9	0	276	0
"2013-11-13"	2	15006	16	3	8	124	4	1	216	0
"2013-11-13"	2	15006	16	3	8	125	5	0	479	0
"2013-11-13"	2	15006	16	3	8	126	2	1	266	0
"2013-11-13"	2	15006	16	3	8	127	12	1	294	0
"2013-11-13"	2	15006	16	3	8	128	15	0	1457	0
"2013-11-13"	2	15007	3	2	1	1	7	1	0	0
"2013-11-13"	2	15007	3	2	1	2	2	1	0	0
"2013-11-13"	2	15007	3	2	1	3	4	1	0	0
"2013-11-13"	2	15007	3	2	1	4	8	1	0	0
"2013-11-13"	2	15007	3	2	1	5	3	1	0	0
"2013-11-13"	2	15007	3	2	1	6	5	1	0	0
"2013-11-13"	2	15007	3	2	1	7	6	1	0	0
"2013-11-13"	2	15007	3	2	1	8	1	1	0	0
"2013-11-13"	2	15007	3	2	2	9	2	1	0	0
"2013-11-13"	2	15007	3	2	2	10	8	1	0	0
"2013-11-13"	2	15007	3	2	2	11	3	1	0	0
"2013-11-13"	2	15007	3	2	2	12	5	1	0	0
"2013-11-13"	2	15007	3	2	2	13	1	1	0	0
"2013-11-13"	2	15007	3	2	2	14	4	1	0	0
"2013-11-13"	2	15007	3	2	2	15	7	1	0	0
"2013-11-13"	2	15007	3	2	2	16	6	1	0	0
"2013-11-13"	2	15007	3	2	3	17	2	1	0	0
"2013-11-13"	2	15007	3	2	3	18	5	1	0	0
"2013-11-13"	2	15007	3	2	3	19	6	1	0	0
"2013-11-13"	2	15007	3	2	3	20	4	1	0	0
"2013-11-13"	2	15007	3	2	3	21	1	1	0	0
"2013-11-13"	2	15007	3	2	3	22	3	1	0	0
"2013-11-13"	2	15007	3	2	3	23	7	1	0	0
"2013-11-13"	2	15007	3	2	3	24	8	1	0	0
"2013-11-13"	2	15007	3	3	1	1	7	0	150	0
"2013-11-13"	2	15007	3	3	1	2	2	1	607	0
"2013-11-13"	2	15007	3	3	1	3	12	1	348	0
"2013-11-13"	2	15007	3	3	1	4	8	0	357	0
"2013-11-13"	2	15007	3	3	1	5	15	0	342	0
"2013-11-13"	2	15007	3	3	1	6	9	1	423	0
"2013-11-13"	2	15007	3	3	1	7	14	1	357	0
"2013-11-13"	2	15007	3	3	1	8	1	1	278	0
"2013-11-13"	2	15007	3	3	1	9	13	0	306	0
"2013-11-13"	2	15007	3	3	1	10	4	1	283	0
"2013-11-13"	2	15007	3	3	1	11	6	0	279	0
"2013-11-13"	2	15007	3	3	1	12	5	0	251	0
"2013-11-13"	2	15007	3	3	1	13	3	1	281	0
"2013-11-13"	2	15007	3	3	1	14	11	1	877	0
"2013-11-13"	2	15007	3	3	1	15	10	1	415	0
"2013-11-13"	2	15007	3	3	1	16	16	1	292	0
"2013-11-13"	2	15007	3	3	2	17	15	1	287	0
"2013-11-13"	2	15007	3	3	2	18	10	0	323	0
"2013-11-13"	2	15007	3	3	2	19	16	1	262	0
"2013-11-13"	2	15007	3	3	2	20	1	1	386	0
"2013-11-13"	2	15007	3	3	2	21	6	1	1281	0
"2013-11-13"	2	15007	3	3	2	22	4	1	442	0
"2013-11-13"	2	15007	3	3	2	23	3	1	279	0
"2013-11-13"	2	15007	3	3	2	24	5	0	347	0
"2013-11-13"	2	15007	3	3	2	25	9	1	404	0
"2013-11-13"	2	15007	3	3	2	26	14	0	595	0
"2013-11-13"	2	15007	3	3	2	27	7	0	320	0
"2013-11-13"	2	15007	3	3	2	28	2	1	315	0
"2013-11-13"	2	15007	3	3	2	29	8	0	325	0
"2013-11-13"	2	15007	3	3	2	30	12	1	279	0
"2013-11-13"	2	15007	3	3	2	31	11	1	939	0
"2013-11-13"	2	15007	3	3	2	32	13	0	467	0
"2013-11-13"	2	15007	3	3	3	33	7	0	422	0
"2013-11-13"	2	15007	3	3	3	34	9	1	308	0
"2013-11-13"	2	15007	3	3	3	35	14	1	295	0
"2013-11-13"	2	15007	3	3	3	36	6	0	338	0
"2013-11-13"	2	15007	3	3	3	37	4	1	308	0
"2013-11-13"	2	15007	3	3	3	38	8	0	247	0
"2013-11-13"	2	15007	3	3	3	39	10	1	379	0
"2013-11-13"	2	15007	3	3	3	40	16	1	339	0
"2013-11-13"	2	15007	3	3	3	41	1	1	1788	0
"2013-11-13"	2	15007	3	3	3	42	5	0	264	0
"2013-11-13"	2	15007	3	3	3	43	11	0	973	0
"2013-11-13"	2	15007	3	3	3	44	15	1	530	0
"2013-11-13"	2	15007	3	3	3	45	12	1	1091	0
"2013-11-13"	2	15007	3	3	3	46	3	1	333	0
"2013-11-13"	2	15007	3	3	3	47	13	1	575	0
"2013-11-13"	2	15007	3	3	3	48	2	1	462	0
"2013-11-13"	2	15007	3	3	4	49	7	0	274	0
"2013-11-13"	2	15007	3	3	4	50	2	1	414	0
"2013-11-13"	2	15007	3	3	4	51	5	0	283	0
"2013-11-13"	2	15007	3	3	4	52	11	0	247	0
"2013-11-13"	2	15007	3	3	4	53	9	1	341	0
"2013-11-13"	2	15007	3	3	4	54	8	0	302	0
"2013-11-13"	2	15007	3	3	4	55	1	1	810	0
"2013-11-13"	2	15007	3	3	4	56	10	1	638	0
"2013-11-13"	2	15007	3	3	4	57	12	1	267	0
"2013-11-13"	2	15007	3	3	4	58	6	0	712	0
"2013-11-13"	2	15007	3	3	4	59	16	1	417	0
"2013-11-13"	2	15007	3	3	4	60	4	1	415	0
"2013-11-13"	2	15007	3	3	4	61	14	1	254	0
"2013-11-13"	2	15007	3	3	4	62	15	1	482	0
"2013-11-13"	2	15007	3	3	4	63	13	1	373	0
"2013-11-13"	2	15007	3	3	4	64	3	1	862	0
"2013-11-13"	2	15007	3	3	5	65	11	0	249	0
"2013-11-13"	2	15007	3	3	5	66	3	1	318	0
"2013-11-13"	2	15007	3	3	5	67	8	0	272	0
"2013-11-13"	2	15007	3	3	5	68	13	1	316	0
"2013-11-13"	2	15007	3	3	5	69	1	1	839	0
"2013-11-13"	2	15007	3	3	5	70	6	0	483	0
"2013-11-13"	2	15007	3	3	5	71	5	0	279	0
"2013-11-13"	2	15007	3	3	5	72	15	1	435	0
"2013-11-13"	2	15007	3	3	5	73	10	1	359	0
"2013-11-13"	2	15007	3	3	5	74	9	1	351	0
"2013-11-13"	2	15007	3	3	5	75	14	1	337	0
"2013-11-13"	2	15007	3	3	5	76	7	0	338	0
"2013-11-13"	2	15007	3	3	5	77	2	1	339	0
"2013-11-13"	2	15007	3	3	5	78	16	1	381	0
"2013-11-13"	2	15007	3	3	5	79	4	1	419	0
"2013-11-13"	2	15007	3	3	5	80	12	1	265	0
"2013-11-13"	2	15007	3	3	6	81	16	1	398	0
"2013-11-13"	2	15007	3	3	6	82	9	1	509	0
"2013-11-13"	2	15007	3	3	6	83	2	1	431	0
"2013-11-13"	2	15007	3	3	6	84	8	0	277	0
"2013-11-13"	2	15007	3	3	6	85	3	1	255	0
"2013-11-13"	2	15007	3	3	6	86	12	1	373	0
"2013-11-13"	2	15007	3	3	6	87	15	0	1661	0
"2013-11-13"	2	15007	3	3	6	88	5	0	231	0
"2013-11-13"	2	15007	3	3	6	89	7	0	269	0
"2013-11-13"	2	15007	3	3	6	90	4	1	417	0
"2013-11-13"	2	15007	3	3	6	91	6	0	224	0
"2013-11-13"	2	15007	3	3	6	92	1	1	277	0
"2013-11-13"	2	15007	3	3	6	93	14	1	305	0
"2013-11-13"	2	15007	3	3	6	94	13	1	276	0
"2013-11-13"	2	15007	3	3	6	95	11	0	232	0
"2013-11-13"	2	15007	3	3	6	96	10	1	214	0
"2013-11-13"	2	15007	3	3	7	97	16	1	221	0
"2013-11-13"	2	15007	3	3	7	98	15	1	299	0
"2013-11-13"	2	15007	3	3	7	99	7	0	238	0
"2013-11-13"	2	15007	3	3	7	100	12	1	444	0
"2013-11-13"	2	15007	3	3	7	101	8	0	297	0
"2013-11-13"	2	15007	3	3	7	102	5	0	364	0
"2013-11-13"	2	15007	3	3	7	103	11	0	243	0
"2013-11-13"	2	15007	3	3	7	104	4	1	289	0
"2013-11-13"	2	15007	3	3	7	105	9	1	388	0
"2013-11-13"	2	15007	3	3	7	106	6	1	292	0
"2013-11-13"	2	15007	3	3	7	107	10	1	527	0
"2013-11-13"	2	15007	3	3	7	108	2	1	416	0
"2013-11-13"	2	15007	3	3	7	109	1	1	245	0
"2013-11-13"	2	15007	3	3	7	110	13	1	355	0
"2013-11-13"	2	15007	3	3	7	111	3	1	300	0
"2013-11-13"	2	15007	3	3	7	112	14	1	247	0
"2013-11-13"	2	15007	3	3	8	113	1	0	253	0
"2013-11-13"	2	15007	3	3	8	114	15	1	1194	0
"2013-11-13"	2	15007	3	3	8	115	5	0	389	0
"2013-11-13"	2	15007	3	3	8	116	4	0	285	0
"2013-11-13"	2	15007	3	3	8	117	10	1	273	0
"2013-11-13"	2	15007	3	3	8	118	12	1	357	0
"2013-11-13"	2	15007	3	3	8	119	13	1	342	0
"2013-11-13"	2	15007	3	3	8	120	16	1	295	0
"2013-11-13"	2	15007	3	3	8	121	3	1	282	0
"2013-11-13"	2	15007	3	3	8	122	6	0	301	0
"2013-11-13"	2	15007	3	3	8	123	7	0	465	0
"2013-11-13"	2	15007	3	3	8	124	9	1	261	0
"2013-11-13"	2	15007	3	3	8	125	14	1	265	0
"2013-11-13"	2	15007	3	3	8	126	2	1	350	0
"2013-11-13"	2	15007	3	3	8	127	8	0	254	0
"2013-11-13"	2	15007	3	3	8	128	11	0	244	0
"2013-11-13"	2	15008	6	2	1	1	2	1	0	0
"2013-11-13"	2	15008	6	2	1	2	5	1	0	0
"2013-11-13"	2	15008	6	2	1	3	1	1	0	0
"2013-11-13"	2	15008	6	2	1	4	6	1	0	0
"2013-11-13"	2	15008	6	2	1	5	4	1	0	0
"2013-11-13"	2	15008	6	2	1	6	7	1	0	0
"2013-11-13"	2	15008	6	2	1	7	3	1	0	0
"2013-11-13"	2	15008	6	2	1	8	8	1	0	0
"2013-11-13"	2	15008	6	2	2	9	3	1	0	0
"2013-11-13"	2	15008	6	2	2	10	6	1	0	0
"2013-11-13"	2	15008	6	2	2	11	8	1	0	0
"2013-11-13"	2	15008	6	2	2	12	4	1	0	0
"2013-11-13"	2	15008	6	2	2	13	1	1	0	0
"2013-11-13"	2	15008	6	2	2	14	2	1	0	0
"2013-11-13"	2	15008	6	2	2	15	5	1	0	0
"2013-11-13"	2	15008	6	2	2	16	7	1	0	0
"2013-11-13"	2	15008	6	2	3	17	3	1	0	0
"2013-11-13"	2	15008	6	2	3	18	8	1	0	0
"2013-11-13"	2	15008	6	2	3	19	2	1	0	0
"2013-11-13"	2	15008	6	2	3	20	6	1	0	0
"2013-11-13"	2	15008	6	2	3	21	5	1	0	0
"2013-11-13"	2	15008	6	2	3	22	1	1	0	0
"2013-11-13"	2	15008	6	2	3	23	7	1	0	0
"2013-11-13"	2	15008	6	2	3	24	4	1	0	0
"2013-11-13"	2	15008	6	3	1	1	4	1	0	0
"2013-11-13"	2	15008	6	3	1	2	11	0	353	0
"2013-11-13"	2	15008	6	3	1	3	16	0	674	0
"2013-11-13"	2	15008	6	3	1	4	9	1	445	0
"2013-11-13"	2	15008	6	3	1	5	5	0	650	0
"2013-11-13"	2	15008	6	3	1	6	7	0	126	0
"2013-11-13"	2	15008	6	3	1	7	13	1	24	0
"2013-11-13"	2	15008	6	3	1	8	14	1	455	0
"2013-11-13"	2	15008	6	3	1	9	12	0	316	0
"2013-11-13"	2	15008	6	3	1	10	2	1	358	0
"2013-11-13"	2	15008	6	3	1	11	15	0	318	0
"2013-11-13"	2	15008	6	3	1	12	8	0	233	0
"2013-11-13"	2	15008	6	3	1	13	6	1	527	0
"2013-11-13"	2	15008	6	3	1	14	3	1	304	0
"2013-11-13"	2	15008	6	3	1	15	1	1	363	0
"2013-11-13"	2	15008	6	3	1	16	10	1	251	0
"2013-11-13"	2	15008	6	3	2	17	5	1	353	0
"2013-11-13"	2	15008	6	3	2	18	4	0	2	0
"2013-11-13"	2	15008	6	3	2	19	10	0	154	0
"2013-11-13"	2	15008	6	3	2	20	8	1	331	0
"2013-11-13"	2	15008	6	3	2	21	12	1	452	0
"2013-11-13"	2	15008	6	3	2	22	13	1	313	0
"2013-11-13"	2	15008	6	3	2	23	2	1	307	0
"2013-11-13"	2	15008	6	3	2	24	9	1	478	0
"2013-11-13"	2	15008	6	3	2	25	15	1	545	0
"2013-11-13"	2	15008	6	3	2	26	14	0	26	0
"2013-11-13"	2	15008	6	3	2	27	7	0	168	0
"2013-11-13"	2	15008	6	3	2	28	6	0	241	0
"2013-11-13"	2	15008	6	3	2	29	16	0	607	0
"2013-11-13"	2	15008	6	3	2	30	1	0	228	0
"2013-11-13"	2	15008	6	3	2	31	3	1	234	0
"2013-11-13"	2	15008	6	3	2	32	11	1	560	0
"2013-11-13"	2	15008	6	3	3	33	14	1	504	0
"2013-11-13"	2	15008	6	3	3	34	16	0	274	0
"2013-11-13"	2	15008	6	3	3	35	1	0	294	0
"2013-11-13"	2	15008	6	3	3	36	12	0	281	0
"2013-11-13"	2	15008	6	3	3	37	15	1	349	0
"2013-11-13"	2	15008	6	3	3	38	7	1	206	0
"2013-11-13"	2	15008	6	3	3	39	13	1	205	0
"2013-11-13"	2	15008	6	3	3	40	11	1	396	0
"2013-11-13"	2	15008	6	3	3	41	5	0	387	0
"2013-11-13"	2	15008	6	3	3	42	2	0	275	0
"2013-11-13"	2	15008	6	3	3	43	10	0	263	0
"2013-11-13"	2	15008	6	3	3	44	3	0	267	0
"2013-11-13"	2	15008	6	3	3	45	9	0	248	0
"2013-11-13"	2	15008	6	3	3	46	4	1	269	0
"2013-11-13"	2	15008	6	3	3	47	6	1	234	0
"2013-11-13"	2	15008	6	3	3	48	8	1	255	0
"2013-11-13"	2	15008	6	3	4	49	14	0	124	0
"2013-11-13"	2	15008	6	3	4	50	5	0	295	0
"2013-11-13"	2	15008	6	3	4	51	1	0	482	0
"2013-11-13"	2	15008	6	3	4	52	12	0	405	0
"2013-11-13"	2	15008	6	3	4	53	9	1	252	0
"2013-11-13"	2	15008	6	3	4	54	13	1	409	0
"2013-11-13"	2	15008	6	3	4	55	2	1	416	0
"2013-11-13"	2	15008	6	3	4	56	6	1	494	0
"2013-11-13"	2	15008	6	3	4	57	3	1	439	0
"2013-11-13"	2	15008	6	3	4	58	7	1	428	0
"2013-11-13"	2	15008	6	3	4	59	10	1	218	0
"2013-11-13"	2	15008	6	3	4	60	8	0	192	0
"2013-11-13"	2	15008	6	3	4	61	11	0	168	0
"2013-11-13"	2	15008	6	3	4	62	16	0	265	0
"2013-11-13"	2	15008	6	3	4	63	15	0	221	0
"2013-11-13"	2	15008	6	3	4	64	4	1	524	0
"2013-11-13"	2	15008	6	3	5	65	9	1	270	0
"2013-11-13"	2	15008	6	3	5	66	15	0	219	0
"2013-11-13"	2	15008	6	3	5	67	3	0	216	0
"2013-11-13"	2	15008	6	3	5	68	14	1	319	0
"2013-11-13"	2	15008	6	3	5	69	1	0	274	0
"2013-11-13"	2	15008	6	3	5	70	2	0	574	0
"2013-11-13"	2	15008	6	3	5	71	7	0	245	0
"2013-11-13"	2	15008	6	3	5	72	11	0	266	0
"2013-11-13"	2	15008	6	3	5	73	6	1	414	0
"2013-11-13"	2	15008	6	3	5	74	4	1	261	0
"2013-11-13"	2	15008	6	3	5	75	8	0	225	0
"2013-11-13"	2	15008	6	3	5	76	5	1	286	0
"2013-11-13"	2	15008	6	3	5	77	12	1	346	0
"2013-11-13"	2	15008	6	3	5	78	13	1	507	0
"2013-11-13"	2	15008	6	3	5	79	10	1	334	0
"2013-11-13"	2	15008	6	3	5	80	16	0	264	0
"2013-11-13"	2	15008	6	3	6	81	14	1	260	0
"2013-11-13"	2	15008	6	3	6	82	11	1	313	0
"2013-11-13"	2	15008	6	3	6	83	6	0	315	0
"2013-11-13"	2	15008	6	3	6	84	1	1	518	0
"2013-11-13"	2	15008	6	3	6	85	2	0	263	0
"2013-11-13"	2	15008	6	3	6	86	5	0	251	0
"2013-11-13"	2	15008	6	3	6	87	15	0	249	0
"2013-11-13"	2	15008	6	3	6	88	4	1	270	0
"2013-11-13"	2	15008	6	3	6	89	13	0	235	0
"2013-11-13"	2	15008	6	3	6	90	7	1	345	0
"2013-11-13"	2	15008	6	3	6	91	10	1	266	0
"2013-11-13"	2	15008	6	3	6	92	16	1	478	0
"2013-11-13"	2	15008	6	3	6	93	9	0	322	0
"2013-11-13"	2	15008	6	3	6	94	12	1	604	0
"2013-11-13"	2	15008	6	3	6	95	8	0	273	0
"2013-11-13"	2	15008	6	3	6	96	3	0	197	0
"2013-11-13"	2	15008	6	3	7	97	8	0	365	0
"2013-11-13"	2	15008	6	3	7	98	7	1	269	0
"2013-11-13"	2	15008	6	3	7	99	15	0	242	0
"2013-11-13"	2	15008	6	3	7	100	13	0	567	0
"2013-11-13"	2	15008	6	3	7	101	4	0	351	0
"2013-11-13"	2	15008	6	3	7	102	10	0	248	0
"2013-11-13"	2	15008	6	3	7	103	2	0	237	0
"2013-11-13"	2	15008	6	3	7	104	3	0	258	0
"2013-11-13"	2	15008	6	3	7	105	9	0	279	0
"2013-11-13"	2	15008	6	3	7	106	12	0	427	0
"2013-11-13"	2	15008	6	3	7	107	6	0	448	0
"2013-11-13"	2	15008	6	3	7	108	14	1	261	0
"2013-11-13"	2	15008	6	3	7	109	11	0	354	0
"2013-11-13"	2	15008	6	3	7	110	1	1	371	0
"2013-11-13"	2	15008	6	3	7	111	16	0	227	0
"2013-11-13"	2	15008	6	3	7	112	5	1	225	0
"2013-11-13"	2	15008	6	3	8	113	11	0	230	0
"2013-11-13"	2	15008	6	3	8	114	16	0	244	0
"2013-11-13"	2	15008	6	3	8	115	3	0	329	0
"2013-11-13"	2	15008	6	3	8	116	14	0	475	0
"2013-11-13"	2	15008	6	3	8	117	1	0	255	0
"2013-11-13"	2	15008	6	3	8	118	13	0	245	0
"2013-11-13"	2	15008	6	3	8	119	15	0	178	0
"2013-11-13"	2	15008	6	3	8	120	4	1	186	0
"2013-11-13"	2	15008	6	3	8	121	6	1	434	0
"2013-11-13"	2	15008	6	3	8	122	10	1	248	0
"2013-11-13"	2	15008	6	3	8	123	8	1	252	0
"2013-11-13"	2	15008	6	3	8	124	9	0	209	0
"2013-11-13"	2	15008	6	3	8	125	7	0	256	0
"2013-11-13"	2	15008	6	3	8	126	5	0	229	0
"2013-11-13"	2	15008	6	3	8	127	12	1	235	0
"2013-11-13"	2	15008	6	3	8	128	2	0	81	0
"2013-11-13"	2	15009	9	2	1	1	8	1	0	0
"2013-11-13"	2	15009	9	2	1	2	5	1	0	0
"2013-11-13"	2	15009	9	2	1	3	3	1	0	0
"2013-11-13"	2	15009	9	2	1	4	2	1	0	0
"2013-11-13"	2	15009	9	2	1	5	7	1	0	0
"2013-11-13"	2	15009	9	2	1	6	1	1	0	0
"2013-11-13"	2	15009	9	2	1	7	6	1	0	0
"2013-11-13"	2	15009	9	2	1	8	4	1	0	0
"2013-11-13"	2	15009	9	2	2	9	2	1	0	0
"2013-11-13"	2	15009	9	2	2	10	8	1	0	0
"2013-11-13"	2	15009	9	2	2	11	3	1	0	0
"2013-11-13"	2	15009	9	2	2	12	4	1	0	0
"2013-11-13"	2	15009	9	2	2	13	1	1	0	0
"2013-11-13"	2	15009	9	2	2	14	5	1	0	0
"2013-11-13"	2	15009	9	2	2	15	6	1	0	0
"2013-11-13"	2	15009	9	2	2	16	7	1	0	0
"2013-11-13"	2	15009	9	2	3	17	4	1	0	0
"2013-11-13"	2	15009	9	2	3	18	2	1	0	0
"2013-11-13"	2	15009	9	2	3	19	8	1	0	0
"2013-11-13"	2	15009	9	2	3	20	5	1	0	0
"2013-11-13"	2	15009	9	2	3	21	7	1	0	0
"2013-11-13"	2	15009	9	2	3	22	3	1	0	0
"2013-11-13"	2	15009	9	2	3	23	1	1	0	0
"2013-11-13"	2	15009	9	2	3	24	6	1	0	0
"2013-11-13"	2	15009	9	3	1	1	9	1	0	0
"2013-11-13"	2	15009	9	3	1	2	8	0	98	0
"2013-11-13"	2	15009	9	3	1	3	16	1	310	0
"2013-11-13"	2	15009	9	3	1	4	1	1	640	0
"2013-11-13"	2	15009	9	3	1	5	11	0	613	0
"2013-11-13"	2	15009	9	3	1	6	7	0	211	0
"2013-11-13"	2	15009	9	3	1	7	6	0	225	0
"2013-11-13"	2	15009	9	3	1	8	10	1	191	0
"2013-11-13"	2	15009	9	3	1	9	5	0	279	0
"2013-11-13"	2	15009	9	3	1	10	4	1	203	0
"2013-11-13"	2	15009	9	3	1	11	14	1	314	0
"2013-11-13"	2	15009	9	3	1	12	3	1	525	0
"2013-11-13"	2	15009	9	3	1	13	15	0	237	0
"2013-11-13"	2	15009	9	3	1	14	13	0	364	0
"2013-11-13"	2	15009	9	3	1	15	12	1	244	0
"2013-11-13"	2	15009	9	3	1	16	2	0	569	0
"2013-11-13"	2	15009	9	3	2	17	1	0	241	0
"2013-11-13"	2	15009	9	3	2	18	11	0	350	0
"2013-11-13"	2	15009	9	3	2	19	12	1	271	0
"2013-11-13"	2	15009	9	3	2	20	2	1	236	0
"2013-11-13"	2	15009	9	3	2	21	13	0	298	0
"2013-11-13"	2	15009	9	3	2	22	10	1	228	0
"2013-11-13"	2	15009	9	3	2	23	16	1	267	0
"2013-11-13"	2	15009	9	3	2	24	6	0	263	0
"2013-11-13"	2	15009	9	3	2	25	14	1	227	0
"2013-11-13"	2	15009	9	3	2	26	7	0	241	0
"2013-11-13"	2	15009	9	3	2	27	9	0	191	0
"2013-11-13"	2	15009	9	3	2	28	15	0	375	0
"2013-11-13"	2	15009	9	3	2	29	5	0	214	0
"2013-11-13"	2	15009	9	3	2	30	3	1	197	0
"2013-11-13"	2	15009	9	3	2	31	8	0	293	0
"2013-11-13"	2	15009	9	3	2	32	4	1	304	0
"2013-11-13"	2	15009	9	3	3	33	9	0	90	0
"2013-11-13"	2	15009	9	3	3	34	4	1	230	0
"2013-11-13"	2	15009	9	3	3	35	16	1	220	0
"2013-11-13"	2	15009	9	3	3	36	6	0	227	0
"2013-11-13"	2	15009	9	3	3	37	1	1	193	0
"2013-11-13"	2	15009	9	3	3	38	13	0	216	0
"2013-11-13"	2	15009	9	3	3	39	14	1	271	0
"2013-11-13"	2	15009	9	3	3	40	2	1	236	0
"2013-11-13"	2	15009	9	3	3	41	11	0	226	0
"2013-11-13"	2	15009	9	3	3	42	7	0	272	0
"2013-11-13"	2	15009	9	3	3	43	3	1	339	0
"2013-11-13"	2	15009	9	3	3	44	5	0	285	0
"2013-11-13"	2	15009	9	3	3	45	10	1	201	0
"2013-11-13"	2	15009	9	3	3	46	8	0	264	0
"2013-11-13"	2	15009	9	3	3	47	15	0	245	0
"2013-11-13"	2	15009	9	3	3	48	12	1	250	0
"2013-11-13"	2	15009	9	3	4	49	8	0	240	0
"2013-11-13"	2	15009	9	3	4	50	11	0	310	0
"2013-11-13"	2	15009	9	3	4	51	6	0	416	0
"2013-11-13"	2	15009	9	3	4	52	13	0	222	0
"2013-11-13"	2	15009	9	3	4	53	5	0	181	0
"2013-11-13"	2	15009	9	3	4	54	9	0	212	0
"2013-11-13"	2	15009	9	3	4	55	3	1	267	0
"2013-11-13"	2	15009	9	3	4	56	10	1	296	0
"2013-11-13"	2	15009	9	3	4	57	7	0	291	0
"2013-11-13"	2	15009	9	3	4	58	12	1	270	0
"2013-11-13"	2	15009	9	3	4	59	15	0	211	0
"2013-11-13"	2	15009	9	3	4	60	4	1	265	0
"2013-11-13"	2	15009	9	3	4	61	16	0	54	0
"2013-11-13"	2	15009	9	3	4	62	1	1	244	0
"2013-11-13"	2	15009	9	3	4	63	2	1	225	0
"2013-11-13"	2	15009	9	3	4	64	14	1	263	0
"2013-11-13"	2	15009	9	3	5	65	15	0	211	0
"2013-11-13"	2	15009	9	3	5	66	5	0	274	0
"2013-11-13"	2	15009	9	3	5	67	8	0	462	0
"2013-11-13"	2	15009	9	3	5	68	10	1	226	0
"2013-11-13"	2	15009	9	3	5	69	14	1	280	0
"2013-11-13"	2	15009	9	3	5	70	6	0	195	0
"2013-11-13"	2	15009	9	3	5	71	11	0	219	0
"2013-11-13"	2	15009	9	3	5	72	7	0	250	0
"2013-11-13"	2	15009	9	3	5	73	2	1	439	0
"2013-11-13"	2	15009	9	3	5	74	3	1	332	0
"2013-11-13"	2	15009	9	3	5	75	16	1	229	0
"2013-11-13"	2	15009	9	3	5	76	9	0	355	0
"2013-11-13"	2	15009	9	3	5	77	1	1	300	0
"2013-11-13"	2	15009	9	3	5	78	12	1	679	0
"2013-11-13"	2	15009	9	3	5	79	13	0	234	0
"2013-11-13"	2	15009	9	3	5	80	4	1	240	0
"2013-11-13"	2	15009	9	3	6	81	1	1	238	0
"2013-11-13"	2	15009	9	3	6	82	11	0	292	0
"2013-11-13"	2	15009	9	3	6	83	5	0	463	0
"2013-11-13"	2	15009	9	3	6	84	3	1	396	0
"2013-11-13"	2	15009	9	3	6	85	14	1	313	0
"2013-11-13"	2	15009	9	3	6	86	9	0	332	0
"2013-11-13"	2	15009	9	3	6	87	2	1	518	0
"2013-11-13"	2	15009	9	3	6	88	15	0	255	0
"2013-11-13"	2	15009	9	3	6	89	6	0	229	0
"2013-11-13"	2	15009	9	3	6	90	16	1	283	0
"2013-11-13"	2	15009	9	3	6	91	13	0	231	0
"2013-11-13"	2	15009	9	3	6	92	7	0	229	0
"2013-11-13"	2	15009	9	3	6	93	12	1	355	0
"2013-11-13"	2	15009	9	3	6	94	4	1	356	0
"2013-11-13"	2	15009	9	3	6	95	10	1	781	0
"2013-11-13"	2	15009	9	3	6	96	8	0	498	0
"2013-11-13"	2	15009	9	3	7	97	7	0	357	0
"2013-11-13"	2	15009	9	3	7	98	8	0	462	0
"2013-11-13"	2	15009	9	3	7	99	2	1	0	0
"2013-11-13"	2	15009	9	3	7	100	15	0	548	0
"2013-11-13"	2	15009	9	3	7	101	12	1	268	0
"2013-11-13"	2	15009	9	3	7	102	3	1	193	0
"2013-11-13"	2	15009	9	3	7	103	10	1	208	0
"2013-11-13"	2	15009	9	3	7	104	4	1	239	0
"2013-11-13"	2	15009	9	3	7	105	6	0	125	0
"2013-11-13"	2	15009	9	3	7	106	9	0	231	0
"2013-11-13"	2	15009	9	3	7	107	11	0	229	0
"2013-11-13"	2	15009	9	3	7	108	14	1	235	0
"2013-11-13"	2	15009	9	3	7	109	16	1	217	0
"2013-11-13"	2	15009	9	3	7	110	1	1	296	0
"2013-11-13"	2	15009	9	3	7	111	5	0	107	0
"2013-11-13"	2	15009	9	3	7	112	13	0	238	0
"2013-11-13"	2	15009	9	3	8	113	6	0	436	0
"2013-11-13"	2	15009	9	3	8	114	14	1	465	0
"2013-11-13"	2	15009	9	3	8	115	1	1	285	0
"2013-11-13"	2	15009	9	3	8	116	4	1	248	0
"2013-11-13"	2	15009	9	3	8	117	7	0	197	0
"2013-11-13"	2	15009	9	3	8	118	5	0	237	0
"2013-11-13"	2	15009	9	3	8	119	9	0	219	0
"2013-11-13"	2	15009	9	3	8	120	11	0	378	0
"2013-11-13"	2	15009	9	3	8	121	8	0	289	0
"2013-11-13"	2	15009	9	3	8	122	12	1	205	0
"2013-11-13"	2	15009	9	3	8	123	15	0	676	0
"2013-11-13"	2	15009	9	3	8	124	3	1	423	0
"2013-11-13"	2	15009	9	3	8	125	10	1	229	0
"2013-11-13"	2	15009	9	3	8	126	2	1	394	0
"2013-11-13"	2	15009	9	3	8	127	16	1	313	0
"2013-11-13"	2	15009	9	3	8	128	13	0	299	0
"2013-11-26"	2	15010	12	2	1	1	3	1	0	0
"2013-11-26"	2	15010	12	2	1	2	2	1	0	0
"2013-11-26"	2	15010	12	2	1	3	7	1	0	0
"2013-11-26"	2	15010	12	2	1	4	6	1	0	0
"2013-11-26"	2	15010	12	2	1	5	8	1	0	0
"2013-11-26"	2	15010	12	2	1	6	1	1	0	0
"2013-11-26"	2	15010	12	2	1	7	4	1	0	0
"2013-11-26"	2	15010	12	2	1	8	5	1	0	0
"2013-11-26"	2	15010	12	2	2	9	1	1	0	0
"2013-11-26"	2	15010	12	2	2	10	7	1	0	0
"2013-11-26"	2	15010	12	2	2	11	4	1	0	0
"2013-11-26"	2	15010	12	2	2	12	6	1	0	0
"2013-11-26"	2	15010	12	2	2	13	3	1	0	0
"2013-11-26"	2	15010	12	2	2	14	5	1	0	0
"2013-11-26"	2	15010	12	2	2	15	8	1	0	0
"2013-11-26"	2	15010	12	2	2	16	2	1	0	0
"2013-11-26"	2	15010	12	2	3	17	1	1	0	0
"2013-11-26"	2	15010	12	2	3	18	5	1	0	0
"2013-11-26"	2	15010	12	2	3	19	2	1	0	0
"2013-11-26"	2	15010	12	2	3	20	8	1	0	0
"2013-11-26"	2	15010	12	2	3	21	3	1	0	0
"2013-11-26"	2	15010	12	2	3	22	7	1	0	0
"2013-11-26"	2	15010	12	2	3	23	4	1	0	0
"2013-11-26"	2	15010	12	2	3	24	6	1	0	0
"2013-11-26"	2	15010	12	3	1	1	7	0	249	0
"2013-11-26"	2	15010	12	3	1	2	3	1	230	0
"2013-11-26"	2	15010	12	3	1	3	10	1	716	0
"2013-11-26"	2	15010	12	3	1	4	5	0	278	0
"2013-11-26"	2	15010	12	3	1	5	4	1	265	0
"2013-11-26"	2	15010	12	3	1	6	1	1	734	0
"2013-11-26"	2	15010	12	3	1	7	11	0	295	0
"2013-11-26"	2	15010	12	3	1	8	2	1	305	0
"2013-11-26"	2	15010	12	3	1	9	8	0	212	0
"2013-11-26"	2	15010	12	3	1	10	9	0	307	0
"2013-11-26"	2	15010	12	3	1	11	12	1	293	0
"2013-11-26"	2	15010	12	3	1	12	6	0	225	0
"2013-11-26"	2	15010	12	3	1	13	15	0	463	0
"2013-11-26"	2	15010	12	3	1	14	13	0	626	0
"2013-11-26"	2	15010	12	3	1	15	16	1	287	0
"2013-11-26"	2	15010	12	3	1	16	14	1	235	0
"2013-11-26"	2	15010	12	3	2	17	5	0	234	0
"2013-11-26"	2	15010	12	3	2	18	6	0	248	0
"2013-11-26"	2	15010	12	3	2	19	15	0	237	0
"2013-11-26"	2	15010	12	3	2	20	7	0	299	0
"2013-11-26"	2	15010	12	3	2	21	8	0	270	0
"2013-11-26"	2	15010	12	3	2	22	1	1	338	0
"2013-11-26"	2	15010	12	3	2	23	11	0	244	0
"2013-11-26"	2	15010	12	3	2	24	12	1	241	0
"2013-11-26"	2	15010	12	3	2	25	10	1	326	0
"2013-11-26"	2	15010	12	3	2	26	14	1	256	0
"2013-11-26"	2	15010	12	3	2	27	13	0	294	0
"2013-11-26"	2	15010	12	3	2	28	16	1	264	0
"2013-11-26"	2	15010	12	3	2	29	4	1	261	0
"2013-11-26"	2	15010	12	3	2	30	9	0	185	0
"2013-11-26"	2	15010	12	3	2	31	2	1	161	0
"2013-11-26"	2	15010	12	3	2	32	3	1	2	0
"2013-11-26"	2	15010	12	3	3	33	11	0	154	0
"2013-11-26"	2	15010	12	3	3	34	10	1	268	0
"2013-11-26"	2	15010	12	3	3	35	2	1	264	0
"2013-11-26"	2	15010	12	3	3	36	1	1	260	0
"2013-11-26"	2	15010	12	3	3	37	15	0	305	0
"2013-11-26"	2	15010	12	3	3	38	8	0	268	0
"2013-11-26"	2	15010	12	3	3	39	16	1	264	0
"2013-11-26"	2	15010	12	3	3	40	13	0	365	0
"2013-11-26"	2	15010	12	3	3	41	14	1	237	0
"2013-11-26"	2	15010	12	3	3	42	5	0	307	0
"2013-11-26"	2	15010	12	3	3	43	4	1	277	0
"2013-11-26"	2	15010	12	3	3	44	6	0	233	0
"2013-11-26"	2	15010	12	3	3	45	12	1	279	0
"2013-11-26"	2	15010	12	3	3	46	3	1	323	0
"2013-11-26"	2	15010	12	3	3	47	7	0	261	0
"2013-11-26"	2	15010	12	3	3	48	9	0	154	0
"2013-11-26"	2	15010	12	3	4	49	11	0	219	0
"2013-11-26"	2	15010	12	3	4	50	2	1	210	0
"2013-11-26"	2	15010	12	3	4	51	13	0	136	0
"2013-11-26"	2	15010	12	3	4	52	8	0	187	0
"2013-11-26"	2	15010	12	3	4	53	7	0	275	0
"2013-11-26"	2	15010	12	3	4	54	9	0	223	0
"2013-11-26"	2	15010	12	3	4	55	12	1	222	0
"2013-11-26"	2	15010	12	3	4	56	15	0	220	0
"2013-11-26"	2	15010	12	3	4	57	3	1	178	0
"2013-11-26"	2	15010	12	3	4	58	4	1	235	0
"2013-11-26"	2	15010	12	3	4	59	1	1	233	0
"2013-11-26"	2	15010	12	3	4	60	5	0	223	0
"2013-11-26"	2	15010	12	3	4	61	16	1	238	0
"2013-11-26"	2	15010	12	3	4	62	6	0	260	0
"2013-11-26"	2	15010	12	3	4	63	10	1	271	0
"2013-11-26"	2	15010	12	3	4	64	14	1	228	0
"2013-11-26"	2	15010	12	3	5	65	2	1	322	0
"2013-11-26"	2	15010	12	3	5	66	11	0	237	0
"2013-11-26"	2	15010	12	3	5	67	13	0	291	0
"2013-11-26"	2	15010	12	3	5	68	5	0	318	0
"2013-11-26"	2	15010	12	3	5	69	8	0	288	0
"2013-11-26"	2	15010	12	3	5	70	1	1	291	0
"2013-11-26"	2	15010	12	3	5	71	14	1	695	0
"2013-11-26"	2	15010	12	3	5	72	12	1	233	0
"2013-11-26"	2	15010	12	3	5	73	3	1	295	0
"2013-11-26"	2	15010	12	3	5	74	16	1	218	0
"2013-11-26"	2	15010	12	3	5	75	4	1	369	0
"2013-11-26"	2	15010	12	3	5	76	9	0	305	0
"2013-11-26"	2	15010	12	3	5	77	10	1	211	0
"2013-11-26"	2	15010	12	3	5	78	15	0	226	0
"2013-11-26"	2	15010	12	3	5	79	7	0	256	0
"2013-11-26"	2	15010	12	3	5	80	6	0	222	0
"2013-11-26"	2	15010	12	3	6	81	9	0	212	0
"2013-11-26"	2	15010	12	3	6	82	11	0	203	0
"2013-11-26"	2	15010	12	3	6	83	7	0	251	0
"2013-11-26"	2	15010	12	3	6	84	1	1	216	0
"2013-11-26"	2	15010	12	3	6	85	3	1	230	0
"2013-11-26"	2	15010	12	3	6	86	10	1	260	0
"2013-11-26"	2	15010	12	3	6	87	5	0	225	0
"2013-11-26"	2	15010	12	3	6	88	13	0	263	0
"2013-11-26"	2	15010	12	3	6	89	8	0	491	0
"2013-11-26"	2	15010	12	3	6	90	15	0	471	0
"2013-11-26"	2	15010	12	3	6	91	14	1	219	0
"2013-11-26"	2	15010	12	3	6	92	4	1	465	0
"2013-11-26"	2	15010	12	3	6	93	6	0	317	0
"2013-11-26"	2	15010	12	3	6	94	16	1	295	0
"2013-11-26"	2	15010	12	3	6	95	12	1	298	0
"2013-11-26"	2	15010	12	3	6	96	2	1	270	0
"2013-11-26"	2	15010	12	3	7	97	4	1	282	0
"2013-11-26"	2	15010	12	3	7	98	6	0	309	0
"2013-11-26"	2	15010	12	3	7	99	5	0	280	0
"2013-11-26"	2	15010	12	3	7	100	2	1	228	0
"2013-11-26"	2	15010	12	3	7	101	15	0	290	0
"2013-11-26"	2	15010	12	3	7	102	9	0	341	0
"2013-11-26"	2	15010	12	3	7	103	16	1	311	0
"2013-11-26"	2	15010	12	3	7	104	1	1	249	0
"2013-11-26"	2	15010	12	3	7	105	7	0	183	0
"2013-11-26"	2	15010	12	3	7	106	3	1	222	0
"2013-11-26"	2	15010	12	3	7	107	12	1	309	0
"2013-11-26"	2	15010	12	3	7	108	11	0	607	0
"2013-11-26"	2	15010	12	3	7	109	10	1	285	0
"2013-11-26"	2	15010	12	3	7	110	14	1	513	0
"2013-11-26"	2	15010	12	3	7	111	13	0	427	0
"2013-11-26"	2	15010	12	3	7	112	8	0	552	0
"2013-11-26"	2	15010	12	3	8	113	6	0	632	0
"2013-11-26"	2	15010	12	3	8	114	12	1	277	0
"2013-11-26"	2	15010	12	3	8	115	15	0	825	0
"2013-11-26"	2	15010	12	3	8	116	14	1	334	0
"2013-11-26"	2	15010	12	3	8	117	13	0	240	0
"2013-11-26"	2	15010	12	3	8	118	3	1	582	0
"2013-11-26"	2	15010	12	3	8	119	8	0	204	0
"2013-11-26"	2	15010	12	3	8	120	9	0	212	0
"2013-11-26"	2	15010	12	3	8	121	11	0	250	0
"2013-11-26"	2	15010	12	3	8	122	5	0	24	0
"2013-11-26"	2	15010	12	3	8	123	16	1	374	0
"2013-11-26"	2	15010	12	3	8	124	2	1	294	0
"2013-11-26"	2	15010	12	3	8	125	4	1	361	0
"2013-11-26"	2	15010	12	3	8	126	7	0	217	0
"2013-11-26"	2	15010	12	3	8	127	1	1	240	0
"2013-11-26"	2	15010	12	3	8	128	10	1	286	0
"2013-11-26"	2	15011	15	2	1	1	6	1	0	0
"2013-11-26"	2	15011	15	2	1	2	4	1	0	0
"2013-11-26"	2	15011	15	2	1	3	3	1	0	0
"2013-11-26"	2	15011	15	2	1	4	8	1	0	0
"2013-11-26"	2	15011	15	2	1	5	5	1	0	0
"2013-11-26"	2	15011	15	2	1	6	7	1	0	0
"2013-11-26"	2	15011	15	2	1	7	1	1	0	0
"2013-11-26"	2	15011	15	2	1	8	2	1	0	0
"2013-11-26"	2	15011	15	2	2	9	3	1	0	0
"2013-11-26"	2	15011	15	2	2	10	6	1	0	0
"2013-11-26"	2	15011	15	2	2	11	5	1	0	0
"2013-11-26"	2	15011	15	2	2	12	7	1	0	0
"2013-11-26"	2	15011	15	2	2	13	1	1	0	0
"2013-11-26"	2	15011	15	2	2	14	8	1	0	0
"2013-11-26"	2	15011	15	2	2	15	2	1	0	0
"2013-11-26"	2	15011	15	2	2	16	4	1	0	0
"2013-11-26"	2	15011	15	2	3	17	2	1	0	0
"2013-11-26"	2	15011	15	2	3	18	1	1	0	0
"2013-11-26"	2	15011	15	2	3	19	6	1	0	0
"2013-11-26"	2	15011	15	2	3	20	7	1	0	0
"2013-11-26"	2	15011	15	2	3	21	4	1	0	0
"2013-11-26"	2	15011	15	2	3	22	5	1	0	0
"2013-11-26"	2	15011	15	2	3	23	8	1	0	0
"2013-11-26"	2	15011	15	2	3	24	3	1	0	0
"2013-11-26"	2	15011	15	3	1	1	8	0	1113	0
"2013-11-26"	2	15011	15	3	1	2	12	1	393	0
"2013-11-26"	2	15011	15	3	1	3	13	0	64	0
"2013-11-26"	2	15011	15	3	1	4	15	0	261	0
"2013-11-26"	2	15011	15	3	1	5	14	1	266	0
"2013-11-26"	2	15011	15	3	1	6	10	1	238	0
"2013-11-26"	2	15011	15	3	1	7	9	0	276	0
"2013-11-26"	2	15011	15	3	1	8	4	1	280	0
"2013-11-26"	2	15011	15	3	1	9	11	0	324	0
"2013-11-26"	2	15011	15	3	1	10	16	1	325	0
"2013-11-26"	2	15011	15	3	1	11	1	1	367	0
"2013-11-26"	2	15011	15	3	1	12	3	1	375	0
"2013-11-26"	2	15011	15	3	1	13	2	1	367	0
"2013-11-26"	2	15011	15	3	1	14	6	0	294	0
"2013-11-26"	2	15011	15	3	1	15	7	0	322	0
"2013-11-26"	2	15011	15	3	1	16	5	0	348	0
"2013-11-26"	2	15011	15	3	2	17	10	1	325	0
"2013-11-26"	2	15011	15	3	2	18	9	0	279	0
"2013-11-26"	2	15011	15	3	2	19	12	1	323	0
"2013-11-26"	2	15011	15	3	2	20	5	0	85	0
"2013-11-26"	2	15011	15	3	2	21	1	1	370	0
"2013-11-26"	2	15011	15	3	2	22	6	0	346	0
"2013-11-26"	2	15011	15	3	2	23	13	0	666	0
"2013-11-26"	2	15011	15	3	2	24	4	1	326	0
"2013-11-26"	2	15011	15	3	2	25	16	1	431	0
"2013-11-26"	2	15011	15	3	2	26	7	0	397	0
"2013-11-26"	2	15011	15	3	2	27	15	0	300	0
"2013-11-26"	2	15011	15	3	2	28	3	1	287	0
"2013-11-26"	2	15011	15	3	2	29	11	0	411	0
"2013-11-26"	2	15011	15	3	2	30	14	1	129	0
"2013-11-26"	2	15011	15	3	2	31	2	1	363	0
"2013-11-26"	2	15011	15	3	2	32	8	0	395	0
"2013-11-26"	2	15011	15	3	3	33	7	0	354	0
"2013-11-26"	2	15011	15	3	3	34	11	0	411	0
"2013-11-26"	2	15011	15	3	3	35	4	0	545	0
"2013-11-26"	2	15011	15	3	3	36	13	0	313	0
"2013-11-26"	2	15011	15	3	3	37	6	0	876	0
"2013-11-26"	2	15011	15	3	3	38	5	0	494	0
"2013-11-26"	2	15011	15	3	3	39	9	0	304	0
"2013-11-26"	2	15011	15	3	3	40	1	1	307	0
"2013-11-26"	2	15011	15	3	3	41	10	1	109	0
"2013-11-26"	2	15011	15	3	3	42	2	1	272	0
"2013-11-26"	2	15011	15	3	3	43	14	1	269	0
"2013-11-26"	2	15011	15	3	3	44	8	0	338	0
"2013-11-26"	2	15011	15	3	3	45	15	0	323	0
"2013-11-26"	2	15011	15	3	3	46	12	1	285	0
"2013-11-26"	2	15011	15	3	3	47	16	1	329	0
"2013-11-26"	2	15011	15	3	3	48	3	1	698	0
"2013-11-26"	2	15011	15	3	4	49	1	1	604	0
"2013-11-26"	2	15011	15	3	4	50	10	1	330	0
"2013-11-26"	2	15011	15	3	4	51	9	0	244	0
"2013-11-26"	2	15011	15	3	4	52	3	1	217	0
"2013-11-26"	2	15011	15	3	4	53	13	0	352	0
"2013-11-26"	2	15011	15	3	4	54	7	0	409	0
"2013-11-26"	2	15011	15	3	4	55	16	1	366	0
"2013-11-26"	2	15011	15	3	4	56	12	1	327	0
"2013-11-26"	2	15011	15	3	4	57	14	1	328	0
"2013-11-26"	2	15011	15	3	4	58	2	1	474	0
"2013-11-26"	2	15011	15	3	4	59	15	0	334	0
"2013-11-26"	2	15011	15	3	4	60	6	0	432	0
"2013-11-26"	2	15011	15	3	4	61	8	0	757	0
"2013-11-26"	2	15011	15	3	4	62	5	0	381	0
"2013-11-26"	2	15011	15	3	4	63	4	1	1076	0
"2013-11-26"	2	15011	15	3	4	64	11	1	0	0
"2013-11-26"	2	15011	15	3	5	65	5	0	624	0
"2013-11-26"	2	15011	15	3	5	66	8	0	429	0
"2013-11-26"	2	15011	15	3	5	67	2	1	355	0
"2013-11-26"	2	15011	15	3	5	68	9	0	948	0
"2013-11-26"	2	15011	15	3	5	69	12	1	219	0
"2013-11-26"	2	15011	15	3	5	70	10	1	266	0
"2013-11-26"	2	15011	15	3	5	71	3	1	685	0
"2013-11-26"	2	15011	15	3	5	72	11	0	328	0
"2013-11-26"	2	15011	15	3	5	73	15	0	306	0
"2013-11-26"	2	15011	15	3	5	74	4	1	596	0
"2013-11-26"	2	15011	15	3	5	75	16	0	339	0
"2013-11-26"	2	15011	15	3	5	76	1	1	452	0
"2013-11-26"	2	15011	15	3	5	77	14	1	265	0
"2013-11-26"	2	15011	15	3	5	78	13	0	302	0
"2013-11-26"	2	15011	15	3	5	79	7	0	312	0
"2013-11-26"	2	15011	15	3	5	80	6	0	322	0
"2013-11-26"	2	15011	15	3	6	81	7	0	412	0
"2013-11-26"	2	15011	15	3	6	82	5	0	538	0
"2013-11-26"	2	15011	15	3	6	83	4	1	444	0
"2013-11-26"	2	15011	15	3	6	84	12	0	1376	0
"2013-11-26"	2	15011	15	3	6	85	10	1	326	0
"2013-11-26"	2	15011	15	3	6	86	6	0	23	0
"2013-11-26"	2	15011	15	3	6	87	8	0	310	0
"2013-11-26"	2	15011	15	3	6	88	11	0	297	0
"2013-11-26"	2	15011	15	3	6	89	9	0	275	0
"2013-11-26"	2	15011	15	3	6	90	13	0	311	0
"2013-11-26"	2	15011	15	3	6	91	15	0	298	0
"2013-11-26"	2	15011	15	3	6	92	1	1	357	0
"2013-11-26"	2	15011	15	3	6	93	2	1	366	0
"2013-11-26"	2	15011	15	3	6	94	14	1	406	0
"2013-11-26"	2	15011	15	3	6	95	16	1	373	0
"2013-11-26"	2	15011	15	3	6	96	3	1	582	0
"2013-11-26"	2	15011	15	3	7	97	6	0	340	0
"2013-11-26"	2	15011	15	3	7	98	16	1	373	0
"2013-11-26"	2	15011	15	3	7	99	8	0	293	0
"2013-11-26"	2	15011	15	3	7	100	7	0	480	0
"2013-11-26"	2	15011	15	3	7	101	1	1	388	0
"2013-11-26"	2	15011	15	3	7	102	3	1	403	0
"2013-11-26"	2	15011	15	3	7	103	10	1	594	0
"2013-11-26"	2	15011	15	3	7	104	5	0	375	0
"2013-11-26"	2	15011	15	3	7	105	13	0	527	0
"2013-11-26"	2	15011	15	3	7	106	9	0	424	0
"2013-11-26"	2	15011	15	3	7	107	11	0	566	0
"2013-11-26"	2	15011	15	3	7	108	2	1	469	0
"2013-11-26"	2	15011	15	3	7	109	14	1	417	0
"2013-11-26"	2	15011	15	3	7	110	12	1	1176	0
"2013-11-26"	2	15011	15	3	7	111	15	0	933	0
"2013-11-26"	2	15011	15	3	7	112	4	1	324	0
"2013-11-26"	2	15011	15	3	8	113	14	1	350	0
"2013-11-26"	2	15011	15	3	8	114	6	0	359	0
"2013-11-26"	2	15011	15	3	8	115	10	1	240	0
"2013-11-26"	2	15011	15	3	8	116	5	0	310	0
"2013-11-26"	2	15011	15	3	8	117	2	1	384	0
"2013-11-26"	2	15011	15	3	8	118	4	1	344	0
"2013-11-26"	2	15011	15	3	8	119	1	1	433	0
"2013-11-26"	2	15011	15	3	8	120	3	1	518	0
"2013-11-26"	2	15011	15	3	8	121	13	0	423	0
"2013-11-26"	2	15011	15	3	8	122	12	1	101	0
"2013-11-26"	2	15011	15	3	8	123	9	0	297	0
"2013-11-26"	2	15011	15	3	8	124	11	0	364	0
"2013-11-26"	2	15011	15	3	8	125	8	0	620	0
"2013-11-26"	2	15011	15	3	8	126	16	1	418	0
"2013-11-26"	2	15011	15	3	8	127	15	0	360	0
"2013-11-26"	2	15011	15	3	8	128	7	0	80	0
"2013-11-26"	2	15012	2	2	1	1	5	1	0	0
"2013-11-26"	2	15012	2	2	1	2	7	1	0	0
"2013-11-26"	2	15012	2	2	1	3	6	1	0	0
"2013-11-26"	2	15012	2	2	1	4	1	1	0	0
"2013-11-26"	2	15012	2	2	1	5	3	1	0	0
"2013-11-26"	2	15012	2	2	1	6	8	1	0	0
"2013-11-26"	2	15012	2	2	1	7	2	1	0	0
"2013-11-26"	2	15012	2	2	1	8	4	1	0	0
"2013-11-26"	2	15012	2	2	2	9	1	1	0	0
"2013-11-26"	2	15012	2	2	2	10	3	1	0	0
"2013-11-26"	2	15012	2	2	2	11	5	1	0	0
"2013-11-26"	2	15012	2	2	2	12	7	1	0	0
"2013-11-26"	2	15012	2	2	2	13	6	1	0	0
"2013-11-26"	2	15012	2	2	2	14	4	1	0	0
"2013-11-26"	2	15012	2	2	2	15	8	1	0	0
"2013-11-26"	2	15012	2	2	2	16	2	1	0	0
"2013-11-26"	2	15012	2	2	3	17	6	1	0	0
"2013-11-26"	2	15012	2	2	3	18	2	1	0	0
"2013-11-26"	2	15012	2	2	3	19	3	1	0	0
"2013-11-26"	2	15012	2	2	3	20	7	1	0	0
"2013-11-26"	2	15012	2	2	3	21	4	1	0	0
"2013-11-26"	2	15012	2	2	3	22	1	1	0	0
"2013-11-26"	2	15012	2	2	3	23	5	1	0	0
"2013-11-26"	2	15012	2	2	3	24	8	1	0	0
"2013-11-26"	2	15012	2	3	1	1	14	1	0	0
"2013-11-26"	2	15012	2	3	1	2	11	0	616	0
"2013-11-26"	2	15012	2	3	1	3	8	1	214	0
"2013-11-26"	2	15012	2	3	1	4	6	0	165	0
"2013-11-26"	2	15012	2	3	1	5	13	1	502	0
"2013-11-26"	2	15012	2	3	1	6	5	0	248	0
"2013-11-26"	2	15012	2	3	1	7	9	1	238	0
"2013-11-26"	2	15012	2	3	1	8	1	1	340	0
"2013-11-26"	2	15012	2	3	1	9	2	1	260	0
"2013-11-26"	2	15012	2	3	1	10	15	1	401	0
"2013-11-26"	2	15012	2	3	1	11	3	1	248	0
"2013-11-26"	2	15012	2	3	1	12	12	1	357	0
"2013-11-26"	2	15012	2	3	1	13	7	0	262	0
"2013-11-26"	2	15012	2	3	1	14	4	0	171	0
"2013-11-26"	2	15012	2	3	1	15	16	0	204	0
"2013-11-26"	2	15012	2	3	1	16	10	0	323	0
"2013-11-26"	2	15012	2	3	2	17	11	0	46	0
"2013-11-26"	2	15012	2	3	2	18	7	0	259	0
"2013-11-26"	2	15012	2	3	2	19	5	0	439	0
"2013-11-26"	2	15012	2	3	2	20	13	1	332	0
"2013-11-26"	2	15012	2	3	2	21	14	0	158	0
"2013-11-26"	2	15012	2	3	2	22	15	1	303	0
"2013-11-26"	2	15012	2	3	2	23	4	0	250	0
"2013-11-26"	2	15012	2	3	2	24	6	0	287	0
"2013-11-26"	2	15012	2	3	2	25	1	1	227	0
"2013-11-26"	2	15012	2	3	2	26	9	1	312	0
"2013-11-26"	2	15012	2	3	2	27	2	1	355	0
"2013-11-26"	2	15012	2	3	2	28	3	1	52	0
"2013-11-26"	2	15012	2	3	2	29	16	0	314	0
"2013-11-26"	2	15012	2	3	2	30	12	1	156	0
"2013-11-26"	2	15012	2	3	2	31	10	0	317	0
"2013-11-26"	2	15012	2	3	2	32	8	1	368	0
"2013-11-26"	2	15012	2	3	3	33	15	1	296	0
"2013-11-26"	2	15012	2	3	3	34	10	0	299	0
"2013-11-26"	2	15012	2	3	3	35	9	1	166	0
"2013-11-26"	2	15012	2	3	3	36	3	1	302	0
"2013-11-26"	2	15012	2	3	3	37	14	0	178	0
"2013-11-26"	2	15012	2	3	3	38	6	0	330	0
"2013-11-26"	2	15012	2	3	3	39	16	0	748	0
"2013-11-26"	2	15012	2	3	3	40	12	1	323	0
"2013-11-26"	2	15012	2	3	3	41	13	1	334	0
"2013-11-26"	2	15012	2	3	3	42	4	0	440	0
"2013-11-26"	2	15012	2	3	3	43	11	0	364	0
"2013-11-26"	2	15012	2	3	3	44	5	0	381	0
"2013-11-26"	2	15012	2	3	3	45	8	1	388	0
"2013-11-26"	2	15012	2	3	3	46	7	0	508	0
"2013-11-26"	2	15012	2	3	3	47	2	1	310	0
"2013-11-26"	2	15012	2	3	3	48	1	1	561	0
"2013-11-26"	2	15012	2	3	4	49	4	0	217	0
"2013-11-26"	2	15012	2	3	4	50	10	0	295	0
"2013-11-26"	2	15012	2	3	4	51	5	0	362	0
"2013-11-26"	2	15012	2	3	4	52	15	1	202	0
"2013-11-26"	2	15012	2	3	4	53	6	0	249	0
"2013-11-26"	2	15012	2	3	4	54	13	1	375	0
"2013-11-26"	2	15012	2	3	4	55	1	1	430	0
"2013-11-26"	2	15012	2	3	4	56	14	0	356	0
"2013-11-26"	2	15012	2	3	4	57	2	1	381	0
"2013-11-26"	2	15012	2	3	4	58	16	0	53	0
"2013-11-26"	2	15012	2	3	4	59	9	1	298	0
"2013-11-26"	2	15012	2	3	4	60	3	1	373	0
"2013-11-26"	2	15012	2	3	4	61	11	0	293	0
"2013-11-26"	2	15012	2	3	4	62	8	1	344	0
"2013-11-26"	2	15012	2	3	4	63	7	0	313	0
"2013-11-26"	2	15012	2	3	4	64	12	1	788	0
"2013-11-26"	2	15012	2	3	5	65	2	1	714	0
"2013-11-26"	2	15012	2	3	5	66	8	1	283	0
"2013-11-26"	2	15012	2	3	5	67	5	0	719	0
"2013-11-26"	2	15012	2	3	5	68	9	1	360	0
"2013-11-26"	2	15012	2	3	5	69	12	1	448	0
"2013-11-26"	2	15012	2	3	5	70	3	1	381	0
"2013-11-26"	2	15012	2	3	5	71	1	1	228	0
"2013-11-26"	2	15012	2	3	5	72	14	0	474	0
"2013-11-26"	2	15012	2	3	5	73	7	0	486	0
"2013-11-26"	2	15012	2	3	5	74	11	0	314	0
"2013-11-26"	2	15012	2	3	5	75	6	0	580	0
"2013-11-26"	2	15012	2	3	5	76	4	1	0	0
"2013-11-26"	2	15012	2	3	5	77	15	1	332	0
"2013-11-26"	2	15012	2	3	5	78	13	1	318	0
"2013-11-26"	2	15012	2	3	5	79	16	0	601	0
"2013-11-26"	2	15012	2	3	5	80	10	0	327	0
"2013-11-26"	2	15012	2	3	6	81	7	0	441	0
"2013-11-26"	2	15012	2	3	6	82	13	1	253	0
"2013-11-26"	2	15012	2	3	6	83	6	0	219	0
"2013-11-26"	2	15012	2	3	6	84	12	1	217	0
"2013-11-26"	2	15012	2	3	6	85	14	0	391	0
"2013-11-26"	2	15012	2	3	6	86	16	0	382	0
"2013-11-26"	2	15012	2	3	6	87	4	0	414	0
"2013-11-26"	2	15012	2	3	6	88	15	1	364	0
"2013-11-26"	2	15012	2	3	6	89	2	1	532	0
"2013-11-26"	2	15012	2	3	6	90	8	1	478	0
"2013-11-26"	2	15012	2	3	6	91	5	0	361	0
"2013-11-26"	2	15012	2	3	6	92	1	1	312	0
"2013-11-26"	2	15012	2	3	6	93	11	0	227	0
"2013-11-26"	2	15012	2	3	6	94	10	0	377	0
"2013-11-26"	2	15012	2	3	6	95	3	1	392	0
"2013-11-26"	2	15012	2	3	6	96	9	1	767	0
"2013-11-26"	2	15012	2	3	7	97	12	1	966	0
"2013-11-26"	2	15012	2	3	7	98	8	1	437	0
"2013-11-26"	2	15012	2	3	7	99	4	0	450	0
"2013-11-26"	2	15012	2	3	7	100	13	1	294	0
"2013-11-26"	2	15012	2	3	7	101	14	0	113	0
"2013-11-26"	2	15012	2	3	7	102	6	0	500	0
"2013-11-26"	2	15012	2	3	7	103	10	0	255	0
"2013-11-26"	2	15012	2	3	7	104	1	1	124	0
"2013-11-26"	2	15012	2	3	7	105	5	0	695	0
"2013-11-26"	2	15012	2	3	7	106	16	0	385	0
"2013-11-26"	2	15012	2	3	7	107	7	0	264	0
"2013-11-26"	2	15012	2	3	7	108	3	1	436	0
"2013-11-26"	2	15012	2	3	7	109	15	1	322	0
"2013-11-26"	2	15012	2	3	7	110	9	1	524	0
"2013-11-26"	2	15012	2	3	7	111	11	0	430	0
"2013-11-26"	2	15012	2	3	7	112	2	1	451	0
"2013-11-26"	2	15012	2	3	8	113	13	1	728	0
"2013-11-26"	2	15012	2	3	8	114	5	0	505	0
"2013-11-26"	2	15012	2	3	8	115	12	1	403	0
"2013-11-26"	2	15012	2	3	8	116	16	0	257	0
"2013-11-26"	2	15012	2	3	8	117	4	0	598	0
"2013-11-26"	2	15012	2	3	8	118	10	0	404	0
"2013-11-26"	2	15012	2	3	8	119	8	1	571	0
"2013-11-26"	2	15012	2	3	8	120	11	0	307	0
"2013-11-26"	2	15012	2	3	8	121	3	1	613	0
"2013-11-26"	2	15012	2	3	8	122	2	1	427	0
"2013-11-26"	2	15012	2	3	8	123	9	1	280	0
"2013-11-26"	2	15012	2	3	8	124	1	1	316	0
"2013-11-26"	2	15012	2	3	8	125	15	1	454	0
"2013-11-26"	2	15012	2	3	8	126	14	0	250	0
"2013-11-26"	2	15012	2	3	8	127	6	0	352	0
"2013-11-26"	2	15012	2	3	8	128	7	0	561	0
"2013-11-26"	2	15013	5	2	1	1	7	1	0	0
"2013-11-26"	2	15013	5	2	1	2	1	1	0	0
"2013-11-26"	2	15013	5	2	1	3	3	1	0	0
"2013-11-26"	2	15013	5	2	1	4	2	1	0	0
"2013-11-26"	2	15013	5	2	1	5	5	1	0	0
"2013-11-26"	2	15013	5	2	1	6	8	1	0	0
"2013-11-26"	2	15013	5	2	1	7	4	1	0	0
"2013-11-26"	2	15013	5	2	1	8	6	1	0	0
"2013-11-26"	2	15013	5	2	2	9	2	1	0	0
"2013-11-26"	2	15013	5	2	2	10	4	1	0	0
"2013-11-26"	2	15013	5	2	2	11	6	1	0	0
"2013-11-26"	2	15013	5	2	2	12	5	1	0	0
"2013-11-26"	2	15013	5	2	2	13	7	1	0	0
"2013-11-26"	2	15013	5	2	2	14	8	1	0	0
"2013-11-26"	2	15013	5	2	2	15	1	1	0	0
"2013-11-26"	2	15013	5	2	2	16	3	1	0	0
"2013-11-26"	2	15013	5	2	3	17	1	1	0	0
"2013-11-26"	2	15013	5	2	3	18	2	1	0	0
"2013-11-26"	2	15013	5	2	3	19	5	1	0	0
"2013-11-26"	2	15013	5	2	3	20	6	1	0	0
"2013-11-26"	2	15013	5	2	3	21	8	1	0	0
"2013-11-26"	2	15013	5	2	3	22	3	1	0	0
"2013-11-26"	2	15013	5	2	3	23	4	1	0	0
"2013-11-26"	2	15013	5	2	3	24	7	1	0	0
"2013-11-26"	2	15013	5	3	1	1	3	1	804	0
"2013-11-26"	2	15013	5	3	1	2	7	0	360	0
"2013-11-26"	2	15013	5	3	1	3	2	1	328	0
"2013-11-26"	2	15013	5	3	1	4	5	0	258	0
"2013-11-26"	2	15013	5	3	1	5	6	0	222	0
"2013-11-26"	2	15013	5	3	1	6	16	1	325	0
"2013-11-26"	2	15013	5	3	1	7	15	0	231	0
"2013-11-26"	2	15013	5	3	1	8	10	1	341	0
"2013-11-26"	2	15013	5	3	1	9	11	0	318	0
"2013-11-26"	2	15013	5	3	1	10	1	1	248	0
"2013-11-26"	2	15013	5	3	1	11	14	1	358	0
"2013-11-26"	2	15013	5	3	1	12	13	0	207	0
"2013-11-26"	2	15013	5	3	1	13	9	0	334	0
"2013-11-26"	2	15013	5	3	1	14	8	0	336	0
"2013-11-26"	2	15013	5	3	1	15	4	1	402	0
"2013-11-26"	2	15013	5	3	1	16	12	1	304	0
"2013-11-26"	2	15013	5	3	2	17	16	1	219	0
"2013-11-26"	2	15013	5	3	2	18	15	0	242	0
"2013-11-26"	2	15013	5	3	2	19	2	1	287	0
"2013-11-26"	2	15013	5	3	2	20	4	1	251	0
"2013-11-26"	2	15013	5	3	2	21	8	0	265	0
"2013-11-26"	2	15013	5	3	2	22	7	0	277	0
"2013-11-26"	2	15013	5	3	2	23	10	1	320	0
"2013-11-26"	2	15013	5	3	2	24	13	0	259	0
"2013-11-26"	2	15013	5	3	2	25	6	0	135	0
"2013-11-26"	2	15013	5	3	2	26	9	0	178	0
"2013-11-26"	2	15013	5	3	2	27	1	1	242	0
"2013-11-26"	2	15013	5	3	2	28	14	1	351	0
"2013-11-26"	2	15013	5	3	2	29	11	0	256	0
"2013-11-26"	2	15013	5	3	2	30	5	0	430	0
"2013-11-26"	2	15013	5	3	2	31	12	1	418	0
"2013-11-26"	2	15013	5	3	2	32	3	1	656	0
"2013-11-26"	2	15013	5	3	3	33	4	1	261	0
"2013-11-26"	2	15013	5	3	3	34	8	0	337	0
"2013-11-26"	2	15013	5	3	3	35	7	0	859	0
"2013-11-26"	2	15013	5	3	3	36	11	0	294	0
"2013-11-26"	2	15013	5	3	3	37	12	1	249	0
"2013-11-26"	2	15013	5	3	3	38	5	0	342	0
"2013-11-26"	2	15013	5	3	3	39	1	1	463	0
"2013-11-26"	2	15013	5	3	3	40	9	0	603	0
"2013-11-26"	2	15013	5	3	3	41	6	0	546	0
"2013-11-26"	2	15013	5	3	3	42	10	1	386	0
"2013-11-26"	2	15013	5	3	3	43	2	1	618	0
"2013-11-26"	2	15013	5	3	3	44	3	1	582	0
"2013-11-26"	2	15013	5	3	3	45	15	0	470	0
"2013-11-26"	2	15013	5	3	3	46	14	1	522	0
"2013-11-26"	2	15013	5	3	3	47	13	0	275	0
"2013-11-26"	2	15013	5	3	3	48	16	1	183	0
"2013-11-26"	2	15013	5	3	4	49	6	0	376	0
"2013-11-26"	2	15013	5	3	4	50	12	1	438	0
"2013-11-26"	2	15013	5	3	4	51	13	0	236	0
"2013-11-26"	2	15013	5	3	4	52	4	1	962	0
"2013-11-26"	2	15013	5	3	4	53	10	1	672	0
"2013-11-26"	2	15013	5	3	4	54	3	1	284	0
"2013-11-26"	2	15013	5	3	4	55	16	1	760	0
"2013-11-26"	2	15013	5	3	4	56	9	0	255	0
"2013-11-26"	2	15013	5	3	4	57	1	1	355	0
"2013-11-26"	2	15013	5	3	4	58	7	0	268	0
"2013-11-26"	2	15013	5	3	4	59	11	0	361	0
"2013-11-26"	2	15013	5	3	4	60	8	0	337	0
"2013-11-26"	2	15013	5	3	4	61	2	1	587	0
"2013-11-26"	2	15013	5	3	4	62	14	1	434	0
"2013-11-26"	2	15013	5	3	4	63	15	0	336	0
"2013-11-26"	2	15013	5	3	4	64	5	0	290	0
"2013-11-26"	2	15013	5	3	5	65	16	1	372	0
"2013-11-26"	2	15013	5	3	5	66	7	0	236	0
"2013-11-26"	2	15013	5	3	5	67	8	0	442	0
"2013-11-26"	2	15013	5	3	5	68	2	1	375	0
"2013-11-26"	2	15013	5	3	5	69	1	1	375	0
"2013-11-26"	2	15013	5	3	5	70	11	0	270	0
"2013-11-26"	2	15013	5	3	5	71	9	0	340	0
"2013-11-26"	2	15013	5	3	5	72	15	0	309	0
"2013-11-26"	2	15013	5	3	5	73	4	1	279	0
"2013-11-26"	2	15013	5	3	5	74	6	0	483	0
"2013-11-26"	2	15013	5	3	5	75	5	0	398	0
"2013-11-26"	2	15013	5	3	5	76	3	1	221	0
"2013-11-26"	2	15013	5	3	5	77	10	1	380	0
"2013-11-26"	2	15013	5	3	5	78	12	1	515	0
"2013-11-26"	2	15013	5	3	5	79	14	1	573	0
"2013-11-26"	2	15013	5	3	5	80	13	0	548	0
"2013-11-26"	2	15013	5	3	6	81	3	1	453	0
"2013-11-26"	2	15013	5	3	6	82	11	0	578	0
"2013-11-26"	2	15013	5	3	6	83	10	1	577	0
"2013-11-26"	2	15013	5	3	6	84	15	0	456	0
"2013-11-26"	2	15013	5	3	6	85	12	1	251	0
"2013-11-26"	2	15013	5	3	6	86	2	1	593	0
"2013-11-26"	2	15013	5	3	6	87	4	1	647	0
"2013-11-26"	2	15013	5	3	6	88	9	0	227	0
"2013-11-26"	2	15013	5	3	6	89	7	0	409	0
"2013-11-26"	2	15013	5	3	6	90	13	0	1152	0
"2013-11-26"	2	15013	5	3	6	91	14	1	0	0
"2013-11-26"	2	15013	5	3	6	92	16	1	279	0
"2013-11-26"	2	15013	5	3	6	93	8	0	299	0
"2013-11-26"	2	15013	5	3	6	94	1	1	55	0
"2013-11-26"	2	15013	5	3	6	95	5	0	29	0
"2013-11-26"	2	15013	5	3	6	96	6	0	147	0
"2013-11-26"	2	15013	5	3	7	97	16	1	125	0
"2013-11-26"	2	15013	5	3	7	98	7	0	262	0
"2013-11-26"	2	15013	5	3	7	99	3	1	491	0
"2013-11-26"	2	15013	5	3	7	100	15	0	206	0
"2013-11-26"	2	15013	5	3	7	101	1	1	61	0
"2013-11-26"	2	15013	5	3	7	102	11	0	218	0
"2013-11-26"	2	15013	5	3	7	103	5	0	241	0
"2013-11-26"	2	15013	5	3	7	104	2	1	255	0
"2013-11-26"	2	15013	5	3	7	105	8	0	340	0
"2013-11-26"	2	15013	5	3	7	106	10	1	437	0
"2013-11-26"	2	15013	5	3	7	107	6	0	418	0
"2013-11-26"	2	15013	5	3	7	108	14	1	320	0
"2013-11-26"	2	15013	5	3	7	109	4	1	371	0
"2013-11-26"	2	15013	5	3	7	110	13	0	475	0
"2013-11-26"	2	15013	5	3	7	111	9	0	351	0
"2013-11-26"	2	15013	5	3	7	112	12	1	663	0
"2013-11-26"	2	15013	5	3	8	113	6	0	267	0
"2013-11-26"	2	15013	5	3	8	114	15	0	464	0
"2013-11-26"	2	15013	5	3	8	115	12	1	196	0
"2013-11-26"	2	15013	5	3	8	116	10	1	307	0
"2013-11-26"	2	15013	5	3	8	117	4	1	654	0
"2013-11-26"	2	15013	5	3	8	118	11	0	377	0
"2013-11-26"	2	15013	5	3	8	119	13	0	809	0
"2013-11-26"	2	15013	5	3	8	120	9	0	462	0
"2013-11-26"	2	15013	5	3	8	121	3	1	610	0
"2013-11-26"	2	15013	5	3	8	122	16	1	296	0
"2013-11-26"	2	15013	5	3	8	123	14	1	251	0
"2013-11-26"	2	15013	5	3	8	124	8	0	345	0
"2013-11-26"	2	15013	5	3	8	125	7	0	41	0
"2013-11-26"	2	15013	5	3	8	126	1	1	295	0
"2013-11-26"	2	15013	5	3	8	127	5	0	283	0
"2013-11-26"	2	15013	5	3	8	128	2	1	206	0
"2013-11-26"	2	15014	8	2	1	1	4	1	0	0
"2013-11-26"	2	15014	8	2	1	2	6	1	0	0
"2013-11-26"	2	15014	8	2	1	3	2	1	0	0
"2013-11-26"	2	15014	8	2	1	4	3	1	0	0
"2013-11-26"	2	15014	8	2	1	5	5	1	0	0
"2013-11-26"	2	15014	8	2	1	6	1	1	0	0
"2013-11-26"	2	15014	8	2	1	7	7	1	0	0
"2013-11-26"	2	15014	8	2	1	8	8	1	0	0
"2013-11-26"	2	15014	8	2	2	9	3	1	0	0
"2013-11-26"	2	15014	8	2	2	10	7	1	0	0
"2013-11-26"	2	15014	8	2	2	11	8	1	0	0
"2013-11-26"	2	15014	8	2	2	12	4	1	0	0
"2013-11-26"	2	15014	8	2	2	13	5	1	0	0
"2013-11-26"	2	15014	8	2	2	14	1	1	0	0
"2013-11-26"	2	15014	8	2	2	15	6	1	0	0
"2013-11-26"	2	15014	8	2	2	16	2	1	0	0
"2013-11-26"	2	15014	8	2	3	17	8	1	0	0
"2013-11-26"	2	15014	8	2	3	18	6	1	0	0
"2013-11-26"	2	15014	8	2	3	19	4	1	0	0
"2013-11-26"	2	15014	8	2	3	20	2	1	0	0
"2013-11-26"	2	15014	8	2	3	21	3	1	0	0
"2013-11-26"	2	15014	8	2	3	22	5	1	0	0
"2013-11-26"	2	15014	8	2	3	23	7	1	0	0
"2013-11-26"	2	15014	8	2	3	24	1	1	0	0
"2013-11-26"	2	15014	8	3	1	1	13	1	0	0
"2013-11-26"	2	15014	8	3	1	2	7	0	2	0
"2013-11-26"	2	15014	8	3	1	3	6	1	0	0
"2013-11-26"	2	15014	8	3	1	4	1	1	732	0
"2013-11-26"	2	15014	8	3	1	5	11	0	524	0
"2013-11-26"	2	15014	8	3	1	6	3	1	406	0
"2013-11-26"	2	15014	8	3	1	7	9	0	581	0
"2013-11-26"	2	15014	8	3	1	8	10	1	980	0
"2013-11-26"	2	15014	8	3	1	9	5	0	602	0
"2013-11-26"	2	15014	8	3	1	10	12	1	328	0
"2013-11-26"	2	15014	8	3	1	11	14	1	297	0
"2013-11-26"	2	15014	8	3	1	12	4	1	468	0
"2013-11-26"	2	15014	8	3	1	13	2	1	432	0
"2013-11-26"	2	15014	8	3	1	14	8	0	422	0
"2013-11-26"	2	15014	8	3	1	15	15	0	340	0
"2013-11-26"	2	15014	8	3	1	16	16	1	718	0
"2013-11-26"	2	15014	8	3	2	17	1	1	351	0
"2013-11-26"	2	15014	8	3	2	18	10	1	416	0
"2013-11-26"	2	15014	8	3	2	19	2	1	573	0
"2013-11-26"	2	15014	8	3	2	20	8	0	324	0
"2013-11-26"	2	15014	8	3	2	21	6	0	407	0
"2013-11-26"	2	15014	8	3	2	22	7	0	349	0
"2013-11-26"	2	15014	8	3	2	23	9	0	438	0
"2013-11-26"	2	15014	8	3	2	24	4	1	364	0
"2013-11-26"	2	15014	8	3	2	25	12	1	252	0
"2013-11-26"	2	15014	8	3	2	26	15	0	354	0
"2013-11-26"	2	15014	8	3	2	27	3	1	243	0
"2013-11-26"	2	15014	8	3	2	28	13	0	328	0
"2013-11-26"	2	15014	8	3	2	29	14	1	377	0
"2013-11-26"	2	15014	8	3	2	30	16	1	400	0
"2013-11-26"	2	15014	8	3	2	31	11	0	311	0
"2013-11-26"	2	15014	8	3	2	32	5	0	490	0
"2013-11-26"	2	15014	8	3	3	33	13	0	533	0
"2013-11-26"	2	15014	8	3	3	34	4	1	326	0
"2013-11-26"	2	15014	8	3	3	35	10	0	312	0
"2013-11-26"	2	15014	8	3	3	36	15	1	314	0
"2013-11-26"	2	15014	8	3	3	37	6	1	285	0
"2013-11-26"	2	15014	8	3	3	38	2	0	384	0
"2013-11-26"	2	15014	8	3	3	39	9	1	439	0
"2013-11-26"	2	15014	8	3	3	40	12	1	221	0
"2013-11-26"	2	15014	8	3	3	41	3	1	508	0
"2013-11-26"	2	15014	8	3	3	42	8	0	302	0
"2013-11-26"	2	15014	8	3	3	43	14	1	553	0
"2013-11-26"	2	15014	8	3	3	44	11	0	434	0
"2013-11-26"	2	15014	8	3	3	45	7	0	279	0
"2013-11-26"	2	15014	8	3	3	46	16	1	354	0
"2013-11-26"	2	15014	8	3	3	47	5	0	387	0
"2013-11-26"	2	15014	8	3	3	48	1	1	403	0
"2013-11-26"	2	15014	8	3	4	49	11	0	498	0
"2013-11-26"	2	15014	8	3	4	50	7	0	396	0
"2013-11-26"	2	15014	8	3	4	51	1	1	307	0
"2013-11-26"	2	15014	8	3	4	52	15	0	342	0
"2013-11-26"	2	15014	8	3	4	53	4	1	327	0
"2013-11-26"	2	15014	8	3	4	54	16	1	289	0
"2013-11-26"	2	15014	8	3	4	55	3	1	301	0
"2013-11-26"	2	15014	8	3	4	56	10	1	383	0
"2013-11-26"	2	15014	8	3	4	57	8	0	303	0
"2013-11-26"	2	15014	8	3	4	58	12	1	394	0
"2013-11-26"	2	15014	8	3	4	59	13	0	345	0
"2013-11-26"	2	15014	8	3	4	60	14	1	362	0
"2013-11-26"	2	15014	8	3	4	61	2	1	290	0
"2013-11-26"	2	15014	8	3	4	62	6	0	389	0
"2013-11-26"	2	15014	8	3	4	63	5	0	261	0
"2013-11-26"	2	15014	8	3	4	64	9	0	290	0
"2013-11-26"	2	15014	8	3	5	65	5	0	292	0
"2013-11-26"	2	15014	8	3	5	66	11	0	335	0
"2013-11-26"	2	15014	8	3	5	67	6	0	329	0
"2013-11-26"	2	15014	8	3	5	68	15	0	363	0
"2013-11-26"	2	15014	8	3	5	69	2	1	339	0
"2013-11-26"	2	15014	8	3	5	70	16	1	309	0
"2013-11-26"	2	15014	8	3	5	71	7	0	335	0
"2013-11-26"	2	15014	8	3	5	72	1	1	849	0
"2013-11-26"	2	15014	8	3	5	73	14	1	332	0
"2013-11-26"	2	15014	8	3	5	74	4	1	302	0
"2013-11-26"	2	15014	8	3	5	75	13	0	336	0
"2013-11-26"	2	15014	8	3	5	76	8	0	322	0
"2013-11-26"	2	15014	8	3	5	77	10	1	253	0
"2013-11-26"	2	15014	8	3	5	78	9	0	706	0
"2013-11-26"	2	15014	8	3	5	79	12	1	268	0
"2013-11-26"	2	15014	8	3	5	80	3	1	337	0
"2013-11-26"	2	15014	8	3	6	81	15	0	322	0
"2013-11-26"	2	15014	8	3	6	82	1	1	309	0
"2013-11-26"	2	15014	8	3	6	83	4	1	247	0
"2013-11-26"	2	15014	8	3	6	84	10	1	317	0
"2013-11-26"	2	15014	8	3	6	85	7	0	366	0
"2013-11-26"	2	15014	8	3	6	86	13	0	334	0
"2013-11-26"	2	15014	8	3	6	87	5	0	384	0
"2013-11-26"	2	15014	8	3	6	88	9	0	400	0
"2013-11-26"	2	15014	8	3	6	89	14	1	471	0
"2013-11-26"	2	15014	8	3	6	90	8	0	315	0
"2013-11-26"	2	15014	8	3	6	91	3	1	301	0
"2013-11-26"	2	15014	8	3	6	92	6	0	40	0
"2013-11-26"	2	15014	8	3	6	93	11	0	326	0
"2013-11-26"	2	15014	8	3	6	94	12	1	248	0
"2013-11-26"	2	15014	8	3	6	95	2	1	253	0
"2013-11-26"	2	15014	8	3	6	96	16	1	266	0
"2013-11-26"	2	15014	8	3	7	97	6	0	383	0
"2013-11-26"	2	15014	8	3	7	98	10	1	271	0
"2013-11-26"	2	15014	8	3	7	99	9	0	283	0
"2013-11-26"	2	15014	8	3	7	100	3	1	303	0
"2013-11-26"	2	15014	8	3	7	101	15	0	378	0
"2013-11-26"	2	15014	8	3	7	102	4	1	305	0
"2013-11-26"	2	15014	8	3	7	103	12	1	291	0
"2013-11-26"	2	15014	8	3	7	104	7	0	375	0
"2013-11-26"	2	15014	8	3	7	105	13	0	358	0
"2013-11-26"	2	15014	8	3	7	106	16	1	359	0
"2013-11-26"	2	15014	8	3	7	107	8	0	455	0
"2013-11-26"	2	15014	8	3	7	108	14	1	452	0
"2013-11-26"	2	15014	8	3	7	109	1	1	328	0
"2013-11-26"	2	15014	8	3	7	110	11	0	290	0
"2013-11-26"	2	15014	8	3	7	111	2	1	309	0
"2013-11-26"	2	15014	8	3	7	112	5	0	256	0
"2013-11-26"	2	15014	8	3	8	113	13	0	340	0
"2013-11-26"	2	15014	8	3	8	114	14	1	270	0
"2013-11-26"	2	15014	8	3	8	115	10	1	306	0
"2013-11-26"	2	15014	8	3	8	116	8	0	317	0
"2013-11-26"	2	15014	8	3	8	117	1	1	327	0
"2013-11-26"	2	15014	8	3	8	118	6	0	297	0
"2013-11-26"	2	15014	8	3	8	119	4	1	468	0
"2013-11-26"	2	15014	8	3	8	120	3	1	496	0
"2013-11-26"	2	15014	8	3	8	121	9	1	0	0
"2013-11-26"	2	15014	8	3	8	122	11	1	0	0
"2013-11-26"	2	15014	8	3	8	123	2	1	230	0
"2013-11-26"	2	15014	8	3	8	124	15	0	124	0
"2013-11-26"	2	15014	8	3	8	125	5	0	247	0
"2013-11-26"	2	15014	8	3	8	126	12	1	276	0
"2013-11-26"	2	15014	8	3	8	127	16	1	240	0
"2013-11-26"	2	15014	8	3	8	128	7	0	254	0
"2013-11-26"	2	15015	11	2	1	1	6	1	0	0
"2013-11-26"	2	15015	11	2	1	2	3	1	0	0
"2013-11-26"	2	15015	11	2	1	3	2	1	0	0
"2013-11-26"	2	15015	11	2	1	4	1	1	0	0
"2013-11-26"	2	15015	11	2	1	5	4	1	0	0
"2013-11-26"	2	15015	11	2	1	6	7	1	0	0
"2013-11-26"	2	15015	11	2	1	7	8	1	0	0
"2013-11-26"	2	15015	11	2	1	8	5	1	0	0
"2013-11-26"	2	15015	11	2	2	9	4	1	0	0
"2013-11-26"	2	15015	11	2	2	10	1	1	0	0
"2013-11-26"	2	15015	11	2	2	11	6	1	0	0
"2013-11-26"	2	15015	11	2	2	12	8	1	0	0
"2013-11-26"	2	15015	11	2	2	13	2	1	0	0
"2013-11-26"	2	15015	11	2	2	14	5	1	0	0
"2013-11-26"	2	15015	11	2	2	15	3	1	0	0
"2013-11-26"	2	15015	11	2	2	16	7	1	0	0
"2013-11-26"	2	15015	11	2	3	17	1	1	0	0
"2013-11-26"	2	15015	11	2	3	18	4	1	0	0
"2013-11-26"	2	15015	11	2	3	19	3	1	0	0
"2013-11-26"	2	15015	11	2	3	20	8	1	0	0
"2013-11-26"	2	15015	11	2	3	21	2	1	0	0
"2013-11-26"	2	15015	11	2	3	22	7	1	0	0
"2013-11-26"	2	15015	11	2	3	23	5	1	0	0
"2013-11-26"	2	15015	11	2	3	24	6	1	0	0
"2013-11-26"	2	15015	11	3	1	1	8	0	247	0
"2013-11-26"	2	15015	11	3	1	2	15	0	317	0
"2013-11-26"	2	15015	11	3	1	3	1	1	254	0
"2013-11-26"	2	15015	11	3	1	4	16	1	260	0
"2013-11-26"	2	15015	11	3	1	5	11	0	320	0
"2013-11-26"	2	15015	11	3	1	6	5	0	211	0
"2013-11-26"	2	15015	11	3	1	7	9	0	473	0
"2013-11-26"	2	15015	11	3	1	8	12	1	310	0
"2013-11-26"	2	15015	11	3	1	9	10	1	336	0
"2013-11-26"	2	15015	11	3	1	10	3	1	338	0
"2013-11-26"	2	15015	11	3	1	11	7	0	307	0
"2013-11-26"	2	15015	11	3	1	12	13	0	397	0
"2013-11-26"	2	15015	11	3	1	13	4	1	244	0
"2013-11-26"	2	15015	11	3	1	14	6	0	337	0
"2013-11-26"	2	15015	11	3	1	15	2	1	515	0
"2013-11-26"	2	15015	11	3	1	16	14	1	341	0
"2013-11-26"	2	15015	11	3	2	17	9	0	383	0
"2013-11-26"	2	15015	11	3	2	18	5	0	326	0
"2013-11-26"	2	15015	11	3	2	19	13	0	303	0
"2013-11-26"	2	15015	11	3	2	20	6	0	274	0
"2013-11-26"	2	15015	11	3	2	21	1	1	534	0
"2013-11-26"	2	15015	11	3	2	22	16	1	495	0
"2013-11-26"	2	15015	11	3	2	23	8	0	426	0
"2013-11-26"	2	15015	11	3	2	24	15	0	1231	0
"2013-11-26"	2	15015	11	3	2	25	3	1	819	0
"2013-11-26"	2	15015	11	3	2	26	10	1	559	0
"2013-11-26"	2	15015	11	3	2	27	7	0	534	0
"2013-11-26"	2	15015	11	3	2	28	12	1	1039	0
"2013-11-26"	2	15015	11	3	2	29	2	1	299	0
"2013-11-26"	2	15015	11	3	2	30	11	0	270	0
"2013-11-26"	2	15015	11	3	2	31	14	1	475	0
"2013-11-26"	2	15015	11	3	2	32	4	1	503	0
"2013-11-26"	2	15015	11	3	3	33	3	1	298	0
"2013-11-26"	2	15015	11	3	3	34	12	1	341	0
"2013-11-26"	2	15015	11	3	3	35	4	1	343	0
"2013-11-26"	2	15015	11	3	3	36	8	0	287	0
"2013-11-26"	2	15015	11	3	3	37	1	1	274	0
"2013-11-26"	2	15015	11	3	3	38	5	0	318	0
"2013-11-26"	2	15015	11	3	3	39	7	0	361	0
"2013-11-26"	2	15015	11	3	3	40	11	0	305	0
"2013-11-26"	2	15015	11	3	3	41	13	0	292	0
"2013-11-26"	2	15015	11	3	3	42	14	1	792	0
"2013-11-26"	2	15015	11	3	3	43	15	0	286	0
"2013-11-26"	2	15015	11	3	3	44	2	1	401	0
"2013-11-26"	2	15015	11	3	3	45	6	0	296	0
"2013-11-26"	2	15015	11	3	3	46	16	1	323	0
"2013-11-26"	2	15015	11	3	3	47	10	1	1734	0
"2013-11-26"	2	15015	11	3	3	48	9	0	291	0
"2013-11-26"	2	15015	11	3	4	49	15	0	262	0
"2013-11-26"	2	15015	11	3	4	50	10	1	315	0
"2013-11-26"	2	15015	11	3	4	51	11	0	325	0
"2013-11-26"	2	15015	11	3	4	52	6	0	1335	0
"2013-11-26"	2	15015	11	3	4	53	5	0	246	0
"2013-11-26"	2	15015	11	3	4	54	16	1	267	0
"2013-11-26"	2	15015	11	3	4	55	4	1	288	0
"2013-11-26"	2	15015	11	3	4	56	8	0	812	0
"2013-11-26"	2	15015	11	3	4	57	12	1	745	0
"2013-11-26"	2	15015	11	3	4	58	3	1	280	0
"2013-11-26"	2	15015	11	3	4	59	2	1	931	0
"2013-11-26"	2	15015	11	3	4	60	7	0	459	0
"2013-11-26"	2	15015	11	3	4	61	13	0	431	0
"2013-11-26"	2	15015	11	3	4	62	1	0	469	0
"2013-11-26"	2	15015	11	3	4	63	14	1	289	0
"2013-11-26"	2	15015	11	3	4	64	9	0	77	0
"2013-11-26"	2	15015	11	3	5	65	16	1	545	0
"2013-11-26"	2	15015	11	3	5	66	1	1	474	0
"2013-11-26"	2	15015	11	3	5	67	5	0	1118	0
"2013-11-26"	2	15015	11	3	5	68	6	0	718	0
"2013-11-26"	2	15015	11	3	5	69	9	0	303	0
"2013-11-26"	2	15015	11	3	5	70	14	1	1074	0
"2013-11-26"	2	15015	11	3	5	71	12	1	588	0
"2013-11-26"	2	15015	11	3	5	72	11	0	323	0
"2013-11-26"	2	15015	11	3	5	73	4	1	350	0
"2013-11-26"	2	15015	11	3	5	74	7	0	311	0
"2013-11-26"	2	15015	11	3	5	75	15	0	1536	0
"2013-11-26"	2	15015	11	3	5	76	2	1	439	0
"2013-11-26"	2	15015	11	3	5	77	3	1	276	0
"2013-11-26"	2	15015	11	3	5	78	10	1	232	0
"2013-11-26"	2	15015	11	3	5	79	13	0	334	0
"2013-11-26"	2	15015	11	3	5	80	8	0	1080	0
"2013-11-26"	2	15015	11	3	6	81	9	0	281	0
"2013-11-26"	2	15015	11	3	6	82	8	0	317	0
"2013-11-26"	2	15015	11	3	6	83	1	1	479	0
"2013-11-26"	2	15015	11	3	6	84	3	1	226	0
"2013-11-26"	2	15015	11	3	6	85	14	1	256	0
"2013-11-26"	2	15015	11	3	6	86	10	1	373	0
"2013-11-26"	2	15015	11	3	6	87	4	1	438	0
"2013-11-26"	2	15015	11	3	6	88	7	0	363	0
"2013-11-26"	2	15015	11	3	6	89	6	0	668	0
"2013-11-26"	2	15015	11	3	6	90	5	0	1327	0
"2013-11-26"	2	15015	11	3	6	91	16	1	325	0
"2013-11-26"	2	15015	11	3	6	92	11	0	1119	0
"2013-11-26"	2	15015	11	3	6	93	12	1	615	0
"2013-11-26"	2	15015	11	3	6	94	2	1	517	0
"2013-11-26"	2	15015	11	3	6	95	13	0	1055	0
"2013-11-26"	2	15015	11	3	6	96	15	0	290	0
"2013-11-26"	2	15015	11	3	7	97	5	0	389	0
"2013-11-26"	2	15015	11	3	7	98	16	1	365	0
"2013-11-26"	2	15015	11	3	7	99	15	0	332	0
"2013-11-26"	2	15015	11	3	7	100	9	0	686	0
"2013-11-26"	2	15015	11	3	7	101	13	0	256	0
"2013-11-26"	2	15015	11	3	7	102	4	1	1061	0
"2013-11-26"	2	15015	11	3	7	103	7	0	207	0
"2013-11-26"	2	15015	11	3	7	104	2	1	303	0
"2013-11-26"	2	15015	11	3	7	105	14	1	354	0
"2013-11-26"	2	15015	11	3	7	106	12	1	259	0
"2013-11-26"	2	15015	11	3	7	107	11	0	279	0
"2013-11-26"	2	15015	11	3	7	108	8	0	307	0
"2013-11-26"	2	15015	11	3	7	109	1	1	261	0
"2013-11-26"	2	15015	11	3	7	110	10	1	274	0
"2013-11-26"	2	15015	11	3	7	111	3	1	262	0
"2013-11-26"	2	15015	11	3	7	112	6	0	314	0
"2013-11-26"	2	15015	11	3	8	113	7	0	309	0
"2013-11-26"	2	15015	11	3	8	114	6	0	295	0
"2013-11-26"	2	15015	11	3	8	115	2	1	1017	0
"2013-11-26"	2	15015	11	3	8	116	9	0	311	0
"2013-11-26"	2	15015	11	3	8	117	8	0	864	0
"2013-11-26"	2	15015	11	3	8	118	13	0	499	0
"2013-11-26"	2	15015	11	3	8	119	3	1	366	0
"2013-11-26"	2	15015	11	3	8	120	15	0	342	0
"2013-11-26"	2	15015	11	3	8	121	10	1	311	0
"2013-11-26"	2	15015	11	3	8	122	14	1	298	0
"2013-11-26"	2	15015	11	3	8	123	4	1	301	0
"2013-11-26"	2	15015	11	3	8	124	12	1	415	0
"2013-11-26"	2	15015	11	3	8	125	5	0	429	0
"2013-11-26"	2	15015	11	3	8	126	16	1	427	0
"2013-11-26"	2	15015	11	3	8	127	11	0	352	0
"2013-11-26"	2	15015	11	3	8	128	1	1	113	0
"2013-11-26"	2	15016	14	2	1	1	5	1	0	0
"2013-11-26"	2	15016	14	2	1	2	3	1	0	0
"2013-11-26"	2	15016	14	2	1	3	1	1	0	0
"2013-11-26"	2	15016	14	2	1	4	2	1	0	0
"2013-11-26"	2	15016	14	2	1	5	7	1	0	0
"2013-11-26"	2	15016	14	2	1	6	4	1	0	0
"2013-11-26"	2	15016	14	2	1	7	6	1	0	0
"2013-11-26"	2	15016	14	2	1	8	8	1	0	0
"2013-11-26"	2	15016	14	2	2	9	2	1	0	0
"2013-11-26"	2	15016	14	2	2	10	4	1	0	0
"2013-11-26"	2	15016	14	2	2	11	3	1	0	0
"2013-11-26"	2	15016	14	2	2	12	1	1	0	0
"2013-11-26"	2	15016	14	2	2	13	5	1	0	0
"2013-11-26"	2	15016	14	2	2	14	7	1	0	0
"2013-11-26"	2	15016	14	2	2	15	6	1	0	0
"2013-11-26"	2	15016	14	2	2	16	8	1	0	0
"2013-11-26"	2	15016	14	2	3	17	6	1	0	0
"2013-11-26"	2	15016	14	2	3	18	4	1	0	0
"2013-11-26"	2	15016	14	2	3	19	8	1	0	0
"2013-11-26"	2	15016	14	2	3	20	5	1	0	0
"2013-11-26"	2	15016	14	2	3	21	1	1	0	0
"2013-11-26"	2	15016	14	2	3	22	7	1	0	0
"2013-11-26"	2	15016	14	2	3	23	2	1	0	0
"2013-11-26"	2	15016	14	2	3	24	3	1	0	0
"2013-11-26"	2	15016	14	3	1	1	4	0	1728	0
"2013-11-26"	2	15016	14	3	1	2	10	1	14	0
"2013-11-26"	2	15016	14	3	1	3	2	1	461	0
"2013-11-26"	2	15016	14	3	1	4	9	0	528	0
"2013-11-26"	2	15016	14	3	1	5	13	0	418	0
"2013-11-26"	2	15016	14	3	1	6	11	0	320	0
"2013-11-26"	2	15016	14	3	1	7	16	1	658	0
"2013-11-26"	2	15016	14	3	1	8	7	0	318	0
"2013-11-26"	2	15016	14	3	1	9	8	0	289	0
"2013-11-26"	2	15016	14	3	1	10	1	1	525	0
"2013-11-26"	2	15016	14	3	1	11	6	0	431	0
"2013-11-26"	2	15016	14	3	1	12	14	1	836	0
"2013-11-26"	2	15016	14	3	1	13	5	0	783	0
"2013-11-26"	2	15016	14	3	1	14	15	0	534	0
"2013-11-26"	2	15016	14	3	1	15	3	1	559	0
"2013-11-26"	2	15016	14	3	1	16	12	1	639	0
"2013-11-26"	2	15016	14	3	2	17	11	0	931	0
"2013-11-26"	2	15016	14	3	2	18	14	1	0	0
"2013-11-26"	2	15016	14	3	2	19	15	0	333	0
"2013-11-26"	2	15016	14	3	2	20	13	0	431	0
"2013-11-26"	2	15016	14	3	2	21	1	1	540	0
"2013-11-26"	2	15016	14	3	2	22	2	1	1780	0
"2013-11-26"	2	15016	14	3	2	23	6	0	432	0
"2013-11-26"	2	15016	14	3	2	24	4	1	333	0
"2013-11-26"	2	15016	14	3	2	25	16	1	1191	0
"2013-11-26"	2	15016	14	3	2	26	9	0	476	0
"2013-11-26"	2	15016	14	3	2	27	5	0	1031	0
"2013-11-26"	2	15016	14	3	2	28	7	0	403	0
"2013-11-26"	2	15016	14	3	2	29	10	1	602	0
"2013-11-26"	2	15016	14	3	2	30	12	1	487	0
"2013-11-26"	2	15016	14	3	2	31	8	0	322	0
"2013-11-26"	2	15016	14	3	2	32	3	1	533	0
"2013-11-26"	2	15016	14	3	3	33	15	0	398	0
"2013-11-26"	2	15016	14	3	3	34	5	0	821	0
"2013-11-26"	2	15016	14	3	3	35	3	1	570	0
"2013-11-26"	2	15016	14	3	3	36	11	0	322	0
"2013-11-26"	2	15016	14	3	3	37	12	1	364	0
"2013-11-26"	2	15016	14	3	3	38	10	1	500	0
"2013-11-26"	2	15016	14	3	3	39	16	1	406	0
"2013-11-26"	2	15016	14	3	3	40	8	0	517	0
"2013-11-26"	2	15016	14	3	3	41	1	1	351	0
"2013-11-26"	2	15016	14	3	3	42	13	0	792	0
"2013-11-26"	2	15016	14	3	3	43	2	1	342	0
"2013-11-26"	2	15016	14	3	3	44	7	0	839	0
"2013-11-26"	2	15016	14	3	3	45	9	0	348	0
"2013-11-26"	2	15016	14	3	3	46	4	1	549	0
"2013-11-26"	2	15016	14	3	3	47	6	0	964	0
"2013-11-26"	2	15016	14	3	3	48	14	1	1371	0
"2013-11-26"	2	15016	14	3	4	49	16	1	344	0
"2013-11-26"	2	15016	14	3	4	50	1	1	529	0
"2013-11-26"	2	15016	14	3	4	51	8	0	394	0
"2013-11-26"	2	15016	14	3	4	52	14	1	409	0
"2013-11-26"	2	15016	14	3	4	53	2	1	663	0
"2013-11-26"	2	15016	14	3	4	54	9	0	371	0
"2013-11-26"	2	15016	14	3	4	55	4	1	299	0
"2013-11-26"	2	15016	14	3	4	56	11	0	229	0
"2013-11-26"	2	15016	14	3	4	57	6	0	451	0
"2013-11-26"	2	15016	14	3	4	58	13	0	344	0
"2013-11-26"	2	15016	14	3	4	59	10	1	617	0
"2013-11-26"	2	15016	14	3	4	60	3	1	430	0
"2013-11-26"	2	15016	14	3	4	61	5	0	332	0
"2013-11-26"	2	15016	14	3	4	62	7	0	430	0
"2013-11-26"	2	15016	14	3	4	63	12	1	507	0
"2013-11-26"	2	15016	14	3	4	64	15	0	438	0
"2013-11-26"	2	15016	14	3	5	65	7	0	306	0
"2013-11-26"	2	15016	14	3	5	66	10	1	565	0
"2013-11-26"	2	15016	14	3	5	67	2	1	380	0
"2013-11-26"	2	15016	14	3	5	68	12	1	356	0
"2013-11-26"	2	15016	14	3	5	69	15	0	333	0
"2013-11-26"	2	15016	14	3	5	70	3	1	319	0
"2013-11-26"	2	15016	14	3	5	71	8	0	321	0
"2013-11-26"	2	15016	14	3	5	72	14	1	596	0
"2013-11-26"	2	15016	14	3	5	73	5	0	402	0
"2013-11-26"	2	15016	14	3	5	74	4	1	529	0
"2013-11-26"	2	15016	14	3	5	75	16	1	385	0
"2013-11-26"	2	15016	14	3	5	76	9	0	369	0
"2013-11-26"	2	15016	14	3	5	77	1	1	393	0
"2013-11-26"	2	15016	14	3	5	78	6	0	336	0
"2013-11-26"	2	15016	14	3	5	79	13	0	506	0
"2013-11-26"	2	15016	14	3	5	80	11	0	1284	0
"2013-11-26"	2	15016	14	3	6	81	3	1	709	0
"2013-11-26"	2	15016	14	3	6	82	1	1	614	0
"2013-11-26"	2	15016	14	3	6	83	8	0	635	0
"2013-11-26"	2	15016	14	3	6	84	4	1	512	0
"2013-11-26"	2	15016	14	3	6	85	15	0	338	0
"2013-11-26"	2	15016	14	3	6	86	7	0	947	0
"2013-11-26"	2	15016	14	3	6	87	16	1	315	0
"2013-11-26"	2	15016	14	3	6	88	6	0	517	0
"2013-11-26"	2	15016	14	3	6	89	12	1	351	0
"2013-11-26"	2	15016	14	3	6	90	10	0	1024	0
"2013-11-26"	2	15016	14	3	6	91	9	0	348	0
"2013-11-26"	2	15016	14	3	6	92	11	0	324	0
"2013-11-26"	2	15016	14	3	6	93	14	1	335	0
"2013-11-26"	2	15016	14	3	6	94	13	0	585	0
"2013-11-26"	2	15016	14	3	6	95	5	0	352	0
"2013-11-26"	2	15016	14	3	6	96	2	1	481	0
"2013-11-26"	2	15016	14	3	7	97	15	0	1372	0
"2013-11-26"	2	15016	14	3	7	98	16	1	305	0
"2013-11-26"	2	15016	14	3	7	99	9	0	437	0
"2013-11-26"	2	15016	14	3	7	100	7	0	370	0
"2013-11-26"	2	15016	14	3	7	101	4	1	786	0
"2013-11-26"	2	15016	14	3	7	102	12	1	448	0
"2013-11-26"	2	15016	14	3	7	103	11	0	284	0
"2013-11-26"	2	15016	14	3	7	104	5	0	1032	0
"2013-11-26"	2	15016	14	3	7	105	2	1	548	0
"2013-11-26"	2	15016	14	3	7	106	14	1	388	0
"2013-11-26"	2	15016	14	3	7	107	8	0	428	0
"2013-11-26"	2	15016	14	3	7	108	13	0	346	0
"2013-11-26"	2	15016	14	3	7	109	6	0	643	0
"2013-11-26"	2	15016	14	3	7	110	10	1	822	0
"2013-11-26"	2	15016	14	3	7	111	1	1	563	0
"2013-11-26"	2	15016	14	3	7	112	3	1	419	0
"2013-11-26"	2	15016	14	3	8	113	1	1	417	0
"2013-11-26"	2	15016	14	3	8	114	7	0	343	0
"2013-11-26"	2	15016	14	3	8	115	8	0	305	0
"2013-11-26"	2	15016	14	3	8	116	15	0	476	0
"2013-11-26"	2	15016	14	3	8	117	3	1	311	0
"2013-11-26"	2	15016	14	3	8	118	11	0	337	0
"2013-11-26"	2	15016	14	3	8	119	2	1	362	0
"2013-11-26"	2	15016	14	3	8	120	14	1	419	0
"2013-11-26"	2	15016	14	3	8	121	9	0	321	0
"2013-11-26"	2	15016	14	3	8	122	12	1	395	0
"2013-11-26"	2	15016	14	3	8	123	4	1	722	0
"2013-11-26"	2	15016	14	3	8	124	10	1	299	0
"2013-11-26"	2	15016	14	3	8	125	5	0	255	0
"2013-11-26"	2	15016	14	3	8	126	6	0	364	0
"2013-11-26"	2	15016	14	3	8	127	16	1	340	0
"2013-11-26"	2	15016	14	3	8	128	13	0	333	0
"2013-11-26"	2	15017	1	2	1	1	7	1	0	0
"2013-11-26"	2	15017	1	2	1	2	2	1	0	0
"2013-11-26"	2	15017	1	2	1	3	5	1	0	0
"2013-11-26"	2	15017	1	2	1	4	4	1	0	0
"2013-11-26"	2	15017	1	2	1	5	1	1	0	0
"2013-11-26"	2	15017	1	2	1	6	8	1	0	0
"2013-11-26"	2	15017	1	2	1	7	3	1	0	0
"2013-11-26"	2	15017	1	2	1	8	6	1	0	0
"2013-11-26"	2	15017	1	2	2	9	1	1	0	0
"2013-11-26"	2	15017	1	2	2	10	4	1	0	0
"2013-11-26"	2	15017	1	2	2	11	5	1	0	0
"2013-11-26"	2	15017	1	2	2	12	2	1	0	0
"2013-11-26"	2	15017	1	2	2	13	6	1	0	0
"2013-11-26"	2	15017	1	2	2	14	7	1	0	0
"2013-11-26"	2	15017	1	2	2	15	3	1	0	0
"2013-11-26"	2	15017	1	2	2	16	8	1	0	0
"2013-11-26"	2	15017	1	2	3	17	2	1	0	0
"2013-11-26"	2	15017	1	2	3	18	3	1	0	0
"2013-11-26"	2	15017	1	2	3	19	1	1	0	0
"2013-11-26"	2	15017	1	2	3	20	6	1	0	0
"2013-11-26"	2	15017	1	2	3	21	8	1	0	0
"2013-11-26"	2	15017	1	2	3	22	7	1	0	0
"2013-11-26"	2	15017	1	2	3	23	5	1	0	0
"2013-11-26"	2	15017	1	2	3	24	4	1	0	0
"2013-11-26"	2	15017	1	3	1	1	11	1	0	0
"2013-11-26"	2	15017	1	3	1	2	2	1	493	0
"2013-11-26"	2	15017	1	3	1	3	4	1	496	0
"2013-11-26"	2	15017	1	3	1	4	13	0	321	0
"2013-11-26"	2	15017	1	3	1	5	16	1	484	0
"2013-11-26"	2	15017	1	3	1	6	8	0	399	0
"2013-11-26"	2	15017	1	3	1	7	12	1	350	0
"2013-11-26"	2	15017	1	3	1	8	5	0	391	0
"2013-11-26"	2	15017	1	3	1	9	7	0	374	0
