"subj"	"group"	"cb"	"age"	"gender"	"hand"	"block"	"trial"	"stimtype"	"stim1"	"stim2"	"outcome"	"resp"	"rt"	"acc"
601	2	2	21	"m"	"r"	1	1	15	11	12	2	1	2.3217	-1
601	2	2	21	"m"	"r"	1	2	17	14	0	2	1	0.43929	-1
601	2	2	21	"m"	"r"	1	3	13	9	0	1	1	0.39165	1
601	2	2	21	"m"	"r"	1	4	10	7	0	2	1	0.59368	-1
601	2	2	21	"m"	"r"	1	5	8	6	0	1	1	0.51335	1
601	2	2	21	"m"	"r"	1	6	6	3	4	1	1	0.29615	1
601	2	2	21	"m"	"r"	1	7	2	2	0	1	1	0.59028	1
601	2	2	21	"m"	"r"	1	8	8	6	0	1	1	0.47899	1
601	2	2	21	"m"	"r"	1	9	4	3	0	2	1	0.93729	-1
601	2	2	21	"m"	"r"	1	10	6	4	3	1	1	0.58341	1
601	2	2	21	"m"	"r"	1	11	3	1	2	2	1	0.39909	-1
601	2	2	21	"m"	"r"	1	12	11	8	0	2	1	0.40866	-1
601	2	2	21	"m"	"r"	1	13	1	1	0	1	2	0.34975	20
601	2	2	21	"m"	"r"	1	14	18	15	16	1	1	0.89596	1
601	2	2	21	"m"	"r"	1	15	11	8	0	2	1	0.35859	-1
601	2	2	21	"m"	"r"	1	16	12	7	8	1	1	0.57516	1
601	2	2	21	"m"	"r"	1	17	17	14	0	2	2	0.4258	-20
601	2	2	21	"m"	"r"	1	18	7	5	0	1	1	0.46436	1
601	2	2	21	"m"	"r"	1	19	16	13	0	2	1	0.4564	-1
601	2	2	21	"m"	"r"	1	20	13	9	0	1	3	0.50549	100
601	2	2	21	"m"	"r"	1	21	14	10	0	1	1	0.45529	1
601	2	2	21	"m"	"r"	1	22	16	13	0	2	1	0.56043	-1
601	2	2	21	"m"	"r"	1	23	7	5	0	1	3	0.3273	100
601	2	2	21	"m"	"r"	1	24	1	1	0	1	1	0.37666	1
601	2	2	21	"m"	"r"	1	25	14	10	0	1	1	0.51292	1
601	2	2	21	"m"	"r"	1	26	9	6	5	2	3	0.33492	-100
601	2	2	21	"m"	"r"	1	27	5	4	0	2	1	0.60871	-1
601	2	2	21	"m"	"r"	1	28	18	16	15	1	1	0.48792	1
601	2	2	21	"m"	"r"	1	29	12	8	7	1	1	0.47087	1
601	2	2	21	"m"	"r"	1	30	3	2	1	2	1	0.34513	-1
601	2	2	21	"m"	"r"	1	31	2	2	0	1	1	0.62342	1
601	2	2	21	"m"	"r"	1	32	10	7	0	2	1	0.6003	-1
601	2	2	21	"m"	"r"	1	33	5	4	0	2	3	0.96722	-100
601	2	2	21	"m"	"r"	1	34	4	3	0	2	2	0.40785	-20
601	2	2	21	"m"	"r"	1	35	9	6	5	2	3	1.5056	-100
601	2	2	21	"m"	"r"	1	36	15	12	11	2	1	1.4879	-1
601	2	2	21	"m"	"r"	2	37	5	4	0	2	1	0.53579	-1
601	2	2	21	"m"	"r"	2	38	7	5	0	1	3	1.334	100
601	2	2	21	"m"	"r"	2	39	8	6	0	1	3	0.31198	100
601	2	2	21	"m"	"r"	2	40	5	4	0	2	1	0.39185	-1
601	2	2	21	"m"	"r"	2	41	16	13	0	2	1	0.4059	-1
601	2	2	21	"m"	"r"	2	42	11	8	0	2	1	0.4813	-1
601	2	2	21	"m"	"r"	2	43	3	1	2	2	2	0.54435	-20
601	2	2	21	"m"	"r"	2	44	1	1	0	1	1	0.59962	1
601	2	2	21	"m"	"r"	2	45	6	4	3	1	1	0.45629	1
601	2	2	21	"m"	"r"	2	46	2	2	0	1	1	0.40672	1
601	2	2	21	"m"	"r"	2	47	14	10	0	1	3	0.39324	100
601	2	2	21	"m"	"r"	2	48	11	8	0	2	1	0.43323	-1
601	2	2	21	"m"	"r"	2	49	10	7	0	2	1	0.34544	-1
601	2	2	21	"m"	"r"	2	50	1	1	0	1	1	0.55936	1
601	2	2	21	"m"	"r"	2	51	13	9	0	1	3	0.46169	100
601	2	2	21	"m"	"r"	2	52	2	2	0	1	2	0.46378	20
601	2	2	21	"m"	"r"	2	53	16	13	0	2	1	0.51269	-1
601	2	2	21	"m"	"r"	2	54	18	16	15	1	3	0.56014	100
601	2	2	21	"m"	"r"	2	55	15	11	12	2	2	0.57781	-20
601	2	2	21	"m"	"r"	2	56	12	7	8	1	1	0.5699	1
601	2	2	21	"m"	"r"	2	57	18	15	16	1	3	0.29536	100
601	2	2	21	"m"	"r"	2	58	9	6	5	2	3	0.7122	-100
601	2	2	21	"m"	"r"	2	59	12	8	7	1	3	0.42179	100
601	2	2	21	"m"	"r"	2	60	14	10	0	1	3	0.352	100
601	2	2	21	"m"	"r"	2	61	3	2	1	2	3	1.3758	-100
601	2	2	21	"m"	"r"	2	62	13	9	0	1	3	0.47196	100
601	2	2	21	"m"	"r"	2	63	8	6	0	1	3	0.33628	100
601	2	2	21	"m"	"r"	2	64	4	3	0	2	1	0.40856	-1
601	2	2	21	"m"	"r"	2	65	9	6	5	2	1	0.31372	-1
601	2	2	21	"m"	"r"	2	66	10	7	0	2	1	0.41703	-1
601	2	2	21	"m"	"r"	2	67	7	5	0	1	1	0.44736	1
601	2	2	21	"m"	"r"	2	68	15	12	11	2	1	0.40848	-1
601	2	2	21	"m"	"r"	2	69	4	3	0	2	1	0.33592	-1
601	2	2	21	"m"	"r"	2	70	17	14	0	2	1	0.25622	-1
601	2	2	21	"m"	"r"	2	71	6	3	4	1	1	0.2652	1
601	2	2	21	"m"	"r"	2	72	17	14	0	2	1	0.36016	-1
601	2	2	21	"m"	"r"	3	73	4	3	0	2	1	0.31221	-1
601	2	2	21	"m"	"r"	3	74	10	7	0	2	1	0.30371	-1
601	2	2	21	"m"	"r"	3	75	8	6	0	1	3	0.25659	100
601	2	2	21	"m"	"r"	3	76	17	14	0	2	1	0.32701	-1
601	2	2	21	"m"	"r"	3	77	6	4	3	1	2	0.36851	20
601	2	2	21	"m"	"r"	3	78	17	14	0	2	1	0.37657	-1
601	2	2	21	"m"	"r"	3	79	16	13	0	2	1	0.31851	-1
601	2	2	21	"m"	"r"	3	80	8	6	0	1	3	0.40124	100
601	2	2	21	"m"	"r"	3	81	16	13	0	2	1	0.35119	-1
601	2	2	21	"m"	"r"	3	82	18	15	16	1	3	0.56778	100
601	2	2	21	"m"	"r"	3	83	2	2	0	1	2	0.32802	20
601	2	2	21	"m"	"r"	3	84	7	5	0	1	3	0.47227	100
601	2	2	21	"m"	"r"	3	85	2	2	0	1	3	0.55961	100
601	2	2	21	"m"	"r"	3	86	13	9	0	1	3	0.39356	100
601	2	2	21	"m"	"r"	3	87	6	3	4	1	1	0.3424	1
601	2	2	21	"m"	"r"	3	88	9	6	5	2	1	0.35093	-1
601	2	2	21	"m"	"r"	3	89	11	8	0	2	1	0.29635	-1
601	2	2	21	"m"	"r"	3	90	1	1	0	1	3	0.49454	100
601	2	2	21	"m"	"r"	3	91	12	8	7	1	1	0.50474	1
601	2	2	21	"m"	"r"	3	92	15	12	11	2	1	0.30387	-1
601	2	2	21	"m"	"r"	3	93	10	7	0	2	1	0.37551	-1
601	2	2	21	"m"	"r"	3	94	15	11	12	2	1	0.45537	-1
601	2	2	21	"m"	"r"	3	95	3	2	1	2	1	0.40043	-1
601	2	2	21	"m"	"r"	3	96	12	7	8	1	3	0.39171	100
601	2	2	21	"m"	"r"	3	97	9	6	5	2	1	0.46304	-1
601	2	2	21	"m"	"r"	3	98	18	16	15	1	3	0.32749	100
601	2	2	21	"m"	"r"	3	99	5	4	0	2	2	0.33668	-20
601	2	2	21	"m"	"r"	3	100	7	5	0	1	3	0.32948	100
601	2	2	21	"m"	"r"	3	101	4	3	0	2	1	0.79335	-1
601	2	2	21	"m"	"r"	3	102	13	9	0	1	3	0.34349	100
601	2	2	21	"m"	"r"	3	103	5	4	0	2	1	0.41621	-1
601	2	2	21	"m"	"r"	3	104	1	1	0	1	3	0.35212	100
601	2	2	21	"m"	"r"	3	105	14	10	0	1	3	0.44954	100
601	2	2	21	"m"	"r"	3	106	3	1	2	2	1	0.43241	-1
601	2	2	21	"m"	"r"	3	107	14	10	0	1	3	0.47981	100
601	2	2	21	"m"	"r"	3	108	11	8	0	2	1	0.36876	-1
601	2	2	21	"m"	"r"	4	109	17	14	0	2	1	0.3687	-1
601	2	2	21	"m"	"r"	4	110	16	13	0	2	1	0.32779	-1
601	2	2	21	"m"	"r"	4	111	12	7	8	1	1	0.4233	1
601	2	2	21	"m"	"r"	4	112	5	4	0	2	1	0.37626	-1
601	2	2	21	"m"	"r"	4	113	7	5	0	1	3	0.42546	100
601	2	2	21	"m"	"r"	4	114	4	3	0	2	2	1.0336	-20
601	2	2	21	"m"	"r"	4	115	1	1	0	1	2	0.31304	20
601	2	2	21	"m"	"r"	4	116	5	4	0	2	1	0.43206	-1
601	2	2	21	"m"	"r"	4	117	15	11	12	2	1	0.36902	-1
601	2	2	21	"m"	"r"	4	118	8	6	0	1	3	0.28949	100
601	2	2	21	"m"	"r"	4	119	10	7	0	2	1	0.31198	-1
601	2	2	21	"m"	"r"	4	120	17	14	0	2	1	0.4013	-1
601	2	2	21	"m"	"r"	4	121	6	4	3	1	1	0.59943	1
601	2	2	21	"m"	"r"	4	122	14	10	0	1	3	0.3915	100
601	2	2	21	"m"	"r"	4	123	13	9	0	1	3	0.28865	100
601	2	2	21	"m"	"r"	4	124	2	2	0	1	3	0.32044	100
601	2	2	21	"m"	"r"	4	125	10	7	0	2	1	0.47189	-1
601	2	2	21	"m"	"r"	4	126	9	6	5	2	1	0.3681	-1
601	2	2	21	"m"	"r"	4	127	14	10	0	1	3	0.40785	100
601	2	2	21	"m"	"r"	4	128	18	16	15	1	3	0.51993	100
601	2	2	21	"m"	"r"	4	129	2	2	0	1	3	0.27201	100
601	2	2	21	"m"	"r"	4	130	9	6	5	2	1	0.63261	-1
601	2	2	21	"m"	"r"	4	131	11	8	0	2	1	0.31232	-1
601	2	2	21	"m"	"r"	4	132	4	3	0	2	1	0.27021	-1
601	2	2	21	"m"	"r"	4	133	12	8	7	1	3	0.28881	100
601	2	2	21	"m"	"r"	4	134	11	8	0	2	1	0.35299	-1
601	2	2	21	"m"	"r"	4	135	15	12	11	2	1	0.35995	-1
601	2	2	21	"m"	"r"	4	136	16	13	0	2	1	0.4236	-1
601	2	2	21	"m"	"r"	4	137	3	1	2	2	1	0.29453	-1
601	2	2	21	"m"	"r"	4	138	13	9	0	1	3	0.35971	100
601	2	2	21	"m"	"r"	4	139	7	5	0	1	3	0.30543	100
601	2	2	21	"m"	"r"	4	140	18	15	16	1	3	0.32865	100
601	2	2	21	"m"	"r"	4	141	1	1	0	1	1	0.43357	1
601	2	2	21	"m"	"r"	4	142	8	6	0	1	3	0.30443	100
601	2	2	21	"m"	"r"	4	143	6	3	4	1	2	0.36804	20
601	2	2	21	"m"	"r"	4	144	3	2	1	2	1	0.31213	-1
601	2	2	21	"m"	"r"	5	145	6	3	4	1	3	0.47752	100
601	2	2	21	"m"	"r"	5	146	8	6	0	1	3	0.41762	100
601	2	2	21	"m"	"r"	5	147	13	9	0	1	3	0.30336	100
601	2	2	21	"m"	"r"	5	148	5	4	0	2	1	0.28765	-1
601	2	2	21	"m"	"r"	5	149	14	10	0	1	3	0.31232	100
601	2	2	21	"m"	"r"	5	150	1	1	0	1	3	0.33566	100
601	2	2	21	"m"	"r"	5	151	12	8	7	1	3	0.27926	100
601	2	2	21	"m"	"r"	5	152	2	2	0	1	3	0.44863	100
601	2	2	21	"m"	"r"	5	153	1	1	0	1	3	0.40172	100
601	2	2	21	"m"	"r"	5	154	9	6	5	2	1	0.31315	-1
601	2	2	21	"m"	"r"	5	155	15	12	11	2	1	0.29761	-1
601	2	2	21	"m"	"r"	5	156	11	8	0	2	1	0.36036	-1
601	2	2	21	"m"	"r"	5	157	8	6	0	1	3	0.28837	100
601	2	2	21	"m"	"r"	5	158	3	2	1	2	1	0.43807	-1
601	2	2	21	"m"	"r"	5	159	16	13	0	2	1	0.41566	-1
601	2	2	21	"m"	"r"	5	160	6	4	3	1	3	0.34294	100
601	2	2	21	"m"	"r"	5	161	4	3	0	2	1	0.39273	-1
601	2	2	21	"m"	"r"	5	162	10	7	0	2	1	0.28774	-1
601	2	2	21	"m"	"r"	5	163	18	15	16	1	3	0.28789	100
601	2	2	21	"m"	"r"	5	164	16	13	0	2	1	0.30305	-1
601	2	2	21	"m"	"r"	5	165	2	2	0	1	3	0.36027	100
601	2	2	21	"m"	"r"	5	166	17	14	0	2	1	0.3453	-1
601	2	2	21	"m"	"r"	5	167	14	10	0	1	3	0.32055	100
601	2	2	21	"m"	"r"	5	168	9	6	5	2	1	0.37632	-1
601	2	2	21	"m"	"r"	5	169	17	14	0	2	1	0.42396	-1
601	2	2	21	"m"	"r"	5	170	7	5	0	1	3	0.32878	100
601	2	2	21	"m"	"r"	5	171	12	7	8	1	3	0.40713	100
601	2	2	21	"m"	"r"	5	172	5	4	0	2	1	0.28148	-1
601	2	2	21	"m"	"r"	5	173	18	16	15	1	3	0.32061	100
601	2	2	21	"m"	"r"	5	174	3	1	2	2	3	0.39996	-100
601	2	2	21	"m"	"r"	5	175	15	11	12	2	1	0.38401	-1
601	2	2	21	"m"	"r"	5	176	10	7	0	2	1	0.51442	-1
601	2	2	21	"m"	"r"	5	177	7	5	0	1	3	0.28863	100
601	2	2	21	"m"	"r"	5	178	13	9	0	1	3	0.3672	100
601	2	2	21	"m"	"r"	5	179	11	8	0	2	1	0.32697	-1
601	2	2	21	"m"	"r"	5	180	4	3	0	2	1	0.39185	-1
601	2	2	21	"m"	"r"	6	181	14	10	0	1	3	0.24806	100
601	2	2	21	"m"	"r"	6	182	4	3	0	2	1	0.43999	-1
601	2	2	21	"m"	"r"	6	183	2	2	0	1	3	0.36814	100
601	2	2	21	"m"	"r"	6	184	12	8	7	1	3	0.25725	100
601	2	2	21	"m"	"r"	6	185	2	2	0	1	3	0.31132	100
601	2	2	21	"m"	"r"	6	186	12	7	8	1	3	0.39248	100
601	2	2	21	"m"	"r"	6	187	17	14	0	2	1	0.41677	-1
601	2	2	21	"m"	"r"	6	188	15	11	12	2	1	0.38331	-1
601	2	2	21	"m"	"r"	6	189	8	6	0	1	3	0.27289	100
601	2	2	21	"m"	"r"	6	190	1	1	0	1	3	0.36763	100
601	2	2	21	"m"	"r"	6	191	15	12	11	2	1	0.43214	-1
601	2	2	21	"m"	"r"	6	192	18	16	15	1	3	0.48937	100
601	2	2	21	"m"	"r"	6	193	6	4	3	1	3	0.29556	100
601	2	2	21	"m"	"r"	6	194	1	1	0	1	3	0.28824	100
601	2	2	21	"m"	"r"	6	195	10	7	0	2	1	0.26462	-1
601	2	2	21	"m"	"r"	6	196	17	14	0	2	1	0.42632	-1
601	2	2	21	"m"	"r"	6	197	4	3	0	2	1	0.35123	-1
601	2	2	21	"m"	"r"	6	198	18	15	16	1	3	0.35331	100
601	2	2	21	"m"	"r"	6	199	9	6	5	2	3	0.48932	-100
601	2	2	21	"m"	"r"	6	200	11	8	0	2	1	0.46436	-1
601	2	2	21	"m"	"r"	6	201	14	10	0	1	3	0.39895	100
601	2	2	21	"m"	"r"	6	202	16	13	0	2	1	0.50595	-1
601	2	2	21	"m"	"r"	6	203	13	9	0	1	3	0.3279	100
601	2	2	21	"m"	"r"	6	204	3	2	1	2	1	0.31972	-1
601	2	2	21	"m"	"r"	6	205	13	9	0	1	3	0.28115	100
601	2	2	21	"m"	"r"	6	206	6	3	4	1	3	0.3918	100
601	2	2	21	"m"	"r"	6	207	11	8	0	2	1	0.36854	-1
601	2	2	21	"m"	"r"	6	208	5	4	0	2	1	0.36632	-1
601	2	2	21	"m"	"r"	6	209	8	6	0	1	3	0.56863	100
601	2	2	21	"m"	"r"	6	210	5	4	0	2	1	0.2743	-1
601	2	2	21	"m"	"r"	6	211	7	5	0	1	3	0.32085	100
601	2	2	21	"m"	"r"	6	212	10	7	0	2	1	0.44694	-1
601	2	2	21	"m"	"r"	6	213	7	5	0	1	3	0.48141	100
601	2	2	21	"m"	"r"	6	214	16	13	0	2	1	0.39113	-1
601	2	2	21	"m"	"r"	6	215	3	1	2	2	1	0.25657	-1
601	2	2	21	"m"	"r"	6	216	9	6	5	2	1	0.31934	-1
602	3	1	19	"f"	"r"	1	1	5	4	0	2	2	0.87196	-20
602	3	1	19	"f"	"r"	1	2	1	1	0	1	1	0.31413	1
602	3	1	19	"f"	"r"	1	3	9	6	5	2	2	0.28823	-20
602	3	1	19	"f"	"r"	1	4	3	2	1	2	1	1.0007	-1
602	3	1	19	"f"	"r"	1	5	8	6	0	1	2	0.32824	20
602	3	1	19	"f"	"r"	1	6	9	6	5	2	1	0.2719	-1
602	3	1	19	"f"	"r"	1	7	5	4	0	2	1	0.58314	-1
602	3	1	19	"f"	"r"	1	8	11	8	0	2	2	0.4178	-20
602	3	1	19	"f"	"r"	1	9	2	2	0	1	3	0.32715	100
602	3	1	19	"f"	"r"	1	10	3	1	2	2	2	0.30486	-20
602	3	1	19	"f"	"r"	1	11	7	5	0	1	2	0.37524	20
602	3	1	19	"f"	"r"	1	12	13	9	0	1	1	0.26337	1
602	3	1	19	"f"	"r"	1	13	16	13	0	2	1	0.28792	-1
602	3	1	19	"f"	"r"	1	14	4	3	0	2	2	0.72083	-20
602	3	1	19	"f"	"r"	1	15	10	7	0	2	1	0.35303	-1
602	3	1	19	"f"	"r"	1	16	11	8	0	2	1	0.46428	-1
602	3	1	19	"f"	"r"	1	17	18	15	16	1	2	0.26557	20
602	3	1	19	"f"	"r"	1	18	1	1	0	1	1	0.50357	1
602	3	1	19	"f"	"r"	1	19	15	11	12	2	1	0.25504	-1
602	3	1	19	"f"	"r"	1	20	7	5	0	1	1	0.35993	1
602	3	1	19	"f"	"r"	1	21	12	8	7	1	2	0.27109	20
602	3	1	19	"f"	"r"	1	22	2	2	0	1	3	0.81528	100
602	3	1	19	"f"	"r"	1	23	12	7	8	1	1	0.31958	1
602	3	1	19	"f"	"r"	1	24	16	13	0	2	2	0.31198	-20
602	3	1	19	"f"	"r"	1	25	17	14	0	2	3	0.26453	-100
602	3	1	19	"f"	"r"	1	26	4	3	0	2	3	0.32908	-100
602	3	1	19	"f"	"r"	1	27	8	6	0	1	2	0.30457	20
602	3	1	19	"f"	"r"	1	28	13	9	0	1	1	0.31954	1
602	3	1	19	"f"	"r"	1	29	10	7	0	2	1	0.30409	-1
602	3	1	19	"f"	"r"	1	30	14	10	0	1	2	0.28771	20
602	3	1	19	"f"	"r"	1	31	17	14	0	2	2	0.29501	-20
602	3	1	19	"f"	"r"	1	32	6	4	3	1	2	0.31067	20
602	3	1	19	"f"	"r"	1	33	15	12	11	2	1	0.41619	-1
602	3	1	19	"f"	"r"	1	34	18	16	15	1	1	0.25513	1
602	3	1	19	"f"	"r"	1	35	6	3	4	1	1	0.25487	1
602	3	1	19	"f"	"r"	1	36	14	10	0	1	1	0.28069	1
602	3	1	19	"f"	"r"	2	37	16	13	0	2	3	0.32076	-100
602	3	1	19	"f"	"r"	2	38	5	4	0	2	1	0.28819	-1
602	3	1	19	"f"	"r"	2	39	3	1	2	2	1	0.31218	-1
602	3	1	19	"f"	"r"	2	40	1	1	0	1	1	0.31964	1
602	3	1	19	"f"	"r"	2	41	8	6	0	1	2	0.25706	20
602	3	1	19	"f"	"r"	2	42	7	5	0	1	1	0.40026	1
602	3	1	19	"f"	"r"	2	43	10	7	0	2	1	0.54657	-1
602	3	1	19	"f"	"r"	2	44	1	1	0	1	1	0.35403	1
602	3	1	19	"f"	"r"	2	45	6	3	4	1	1	0.47266	1
602	3	1	19	"f"	"r"	2	46	13	9	0	1	1	0.27267	1
602	3	1	19	"f"	"r"	2	47	10	7	0	2	1	0.40924	-1
602	3	1	19	"f"	"r"	2	48	5	4	0	2	1	0.52998	-1
602	3	1	19	"f"	"r"	2	49	4	3	0	2	2	0.36071	-20
602	3	1	19	"f"	"r"	2	50	6	4	3	1	1	0.51148	1
602	3	1	19	"f"	"r"	2	51	7	5	0	1	1	0.40928	1
602	3	1	19	"f"	"r"	2	52	16	13	0	2	1	0.55929	-1
602	3	1	19	"f"	"r"	2	53	18	15	16	1	1	0.335	1
602	3	1	19	"f"	"r"	2	54	17	14	0	2	1	0.29709	-1
602	3	1	19	"f"	"r"	2	55	2	2	0	1	1	0.32848	1
602	3	1	19	"f"	"r"	2	56	9	6	5	2	1	0.31944	-1
602	3	1	19	"f"	"r"	2	57	15	12	11	2	1	0.30443	-1
602	3	1	19	"f"	"r"	2	58	12	7	8	1	1	0.38487	1
602	3	1	19	"f"	"r"	2	59	15	11	12	2	1	0.35203	-1
602	3	1	19	"f"	"r"	2	60	18	16	15	1	1	0.29597	1
602	3	1	19	"f"	"r"	2	61	17	14	0	2	2	0.38273	-20
602	3	1	19	"f"	"r"	2	62	4	3	0	2	1	0.53643	-1
602	3	1	19	"f"	"r"	2	63	11	8	0	2	1	0.44012	-1
602	3	1	19	"f"	"r"	2	64	9	6	5	2	2	0.39216	-20
602	3	1	19	"f"	"r"	2	65	3	2	1	2	1	0.33822	-1
602	3	1	19	"f"	"r"	2	66	14	10	0	1	1	0.40802	1
602	3	1	19	"f"	"r"	2	67	2	2	0	1	2	0.36234	20
602	3	1	19	"f"	"r"	2	68	8	6	0	1	2	0.29653	20
602	3	1	19	"f"	"r"	2	69	12	8	7	1	2	0.46266	20
602	3	1	19	"f"	"r"	2	70	11	8	0	2	2	0.3042	-20
602	3	1	19	"f"	"r"	2	71	14	10	0	1	1	0.34506	1
602	3	1	19	"f"	"r"	2	72	13	9	0	1	1	0.26443	1
602	3	1	19	"f"	"r"	3	73	4	3	0	2	3	0.27465	-100
602	3	1	19	"f"	"r"	3	74	10	7	0	2	1	0.31964	-1
602	3	1	19	"f"	"r"	3	75	3	2	1	2	2	0.34275	-20
602	3	1	19	"f"	"r"	3	76	14	10	0	1	1	0.27146	1
602	3	1	19	"f"	"r"	3	77	9	6	5	2	2	4.7218	-20
602	3	1	19	"f"	"r"	3	78	12	7	8	1	1	0.271	1
602	3	1	19	"f"	"r"	3	79	15	12	11	2	1	0.43188	-1
602	3	1	19	"f"	"r"	3	80	11	8	0	2	1	0.35349	-1
602	3	1	19	"f"	"r"	3	81	4	3	0	2	3	0.28117	-100
602	3	1	19	"f"	"r"	3	82	17	14	0	2	1	0.32882	-1
602	3	1	19	"f"	"r"	3	83	15	11	12	2	1	0.31235	-1
602	3	1	19	"f"	"r"	3	84	9	6	5	2	3	0.26493	-100
602	3	1	19	"f"	"r"	3	85	17	14	0	2	3	0.26394	-100
602	3	1	19	"f"	"r"	3	86	1	1	0	1	1	0.24032	1
602	3	1	19	"f"	"r"	3	87	10	7	0	2	1	0.38472	-1
602	3	1	19	"f"	"r"	3	88	8	6	0	1	2	0.23934	20
602	3	1	19	"f"	"r"	3	89	1	1	0	1	1	0.26517	1
602	3	1	19	"f"	"r"	3	90	12	8	7	1	1	0.31155	1
602	3	1	19	"f"	"r"	3	91	13	9	0	1	1	0.25816	1
602	3	1	19	"f"	"r"	3	92	8	6	0	1	2	0.47956	20
602	3	1	19	"f"	"r"	3	93	13	9	0	1	1	0.52802	1
602	3	1	19	"f"	"r"	3	94	16	13	0	2	1	0.38485	-1
602	3	1	19	"f"	"r"	3	95	6	4	3	1	1	0.28029	1
602	3	1	19	"f"	"r"	3	96	11	8	0	2	1	0.47096	-1
602	3	1	19	"f"	"r"	3	97	5	4	0	2	1	0.53517	-1
602	3	1	19	"f"	"r"	3	98	14	10	0	1	1	0.31956	1
602	3	1	19	"f"	"r"	3	99	2	2	0	1	2	0.2795	20
602	3	1	19	"f"	"r"	3	100	7	5	0	1	1	0.36862	1
602	3	1	19	"f"	"r"	3	101	5	4	0	2	1	0.24838	-1
602	3	1	19	"f"	"r"	3	102	16	13	0	2	2	0.19942	-20
602	3	1	19	"f"	"r"	3	103	7	5	0	1	1	0.3286	1
602	3	1	19	"f"	"r"	3	104	18	15	16	1	1	0.32735	1
602	3	1	19	"f"	"r"	3	105	2	2	0	1	2	0.3501	20
602	3	1	19	"f"	"r"	3	106	18	16	15	1	1	0.36879	1
602	3	1	19	"f"	"r"	3	107	6	3	4	1	1	0.31999	1
602	3	1	19	"f"	"r"	3	108	3	1	2	2	1	0.24845	-1
602	3	1	19	"f"	"r"	4	109	17	14	0	2	1	0.30416	-1
602	3	1	19	"f"	"r"	4	110	14	10	0	1	1	0.39171	1
602	3	1	19	"f"	"r"	4	111	18	15	16	1	1	0.43199	1
602	3	1	19	"f"	"r"	4	112	4	3	0	2	1	0.35997	-1
602	3	1	19	"f"	"r"	4	113	12	8	7	1	1	0.40127	1
602	3	1	19	"f"	"r"	4	114	3	1	2	2	2	0.3842	-20
602	3	1	19	"f"	"r"	4	115	17	14	0	2	2	0.27981	-20
602	3	1	19	"f"	"r"	4	116	6	4	3	1	1	0.28791	1
602	3	1	19	"f"	"r"	4	117	14	10	0	1	1	0.21461	1
602	3	1	19	"f"	"r"	4	118	13	9	0	1	1	0.49608	1
602	3	1	19	"f"	"r"	4	119	2	2	0	1	2	0.31238	20
602	3	1	19	"f"	"r"	4	120	1	1	0	1	1	0.2892	1
602	3	1	19	"f"	"r"	4	121	8	6	0	1	2	0.23239	20
602	3	1	19	"f"	"r"	4	122	12	7	8	1	1	0.58247	1
602	3	1	19	"f"	"r"	4	123	16	13	0	2	1	0.31932	-1
602	3	1	19	"f"	"r"	4	124	5	4	0	2	1	0.31999	-1
602	3	1	19	"f"	"r"	4	125	16	13	0	2	1	0.33466	-1
602	3	1	19	"f"	"r"	4	126	13	9	0	1	1	0.25797	1
602	3	1	19	"f"	"r"	4	127	7	5	0	1	1	0.3029	1
602	3	1	19	"f"	"r"	4	128	10	7	0	2	1	0.4065	-1
602	3	1	19	"f"	"r"	4	129	5	4	0	2	1	0.24118	-1
602	3	1	19	"f"	"r"	4	130	2	2	0	1	2	0.28005	20
602	3	1	19	"f"	"r"	4	131	18	16	15	1	1	0.36016	1
602	3	1	19	"f"	"r"	4	132	8	6	0	1	2	0.50521	20
602	3	1	19	"f"	"r"	4	133	9	6	5	2	1	0.36875	-1
602	3	1	19	"f"	"r"	4	134	15	12	11	2	1	0.59771	-1
602	3	1	19	"f"	"r"	4	135	11	8	0	2	1	0.25599	-1
602	3	1	19	"f"	"r"	4	136	10	7	0	2	1	1.074	-1
602	3	1	19	"f"	"r"	4	137	6	3	4	1	1	0.36899	1
602	3	1	19	"f"	"r"	4	138	1	1	0	1	1	0.26427	1
602	3	1	19	"f"	"r"	4	139	11	8	0	2	1	0.27824	-1
602	3	1	19	"f"	"r"	4	140	15	11	12	2	1	0.24001	-1
602	3	1	19	"f"	"r"	4	141	7	5	0	1	1	0.92117	1
602	3	1	19	"f"	"r"	4	142	9	6	5	2	1	0.26437	-1
602	3	1	19	"f"	"r"	4	143	4	3	0	2	1	0.39146	-1
602	3	1	19	"f"	"r"	4	144	3	2	1	2	1	0.28077	-1
602	3	1	19	"f"	"r"	5	145	7	5	0	1	1	0.48774	1
602	3	1	19	"f"	"r"	5	146	3	1	2	2	2	0.43928	-20
602	3	1	19	"f"	"r"	5	147	15	11	12	2	1	0.40915	-1
602	3	1	19	"f"	"r"	5	148	16	13	0	2	1	0.27417	-1
602	3	1	19	"f"	"r"	5	149	9	6	5	2	1	0.50518	-1
602	3	1	19	"f"	"r"	5	150	1	1	0	1	1	0.34418	1
602	3	1	19	"f"	"r"	5	151	4	3	0	2	1	0.27011	-1
602	3	1	19	"f"	"r"	5	152	12	7	8	1	1	0.26315	1
602	3	1	19	"f"	"r"	5	153	2	2	0	1	2	0.28903	20
602	3	1	19	"f"	"r"	5	154	8	6	0	1	2	0.35998	20
602	3	1	19	"f"	"r"	5	155	2	2	0	1	2	0.25649	20
602	3	1	19	"f"	"r"	5	156	3	2	1	2	1	0.56705	-1
602	3	1	19	"f"	"r"	5	157	14	10	0	1	1	0.31158	1
602	3	1	19	"f"	"r"	5	158	11	8	0	2	1	0.34375	-1
602	3	1	19	"f"	"r"	5	159	14	10	0	1	1	0.38361	1
602	3	1	19	"f"	"r"	5	160	1	1	0	1	1	0.28728	1
602	3	1	19	"f"	"r"	5	161	10	7	0	2	1	0.60823	-1
602	3	1	19	"f"	"r"	5	162	6	3	4	1	1	0.3768	1
602	3	1	19	"f"	"r"	5	163	11	8	0	2	1	0.39389	-1
602	3	1	19	"f"	"r"	5	164	16	13	0	2	1	0.41524	-1
602	3	1	19	"f"	"r"	5	165	4	3	0	2	1	0.51373	-1
602	3	1	19	"f"	"r"	5	166	12	8	7	1	1	0.25637	1
602	3	1	19	"f"	"r"	5	167	18	16	15	1	1	0.31913	1
602	3	1	19	"f"	"r"	5	168	5	4	0	2	1	0.24731	-1
602	3	1	19	"f"	"r"	5	169	9	6	5	2	1	0.48036	-1
602	3	1	19	"f"	"r"	5	170	18	15	16	1	1	0.33567	1
602	3	1	19	"f"	"r"	5	171	5	4	0	2	1	0.18999	-1
602	3	1	19	"f"	"r"	5	172	17	14	0	2	1	0.56874	-1
602	3	1	19	"f"	"r"	5	173	8	6	0	1	2	0.27219	20
602	3	1	19	"f"	"r"	5	174	10	7	0	2	1	0.018979	-1
602	3	1	19	"f"	"r"	5	175	13	9	0	1	1	0.60914	1
602	3	1	19	"f"	"r"	5	176	17	14	0	2	1	0.46462	-1
602	3	1	19	"f"	"r"	5	177	15	12	11	2	1	0.34481	-1
602	3	1	19	"f"	"r"	5	178	13	9	0	1	1	0.24826	1
602	3	1	19	"f"	"r"	5	179	6	4	3	1	1	0.32083	1
602	3	1	19	"f"	"r"	5	180	7	5	0	1	1	0.25717	1
602	3	1	19	"f"	"r"	6	181	6	3	4	1	1	0.26346	1
602	3	1	19	"f"	"r"	6	182	13	9	0	1	1	0.32163	1
602	3	1	19	"f"	"r"	6	183	16	13	0	2	1	0.24136	-1
602	3	1	19	"f"	"r"	6	184	10	7	0	2	1	0.36766	-1
602	3	1	19	"f"	"r"	6	185	14	10	0	1	1	0.51184	1
602	3	1	19	"f"	"r"	6	186	3	1	2	2	1	0.71112	-1
602	3	1	19	"f"	"r"	6	187	5	4	0	2	1	0.22237	-1
602	3	1	19	"f"	"r"	6	188	14	10	0	1	1	0.36109	1
602	3	1	19	"f"	"r"	6	189	4	3	0	2	1	0.28828	-1
602	3	1	19	"f"	"r"	6	190	1	1	0	1	1	0.25703	1
602	3	1	19	"f"	"r"	6	191	11	8	0	2	2	0.23052	-20
602	3	1	19	"f"	"r"	6	192	6	4	3	1	1	0.2788	1
602	3	1	19	"f"	"r"	6	193	13	9	0	1	1	0.2717	1
602	3	1	19	"f"	"r"	6	194	15	12	11	2	1	0.40674	-1
602	3	1	19	"f"	"r"	6	195	18	16	15	1	1	0.42487	1
602	3	1	19	"f"	"r"	6	196	17	14	0	2	1	0.28098	-1
602	3	1	19	"f"	"r"	6	197	7	5	0	1	1	0.30369	1
602	3	1	19	"f"	"r"	6	198	12	8	7	1	1	0.28791	1
602	3	1	19	"f"	"r"	6	199	8	6	0	1	2	0.35289	20
602	3	1	19	"f"	"r"	6	200	1	1	0	1	1	0.27281	1
602	3	1	19	"f"	"r"	6	201	16	13	0	2	1	0.28588	-1
602	3	1	19	"f"	"r"	6	202	8	6	0	1	2	0.49461	20
602	3	1	19	"f"	"r"	6	203	11	8	0	2	1	0.24721	-1
602	3	1	19	"f"	"r"	6	204	5	4	0	2	1	0.4094	-1
602	3	1	19	"f"	"r"	6	205	17	14	0	2	1	0.40138	-1
602	3	1	19	"f"	"r"	6	206	12	7	8	1	1	0.32063	1
602	3	1	19	"f"	"r"	6	207	2	2	0	1	2	0.42296	20
602	3	1	19	"f"	"r"	6	208	9	6	5	2	1	0.26433	-1
602	3	1	19	"f"	"r"	6	209	10	7	0	2	1	0.27213	-1
602	3	1	19	"f"	"r"	6	210	3	2	1	2	2	0.2735	-20
602	3	1	19	"f"	"r"	6	211	18	15	16	1	1	0.35941	1
602	3	1	19	"f"	"r"	6	212	4	3	0	2	1	0.21831	-1
602	3	1	19	"f"	"r"	6	213	7	5	0	1	1	0.24938	1
602	3	1	19	"f"	"r"	6	214	15	11	12	2	1	0.29562	-1
602	3	1	19	"f"	"r"	6	215	9	6	5	2	1	0.24972	-1
602	3	1	19	"f"	"r"	6	216	2	2	0	1	2	0.36927	20
603	3	2	18	"m"	"R"	1	1	1	1	0	1	1	0.28835	1
603	3	2	18	"m"	"R"	1	2	9	6	5	2	1	0.46427	-1
603	3	2	18	"m"	"R"	1	3	7	5	0	1	1	0.26549	1
603	3	2	18	"m"	"R"	1	4	5	4	0	2	1	0.24721	-1
603	3	2	18	"m"	"R"	1	5	8	6	0	1	2	0.26603	20
603	3	2	18	"m"	"R"	1	6	17	14	0	2	1	0.23374	-1
603	3	2	18	"m"	"R"	1	7	6	4	3	1	1	0.24096	1
603	3	2	18	"m"	"R"	1	8	15	11	12	2	1	0.38511	-1
603	3	2	18	"m"	"R"	1	9	12	7	8	1	1	0.42484	1
603	3	2	18	"m"	"R"	1	10	16	13	0	2	2	0.42432	-20
603	3	2	18	"m"	"R"	1	11	10	7	0	2	1	0.48619	-1
603	3	2	18	"m"	"R"	1	12	5	4	0	2	2	0.54463	-20
603	3	2	18	"m"	"R"	1	13	7	5	0	1	2	0.32075	20
603	3	2	18	"m"	"R"	1	14	13	9	0	1	1	0.3759	1
603	3	2	18	"m"	"R"	1	15	4	3	0	2	2	0.42347	-20
603	3	2	18	"m"	"R"	1	16	11	8	0	2	2	0.49611	-20
603	3	2	18	"m"	"R"	1	17	18	16	15	1	2	0.33728	20
603	3	2	18	"m"	"R"	1	18	16	13	0	2	2	0.5674	-20
603	3	2	18	"m"	"R"	1	19	3	1	2	2	2	0.95291	-20
603	3	2	18	"m"	"R"	1	20	11	8	0	2	2	0.70496	-20
603	3	2	18	"m"	"R"	1	21	2	2	0	1	2	0.27882	20
603	3	2	18	"m"	"R"	1	22	1	1	0	1	2	0.34409	20
603	3	2	18	"m"	"R"	1	23	9	6	5	2	1	0.56777	-1
603	3	2	18	"m"	"R"	1	24	2	2	0	1	3	0.4345	100
603	3	2	18	"m"	"R"	1	25	6	3	4	1	1	0.32819	1
603	3	2	18	"m"	"R"	1	26	18	15	16	1	1	0.43368	1
603	3	2	18	"m"	"R"	1	27	13	9	0	1	1	0.83173	1
603	3	2	18	"m"	"R"	1	28	3	2	1	2	3	0.35116	-100
603	3	2	18	"m"	"R"	1	29	14	10	0	1	1	0.5107	1
603	3	2	18	"m"	"R"	1	30	10	7	0	2	1	0.52859	-1
603	3	2	18	"m"	"R"	1	31	17	14	0	2	2	0.60683	-20
603	3	2	18	"m"	"R"	1	32	14	10	0	1	2	0.72868	20
603	3	2	18	"m"	"R"	1	33	8	6	0	1	2	0.49539	20
603	3	2	18	"m"	"R"	1	34	12	8	7	1	1	0.85745	1
603	3	2	18	"m"	"R"	1	35	4	3	0	2	1	0.38395	-1
603	3	2	18	"m"	"R"	1	36	15	12	11	2	1	0.51156	-1
603	3	2	18	"m"	"R"	2	37	12	7	8	1	1	0.44926	1
603	3	2	18	"m"	"R"	2	38	3	2	1	2	1	0.34377	-1
603	3	2	18	"m"	"R"	2	39	15	12	11	2	1	0.51253	-1
603	3	2	18	"m"	"R"	2	40	9	6	5	2	1	0.70438	-1
603	3	2	18	"m"	"R"	2	41	6	4	3	1	2	0.46209	20
603	3	2	18	"m"	"R"	2	42	5	4	0	2	1	0.51326	-1
603	3	2	18	"m"	"R"	2	43	9	6	5	2	1	0.32182	-1
603	3	2	18	"m"	"R"	2	44	8	6	0	1	2	0.32872	20
603	3	2	18	"m"	"R"	2	45	4	3	0	2	1	0.72828	-1
603	3	2	18	"m"	"R"	2	46	14	10	0	1	2	0.33618	20
603	3	2	18	"m"	"R"	2	47	2	2	0	1	1	0.33715	1
603	3	2	18	"m"	"R"	2	48	11	8	0	2	1	0.44809	-1
603	3	2	18	"m"	"R"	2	49	15	11	12	2	1	0.48819	-1
603	3	2	18	"m"	"R"	2	50	6	3	4	1	3	0.44817	100
603	3	2	18	"m"	"R"	2	51	10	7	0	2	1	0.29605	-1
603	3	2	18	"m"	"R"	2	52	5	4	0	2	1	2.1895	-1
603	3	2	18	"m"	"R"	2	53	7	5	0	1	1	1.0204	1
603	3	2	18	"m"	"R"	2	54	14	10	0	1	1	0.92869	1
603	3	2	18	"m"	"R"	2	55	18	15	16	1	1	0.60057	1
603	3	2	18	"m"	"R"	2	56	17	14	0	2	1	0.33583	-1
603	3	2	18	"m"	"R"	2	57	3	1	2	2	1	0.40767	-1
603	3	2	18	"m"	"R"	2	58	8	6	0	1	1	0.30492	1
603	3	2	18	"m"	"R"	2	59	16	13	0	2	1	0.30581	-1
603	3	2	18	"m"	"R"	2	60	13	9	0	1	1	0.27953	1
603	3	2	18	"m"	"R"	2	61	10	7	0	2	1	0.32827	-1
603	3	2	18	"m"	"R"	2	62	12	8	7	1	1	0.36805	1
603	3	2	18	"m"	"R"	2	63	7	5	0	1	1	0.50477	1
603	3	2	18	"m"	"R"	2	64	1	1	0	1	1	0.35803	1
603	3	2	18	"m"	"R"	2	65	16	13	0	2	1	0.29613	-1
603	3	2	18	"m"	"R"	2	66	17	14	0	2	1	0.34438	-1
603	3	2	18	"m"	"R"	2	67	18	16	15	1	3	0.26378	100
603	3	2	18	"m"	"R"	2	68	4	3	0	2	2	0.37456	-20
603	3	2	18	"m"	"R"	2	69	13	9	0	1	3	0.64224	100
603	3	2	18	"m"	"R"	2	70	11	8	0	2	1	0.59887	-1
603	3	2	18	"m"	"R"	2	71	2	2	0	1	1	0.66319	1
603	3	2	18	"m"	"R"	2	72	1	1	0	1	1	0.74448	1
603	3	2	18	"m"	"R"	3	73	9	6	5	2	2	0.43	-20
603	3	2	18	"m"	"R"	3	74	1	1	0	1	2	0.31902	20
603	3	2	18	"m"	"R"	3	75	6	3	4	1	3	0.47419	100
603	3	2	18	"m"	"R"	3	76	18	15	16	1	3	0.28764	100
603	3	2	18	"m"	"R"	3	77	10	7	0	2	1	0.2789	-1
603	3	2	18	"m"	"R"	3	78	3	2	1	2	1	0.44074	-1
603	3	2	18	"m"	"R"	3	79	7	5	0	1	2	0.43975	20
603	3	2	18	"m"	"R"	3	80	16	13	0	2	1	0.30424	-1
603	3	2	18	"m"	"R"	3	81	11	8	0	2	2	0.326	-20
603	3	2	18	"m"	"R"	3	82	2	2	0	1	3	0.31248	100
603	3	2	18	"m"	"R"	3	83	17	14	0	2	1	0.41671	-1
603	3	2	18	"m"	"R"	3	84	8	6	0	1	1	0.4563	1
603	3	2	18	"m"	"R"	3	85	6	4	3	1	3	0.2881	100
603	3	2	18	"m"	"R"	3	86	4	3	0	2	2	0.32023	-20
603	3	2	18	"m"	"R"	3	87	15	12	11	2	1	0.36992	-1
603	3	2	18	"m"	"R"	3	88	3	1	2	2	1	0.29641	-1
603	3	2	18	"m"	"R"	3	89	7	5	0	1	1	0.28715	1
603	3	2	18	"m"	"R"	3	90	13	9	0	1	3	0.50386	100
603	3	2	18	"m"	"R"	3	91	2	2	0	1	3	0.41674	100
603	3	2	18	"m"	"R"	3	92	16	13	0	2	1	0.40825	-1
603	3	2	18	"m"	"R"	3	93	5	4	0	2	2	0.28862	-20
603	3	2	18	"m"	"R"	3	94	14	10	0	1	1	0.32865	1
603	3	2	18	"m"	"R"	3	95	5	4	0	2	1	0.26535	-1
603	3	2	18	"m"	"R"	3	96	8	6	0	1	1	0.39904	1
603	3	2	18	"m"	"R"	3	97	9	6	5	2	1	0.33753	-1
603	3	2	18	"m"	"R"	3	98	15	11	12	2	1	0.25644	-1
603	3	2	18	"m"	"R"	3	99	11	8	0	2	2	0.48079	-20
603	3	2	18	"m"	"R"	3	100	10	7	0	2	2	0.42547	-20
603	3	2	18	"m"	"R"	3	101	12	8	7	1	2	0.26432	20
603	3	2	18	"m"	"R"	3	102	14	10	0	1	1	0.39148	1
603	3	2	18	"m"	"R"	3	103	4	3	0	2	1	0.35886	-1
603	3	2	18	"m"	"R"	3	104	13	9	0	1	3	0.27149	100
603	3	2	18	"m"	"R"	3	105	12	7	8	1	1	0.2977	1
603	3	2	18	"m"	"R"	3	106	18	16	15	1	3	0.5677	100
603	3	2	18	"m"	"R"	3	107	17	14	0	2	1	0.27198	-1
603	3	2	18	"m"	"R"	3	108	1	1	0	1	3	0.36834	100
603	3	2	18	"m"	"R"	4	109	18	16	15	1	1	0.38594	1
603	3	2	18	"m"	"R"	4	110	14	10	0	1	1	0.29658	1
603	3	2	18	"m"	"R"	4	111	13	9	0	1	3	0.3774	100
603	3	2	18	"m"	"R"	4	112	14	10	0	1	1	0.32174	1
603	3	2	18	"m"	"R"	4	113	12	7	8	1	1	0.48723	1
603	3	2	18	"m"	"R"	4	114	15	12	11	2	1	0.41513	-1
603	3	2	18	"m"	"R"	4	115	3	1	2	2	1	0.36746	-1
603	3	2	18	"m"	"R"	4	116	17	14	0	2	1	0.29609	-1
603	3	2	18	"m"	"R"	4	117	10	7	0	2	1	0.79263	-1
603	3	2	18	"m"	"R"	4	118	6	3	4	1	3	0.33659	100
603	3	2	18	"m"	"R"	4	119	18	15	16	1	3	0.3274	100
603	3	2	18	"m"	"R"	4	120	7	5	0	1	2	0.27939	20
603	3	2	18	"m"	"R"	4	121	16	13	0	2	1	0.34338	-1
603	3	2	18	"m"	"R"	4	122	11	8	0	2	2	0.32118	-20
603	3	2	18	"m"	"R"	4	123	9	6	5	2	2	0.43942	-20
603	3	2	18	"m"	"R"	4	124	1	1	0	1	2	0.26188	20
603	3	2	18	"m"	"R"	4	125	4	3	0	2	1	0.44912	-1
603	3	2	18	"m"	"R"	4	126	5	4	0	2	1	0.29517	-1
603	3	2	18	"m"	"R"	4	127	13	9	0	1	3	0.43885	100
603	3	2	18	"m"	"R"	4	128	12	8	7	1	2	0.28994	20
603	3	2	18	"m"	"R"	4	129	10	7	0	2	3	0.28913	-100
603	3	2	18	"m"	"R"	4	130	17	14	0	2	1	0.24838	-1
603	3	2	18	"m"	"R"	4	131	11	8	0	2	2	0.2574	-20
603	3	2	18	"m"	"R"	4	132	6	4	3	1	3	0.32848	100
603	3	2	18	"m"	"R"	4	133	16	13	0	2	1	0.53578	-1
603	3	2	18	"m"	"R"	4	134	8	6	0	1	2	0.28194	20
603	3	2	18	"m"	"R"	4	135	1	1	0	1	1	0.27038	1
603	3	2	18	"m"	"R"	4	136	2	2	0	1	1	0.27173	1
603	3	2	18	"m"	"R"	4	137	8	6	0	1	3	0.28967	100
603	3	2	18	"m"	"R"	4	138	5	4	0	2	1	0.23423	-1
603	3	2	18	"m"	"R"	4	139	2	2	0	1	2	0.30421	20
603	3	2	18	"m"	"R"	4	140	7	5	0	1	2	0.24687	20
603	3	2	18	"m"	"R"	4	141	9	6	5	2	1	0.30568	-1
603	3	2	18	"m"	"R"	4	142	3	2	1	2	1	0.26404	-1
603	3	2	18	"m"	"R"	4	143	15	11	12	2	1	0.35176	-1
603	3	2	18	"m"	"R"	4	144	4	3	0	2	1	0.30989	-1
603	3	2	18	"m"	"R"	5	145	8	6	0	1	3	0.30539	100
603	3	2	18	"m"	"R"	5	146	12	8	7	1	1	0.38532	1
603	3	2	18	"m"	"R"	5	147	17	14	0	2	1	0.35174	-1
603	3	2	18	"m"	"R"	5	148	4	3	0	2	1	0.27246	-1
603	3	2	18	"m"	"R"	5	149	2	2	0	1	3	0.2967	100
603	3	2	18	"m"	"R"	5	150	13	9	0	1	3	0.28008	100
603	3	2	18	"m"	"R"	5	151	11	8	0	2	1	0.36024	-1
603	3	2	18	"m"	"R"	5	152	18	16	15	1	3	0.40708	100
603	3	2	18	"m"	"R"	5	153	9	6	5	2	1	0.34437	-1
603	3	2	18	"m"	"R"	5	154	13	9	0	1	3	0.31183	100
603	3	2	18	"m"	"R"	5	155	14	10	0	1	1	0.47115	1
603	3	2	18	"m"	"R"	5	156	3	1	2	2	1	0.27323	-1
603	3	2	18	"m"	"R"	5	157	6	4	3	1	3	0.99996	100
603	3	2	18	"m"	"R"	5	158	5	4	0	2	1	0.28948	-1
603	3	2	18	"m"	"R"	5	159	7	5	0	1	3	0.32673	100
603	3	2	18	"m"	"R"	5	160	3	2	1	2	1	0.37695	-1
603	3	2	18	"m"	"R"	5	161	9	6	5	2	3	0.51898	-100
603	3	2	18	"m"	"R"	5	162	17	14	0	2	1	0.31217	-1
603	3	2	18	"m"	"R"	5	163	8	6	0	1	3	0.30457	100
603	3	2	18	"m"	"R"	5	164	11	8	0	2	1	0.3606	-1
603	3	2	18	"m"	"R"	5	165	10	7	0	2	1	0.3197	-1
603	3	2	18	"m"	"R"	5	166	1	1	0	1	3	0.38273	100
603	3	2	18	"m"	"R"	5	167	14	10	0	1	2	0.40035	20
603	3	2	18	"m"	"R"	5	168	7	5	0	1	2	0.31207	20
603	3	2	18	"m"	"R"	5	169	4	3	0	2	1	0.72874	-1
603	3	2	18	"m"	"R"	5	170	15	11	12	2	1	0.42455	-1
603	3	2	18	"m"	"R"	5	171	2	2	0	1	3	0.39992	100
603	3	2	18	"m"	"R"	5	172	16	13	0	2	1	0.43258	-1
603	3	2	18	"m"	"R"	5	173	12	7	8	1	1	0.39232	1
603	3	2	18	"m"	"R"	5	174	18	15	16	1	3	0.27325	100
603	3	2	18	"m"	"R"	5	175	1	1	0	1	3	0.3188	100
603	3	2	18	"m"	"R"	5	176	6	3	4	1	3	0.25393	100
603	3	2	18	"m"	"R"	5	177	15	12	11	2	1	0.29604	-1
603	3	2	18	"m"	"R"	5	178	10	7	0	2	1	0.29646	-1
603	3	2	18	"m"	"R"	5	179	5	4	0	2	1	0.30515	-1
603	3	2	18	"m"	"R"	5	180	16	13	0	2	1	0.40114	-1
603	3	2	18	"m"	"R"	6	181	2	2	0	1	3	0.23317	100
603	3	2	18	"m"	"R"	6	182	4	3	0	2	1	0.35285	-1
603	3	2	18	"m"	"R"	6	183	12	8	7	1	3	0.18452	100
603	3	2	18	"m"	"R"	6	184	18	16	15	1	3	0.29483	100
603	3	2	18	"m"	"R"	6	185	13	9	0	1	3	0.32904	100
603	3	2	18	"m"	"R"	6	186	3	2	1	2	1	0.45486	-1
603	3	2	18	"m"	"R"	6	187	1	1	0	1	3	0.36044	100
603	3	2	18	"m"	"R"	6	188	7	5	0	1	3	0.23213	100
603	3	2	18	"m"	"R"	6	189	16	13	0	2	1	0.29695	-1
603	3	2	18	"m"	"R"	6	190	9	6	5	2	1	0.22453	-1
603	3	2	18	"m"	"R"	6	191	11	8	0	2	1	0.24824	-1
603	3	2	18	"m"	"R"	6	192	3	1	2	2	1	0.27298	-1
603	3	2	18	"m"	"R"	6	193	14	10	0	1	3	0.26506	100
603	3	2	18	"m"	"R"	6	194	5	4	0	2	1	0.3768	-1
603	3	2	18	"m"	"R"	6	195	4	3	0	2	1	0.20742	-1
603	3	2	18	"m"	"R"	6	196	15	11	12	2	1	0.26208	-1
603	3	2	18	"m"	"R"	6	197	10	7	0	2	1	0.23059	-1
603	3	2	18	"m"	"R"	6	198	5	4	0	2	1	0.38406	-1
603	3	2	18	"m"	"R"	6	199	8	6	0	1	3	0.32037	100
603	3	2	18	"m"	"R"	6	200	10	7	0	2	1	0.39062	-1
603	3	2	18	"m"	"R"	6	201	15	12	11	2	1	0.31153	-1
603	3	2	18	"m"	"R"	6	202	17	14	0	2	1	0.2662	-1
603	3	2	18	"m"	"R"	6	203	13	9	0	1	3	0.39127	100
603	3	2	18	"m"	"R"	6	204	6	3	4	1	3	0.29523	100
603	3	2	18	"m"	"R"	6	205	1	1	0	1	3	0.36825	100
603	3	2	18	"m"	"R"	6	206	12	7	8	1	3	0.27232	100
603	3	2	18	"m"	"R"	6	207	2	2	0	1	3	0.29501	100
603	3	2	18	"m"	"R"	6	208	7	5	0	1	2	0.23962	20
603	3	2	18	"m"	"R"	6	209	11	8	0	2	1	0.25624	-1
603	3	2	18	"m"	"R"	6	210	9	6	5	2	1	0.40844	-1
603	3	2	18	"m"	"R"	6	211	6	4	3	1	3	0.23233	100
603	3	2	18	"m"	"R"	6	212	8	6	0	1	3	0.26315	100
603	3	2	18	"m"	"R"	6	213	18	15	16	1	3	0.28121	100
603	3	2	18	"m"	"R"	6	214	14	10	0	1	3	0.12789	100
603	3	2	18	"m"	"R"	6	215	16	13	0	2	1	0.28179	-1
603	3	2	18	"m"	"R"	6	216	17	14	0	2	1	0.25424	-1
605	2	2	19	"f"	"r"	1	1	8	6	0	1	2	0.33699	20
605	2	2	19	"f"	"r"	1	2	4	3	0	2	1	0.37588	-1
605	2	2	19	"f"	"r"	1	3	14	10	0	1	2	0.35375	20
605	2	2	19	"f"	"r"	1	4	4	3	0	2	1	0.36799	-1
605	2	2	19	"f"	"r"	1	5	13	9	0	1	2	0.40804	20
605	2	2	19	"f"	"r"	1	6	12	7	8	1	2	0.41596	20
605	2	2	19	"f"	"r"	1	7	16	13	0	2	1	0.38548	-1
605	2	2	19	"f"	"r"	1	8	5	4	0	2	2	0.36767	-20
605	2	2	19	"f"	"r"	1	9	10	7	0	2	2	0.416	-20
605	2	2	19	"f"	"r"	1	10	7	5	0	1	3	0.39202	100
605	2	2	19	"f"	"r"	1	11	17	14	0	2	2	0.37667	-20
605	2	2	19	"f"	"r"	1	12	7	5	0	1	3	0.47353	100
605	2	2	19	"f"	"r"	1	13	3	2	1	2	2	0.31179	-20
605	2	2	19	"f"	"r"	1	14	18	16	15	1	2	0.28817	20
605	2	2	19	"f"	"r"	1	15	1	1	0	1	2	0.30437	20
605	2	2	19	"f"	"r"	1	16	15	12	11	2	2	0.26405	-20
605	2	2	19	"f"	"r"	1	17	2	2	0	1	2	0.31217	20
605	2	2	19	"f"	"r"	1	18	11	8	0	2	3	0.30373	-100
605	2	2	19	"f"	"r"	1	19	15	11	12	2	3	0.35904	-100
605	2	2	19	"f"	"r"	1	20	5	4	0	2	3	0.44942	-100
605	2	2	19	"f"	"r"	1	21	6	4	3	1	3	0.24829	100
605	2	2	19	"f"	"r"	1	22	2	2	0	1	3	0.35312	100
605	2	2	19	"f"	"r"	1	23	11	8	0	2	3	0.3759	-100
605	2	2	19	"f"	"r"	1	24	3	1	2	2	3	0.28789	-100
605	2	2	19	"f"	"r"	1	25	16	13	0	2	3	0.28073	-100
605	2	2	19	"f"	"r"	1	26	13	9	0	1	3	0.28177	100
605	2	2	19	"f"	"r"	1	27	9	6	5	2	3	0.54334	-100
605	2	2	19	"f"	"r"	1	28	1	1	0	1	1	0.35232	1
605	2	2	19	"f"	"r"	1	29	8	6	0	1	3	0.48721	100
605	2	2	19	"f"	"r"	1	30	9	6	5	2	1	0.26469	-1
605	2	2	19	"f"	"r"	1	31	18	15	16	1	2	0.37451	20
605	2	2	19	"f"	"r"	1	32	10	7	0	2	3	0.44887	-100
605	2	2	19	"f"	"r"	1	33	17	14	0	2	3	0.47822	-100
605	2	2	19	"f"	"r"	1	34	12	8	7	1	1	0.29482	1
605	2	2	19	"f"	"r"	1	35	14	10	0	1	1	0.54546	1
605	2	2	19	"f"	"r"	1	36	6	3	4	1	1	0.40792	1
605	2	2	19	"f"	"r"	2	37	8	6	0	1	3	0.75277	100
605	2	2	19	"f"	"r"	2	38	16	13	0	2	1	0.35951	-1
605	2	2	19	"f"	"r"	2	39	4	3	0	2	1	0.42382	-1
605	2	2	19	"f"	"r"	2	40	1	1	0	1	3	0.41582	100
605	2	2	19	"f"	"r"	2	41	13	9	0	1	1	0.38414	1
605	2	2	19	"f"	"r"	2	42	18	16	15	1	1	0.2081	1
605	2	2	19	"f"	"r"	2	43	15	11	12	2	1	8.4955	-1
605	2	2	19	"f"	"r"	2	44	5	4	0	2	3	0.46457	-100
605	2	2	19	"f"	"r"	2	45	4	3	0	2	3	0.32677	-100
605	2	2	19	"f"	"r"	2	46	14	10	0	1	3	0.424	100
605	2	2	19	"f"	"r"	2	47	11	8	0	2	1	0.37534	-1
605	2	2	19	"f"	"r"	2	48	13	9	0	1	3	0.21436	100
605	2	2	19	"f"	"r"	2	49	10	7	0	2	1	0.33623	-1
605	2	2	19	"f"	"r"	2	50	8	6	0	1	2	0.23096	20
605	2	2	19	"f"	"r"	2	51	15	12	11	2	1	0.36846	-1
605	2	2	19	"f"	"r"	2	52	12	8	7	1	3	0.55235	100
605	2	2	19	"f"	"r"	2	53	6	3	4	1	3	0.26449	100
605	2	2	19	"f"	"r"	2	54	17	14	0	2	1	0.65589	-1
605	2	2	19	"f"	"r"	2	55	5	4	0	2	2	0.70302	-20
605	2	2	19	"f"	"r"	2	56	9	6	5	2	1	0.26446	-1
605	2	2	19	"f"	"r"	2	57	2	2	0	1	3	0.28057	100
605	2	2	19	"f"	"r"	2	58	11	8	0	2	1	0.43265	-1
605	2	2	19	"f"	"r"	2	59	18	15	16	1	3	0.20794	100
605	2	2	19	"f"	"r"	2	60	3	2	1	2	1	0.2562	-1
605	2	2	19	"f"	"r"	2	61	1	1	0	1	3	0.47375	100
605	2	2	19	"f"	"r"	2	62	3	1	2	2	1	0.23129	-1
605	2	2	19	"f"	"r"	2	63	12	7	8	1	3	0.43886	100
605	2	2	19	"f"	"r"	2	64	2	2	0	1	1	0.23054	1
605	2	2	19	"f"	"r"	2	65	7	5	0	1	2	0.25682	20
605	2	2	19	"f"	"r"	2	66	10	7	0	2	1	0.24046	-1
605	2	2	19	"f"	"r"	2	67	16	13	0	2	3	0.18553	-100
605	2	2	19	"f"	"r"	2	68	6	4	3	1	3	0.25532	100
605	2	2	19	"f"	"r"	2	69	14	10	0	1	1	0.26389	1
605	2	2	19	"f"	"r"	2	70	9	6	5	2	1	0.78302	-1
605	2	2	19	"f"	"r"	2	71	7	5	0	1	1	0.48768	1
605	2	2	19	"f"	"r"	2	72	17	14	0	2	1	0.2957	-1
605	2	2	19	"f"	"r"	3	73	7	5	0	1	1	0.37735	1
605	2	2	19	"f"	"r"	3	74	5	4	0	2	1	0.20842	-1
605	2	2	19	"f"	"r"	3	75	1	1	0	1	2	0.36724	20
605	2	2	19	"f"	"r"	3	76	18	16	15	1	1	0.28024	1
605	2	2	19	"f"	"r"	3	77	2	2	0	1	1	0.23106	1
605	2	2	19	"f"	"r"	3	78	4	3	0	2	1	0.27304	-1
605	2	2	19	"f"	"r"	3	79	17	14	0	2	1	0.45766	-1
605	2	2	19	"f"	"r"	3	80	3	1	2	2	2	0.23342	-20
605	2	2	19	"f"	"r"	3	81	1	1	0	1	3	0.13589	100
605	2	2	19	"f"	"r"	3	82	6	4	3	1	3	0.27383	100
605	2	2	19	"f"	"r"	3	83	16	13	0	2	1	0.35058	-1
605	2	2	19	"f"	"r"	3	84	14	10	0	1	3	0.27994	100
605	2	2	19	"f"	"r"	3	85	10	7	0	2	2	0.28049	-20
605	2	2	19	"f"	"r"	3	86	17	14	0	2	3	0.28874	-100
605	2	2	19	"f"	"r"	3	87	15	11	12	2	2	0.26327	-20
605	2	2	19	"f"	"r"	3	88	9	6	5	2	3	1.5281	-100
605	2	2	19	"f"	"r"	3	89	8	6	0	1	3	0.27362	100
605	2	2	19	"f"	"r"	3	90	6	3	4	1	3	0.25717	100
605	2	2	19	"f"	"r"	3	91	2	2	0	1	3	0.36902	100
605	2	2	19	"f"	"r"	3	92	13	9	0	1	3	0.54358	100
605	2	2	19	"f"	"r"	3	93	12	7	8	1	2	0.36089	20
605	2	2	19	"f"	"r"	3	94	11	8	0	2	1	0.2883	-1
605	2	2	19	"f"	"r"	3	95	8	6	0	1	2	0.35377	20
605	2	2	19	"f"	"r"	3	96	11	8	0	2	1	0.34272	-1
605	2	2	19	"f"	"r"	3	97	15	12	11	2	3	0.42453	-100
605	2	2	19	"f"	"r"	3	98	10	7	0	2	3	0.19219	-100
605	2	2	19	"f"	"r"	3	99	4	3	0	2	3	0.48012	-100
605	2	2	19	"f"	"r"	3	100	16	13	0	2	3	0.36958	-100
605	2	2	19	"f"	"r"	3	101	3	2	1	2	3	0.48012	-100
605	2	2	19	"f"	"r"	3	102	7	5	0	1	3	0.24815	100
605	2	2	19	"f"	"r"	3	103	9	6	5	2	3	0.3354	-100
605	2	2	19	"f"	"r"	3	104	5	4	0	2	1	0.28785	-1
605	2	2	19	"f"	"r"	3	105	12	8	7	1	3	0.25504	100
605	2	2	19	"f"	"r"	3	106	14	10	0	1	3	0.27121	100
605	2	2	19	"f"	"r"	3	107	18	15	16	1	3	0.46381	100
605	2	2	19	"f"	"r"	3	108	13	9	0	1	2	0.20151	20
605	2	2	19	"f"	"r"	4	109	11	8	0	2	1	0.273	-1
605	2	2	19	"f"	"r"	4	110	5	4	0	2	1	0.25533	-1
605	2	2	19	"f"	"r"	4	111	11	8	0	2	1	0.39983	-1
605	2	2	19	"f"	"r"	4	112	17	14	0	2	3	0.26292	-100
605	2	2	19	"f"	"r"	4	113	14	10	0	1	3	0.37033	100
605	2	2	19	"f"	"r"	4	114	6	4	3	1	3	0.36892	100
605	2	2	19	"f"	"r"	4	115	10	7	0	2	3	0.40685	-100
605	2	2	19	"f"	"r"	4	116	14	10	0	1	3	0.47358	100
605	2	2	19	"f"	"r"	4	117	17	14	0	2	3	0.44957	-100
605	2	2	19	"f"	"r"	4	118	18	16	15	1	3	0.78509	100
605	2	2	19	"f"	"r"	4	119	2	2	0	1	3	0.26451	100
605	2	2	19	"f"	"r"	4	120	1	1	0	1	3	0.35148	100
605	2	2	19	"f"	"r"	4	121	7	5	0	1	3	0.38558	100
605	2	2	19	"f"	"r"	4	122	6	3	4	1	3	0.20134	100
605	2	2	19	"f"	"r"	4	123	16	13	0	2	1	0.36908	-1
605	2	2	19	"f"	"r"	4	124	3	1	2	2	3	0.37682	-100
605	2	2	19	"f"	"r"	4	125	12	7	8	1	3	0.46436	100
605	2	2	19	"f"	"r"	4	126	18	15	16	1	3	0.40882	100
605	2	2	19	"f"	"r"	4	127	4	3	0	2	1	0.22497	-1
605	2	2	19	"f"	"r"	4	128	13	9	0	1	3	0.1297	100
605	2	2	19	"f"	"r"	4	129	5	4	0	2	1	0.38949	-1
605	2	2	19	"f"	"r"	4	130	15	12	11	2	1	0.23351	-1
605	2	2	19	"f"	"r"	4	131	8	6	0	1	3	0.25682	100
605	2	2	19	"f"	"r"	4	132	9	6	5	2	3	0.27385	-100
605	2	2	19	"f"	"r"	4	133	10	7	0	2	3	0.35136	-100
605	2	2	19	"f"	"r"	4	134	16	13	0	2	1	0.24695	-1
605	2	2	19	"f"	"r"	4	135	4	3	0	2	1	0.32849	-1
605	2	2	19	"f"	"r"	4	136	2	2	0	1	3	0.24096	100
605	2	2	19	"f"	"r"	4	137	13	9	0	1	3	0.32962	100
605	2	2	19	"f"	"r"	4	138	8	6	0	1	3	0.21578	100
605	2	2	19	"f"	"r"	4	139	1	1	0	1	3	0.44657	100
605	2	2	19	"f"	"r"	4	140	9	6	5	2	3	0.26278	-100
605	2	2	19	"f"	"r"	4	141	15	11	12	2	1	0.42547	-1
605	2	2	19	"f"	"r"	4	142	7	5	0	1	1	0.3917	1
605	2	2	19	"f"	"r"	4	143	12	8	7	1	3	0.60776	100
605	2	2	19	"f"	"r"	4	144	3	2	1	2	1	0.24027	-1
605	2	2	19	"f"	"r"	5	145	18	15	16	1	3	0.23209	100
605	2	2	19	"f"	"r"	5	146	13	9	0	1	3	0.20785	100
605	2	2	19	"f"	"r"	5	147	6	4	3	1	3	0.22337	100
605	2	2	19	"f"	"r"	5	148	5	4	0	2	1	0.4556	-1
605	2	2	19	"f"	"r"	5	149	1	1	0	1	3	0.36814	100
605	2	2	19	"f"	"r"	5	150	5	4	0	2	1	0.26556	-1
605	2	2	19	"f"	"r"	5	151	16	13	0	2	1	0.4801	-1
605	2	2	19	"f"	"r"	5	152	14	10	0	1	3	0.34238	100
605	2	2	19	"f"	"r"	5	153	3	2	1	2	1	0.26389	-1
605	2	2	19	"f"	"r"	5	154	7	5	0	1	3	0.20965	100
605	2	2	19	"f"	"r"	5	155	14	10	0	1	3	0.25566	100
605	2	2	19	"f"	"r"	5	156	15	12	11	2	1	0.24853	-1
605	2	2	19	"f"	"r"	5	157	10	7	0	2	3	0.18226	-100
605	2	2	19	"f"	"r"	5	158	12	8	7	1	3	0.40037	100
605	2	2	19	"f"	"r"	5	159	3	1	2	2	1	0.33509	-1
605	2	2	19	"f"	"r"	5	160	18	16	15	1	3	0.20016	100
605	2	2	19	"f"	"r"	5	161	2	2	0	1	3	0.31988	100
605	2	2	19	"f"	"r"	5	162	6	3	4	1	3	0.40059	100
605	2	2	19	"f"	"r"	5	163	4	3	0	2	1	0.44787	-1
605	2	2	19	"f"	"r"	5	164	9	6	5	2	3	0.23048	-100
605	2	2	19	"f"	"r"	5	165	17	14	0	2	1	0.31204	-1
605	2	2	19	"f"	"r"	5	166	8	6	0	1	3	0.18593	100
605	2	2	19	"f"	"r"	5	167	9	6	5	2	3	0.61524	-100
605	2	2	19	"f"	"r"	5	168	1	1	0	1	3	0.21737	100
605	2	2	19	"f"	"r"	5	169	2	2	0	1	3	0.27035	100
605	2	2	19	"f"	"r"	5	170	11	8	0	2	1	0.48791	-1
605	2	2	19	"f"	"r"	5	171	15	11	12	2	2	0.21454	-20
605	2	2	19	"f"	"r"	5	172	4	3	0	2	1	0.21584	-1
605	2	2	19	"f"	"r"	5	173	17	14	0	2	1	0.49813	-1
605	2	2	19	"f"	"r"	5	174	8	6	0	1	3	0.14365	100
605	2	2	19	"f"	"r"	5	175	7	5	0	1	3	0.35182	100
605	2	2	19	"f"	"r"	5	176	12	7	8	1	3	0.51218	100
605	2	2	19	"f"	"r"	5	177	13	9	0	1	3	0.36742	100
605	2	2	19	"f"	"r"	5	178	11	8	0	2	1	0.167	-1
605	2	2	19	"f"	"r"	5	179	16	13	0	2	1	0.39134	-1
605	2	2	19	"f"	"r"	5	180	10	7	0	2	1	0.31238	-1
605	2	2	19	"f"	"r"	6	181	15	11	12	2	1	0.39961	-1
605	2	2	19	"f"	"r"	6	182	7	5	0	1	3	0.20849	100
605	2	2	19	"f"	"r"	6	183	16	13	0	2	1	0.21643	-1
605	2	2	19	"f"	"r"	6	184	3	1	2	2	1	0.19308	-1
605	2	2	19	"f"	"r"	6	185	18	15	16	1	3	0.24805	100
605	2	2	19	"f"	"r"	6	186	1	1	0	1	3	0.26413	100
605	2	2	19	"f"	"r"	6	187	14	10	0	1	3	0.23212	100
605	2	2	19	"f"	"r"	6	188	16	13	0	2	1	0.20741	-1
605	2	2	19	"f"	"r"	6	189	5	4	0	2	1	0.50279	-1
605	2	2	19	"f"	"r"	6	190	8	6	0	1	3	0.22421	100
605	2	2	19	"f"	"r"	6	191	2	2	0	1	3	0.19985	100
605	2	2	19	"f"	"r"	6	192	14	10	0	1	3	0.28917	100
605	2	2	19	"f"	"r"	6	193	17	14	0	2	1	0.4639	-1
605	2	2	19	"f"	"r"	6	194	11	8	0	2	1	0.35179	-1
605	2	2	19	"f"	"r"	6	195	18	16	15	1	3	0.35317	100
605	2	2	19	"f"	"r"	6	196	6	4	3	1	3	0.34493	100
605	2	2	19	"f"	"r"	6	197	7	5	0	1	3	0.25488	100
605	2	2	19	"f"	"r"	6	198	4	3	0	2	1	0.22378	-1
605	2	2	19	"f"	"r"	6	199	12	8	7	1	3	0.35353	100
605	2	2	19	"f"	"r"	6	200	10	7	0	2	1	0.28109	-1
605	2	2	19	"f"	"r"	6	201	8	6	0	1	1	0.25704	1
605	2	2	19	"f"	"r"	6	202	5	4	0	2	1	0.56835	-1
605	2	2	19	"f"	"r"	6	203	10	7	0	2	1	0.49625	-1
605	2	2	19	"f"	"r"	6	204	6	3	4	1	3	0.30436	100
605	2	2	19	"f"	"r"	6	205	13	9	0	1	3	0.23245	100
605	2	2	19	"f"	"r"	6	206	2	2	0	1	3	0.20908	100
605	2	2	19	"f"	"r"	6	207	13	9	0	1	3	0.53413	100
605	2	2	19	"f"	"r"	6	208	9	6	5	2	3	0.50597	-100
605	2	2	19	"f"	"r"	6	209	4	3	0	2	1	0.26303	-1
605	2	2	19	"f"	"r"	6	210	9	6	5	2	3	0.30423	-100
605	2	2	19	"f"	"r"	6	211	11	8	0	2	1	0.21456	-1
605	2	2	19	"f"	"r"	6	212	3	2	1	2	2	0.20632	-20
605	2	2	19	"f"	"r"	6	213	15	12	11	2	1	0.25651	-1
605	2	2	19	"f"	"r"	6	214	1	1	0	1	3	0.57531	100
605	2	2	19	"f"	"r"	6	215	12	7	8	1	3	0.20887	100
605	2	2	19	"f"	"r"	6	216	17	14	0	2	2	0.18525	-20
607	3	2	22	"m"	"r"	1	1	1	1	0	1	1	0.34494	1
607	3	2	22	"m"	"r"	1	2	6	3	4	1	2	0.24767	20
607	3	2	22	"m"	"r"	1	3	10	7	0	2	2	0.46299	-20
607	3	2	22	"m"	"r"	1	4	11	8	0	2	2	0.42486	-20
607	3	2	22	"m"	"r"	1	5	3	1	2	2	2	0.28042	-20
607	3	2	22	"m"	"r"	1	6	17	14	0	2	3	0.41512	-100
607	3	2	22	"m"	"r"	1	7	12	7	8	1	2	0.2885	20
607	3	2	22	"m"	"r"	1	8	9	6	5	2	3	0.29615	-100
607	3	2	22	"m"	"r"	1	9	1	1	0	1	1	0.2724	1
607	3	2	22	"m"	"r"	1	10	15	12	11	2	2	0.24992	-20
607	3	2	22	"m"	"r"	1	11	3	2	1	2	3	0.49659	-100
607	3	2	22	"m"	"r"	1	12	7	5	0	1	2	0.53535	20
607	3	2	22	"m"	"r"	1	13	8	6	0	1	3	0.35188	100
607	3	2	22	"m"	"r"	1	14	4	3	0	2	1	0.28097	-1
607	3	2	22	"m"	"r"	1	15	18	16	15	1	3	0.39951	100
607	3	2	22	"m"	"r"	1	16	13	9	0	1	1	0.28125	1
607	3	2	22	"m"	"r"	1	17	15	11	12	2	3	0.29748	-100
607	3	2	22	"m"	"r"	1	18	10	7	0	2	2	0.44034	-20
607	3	2	22	"m"	"r"	1	19	14	10	0	1	2	0.24712	20
607	3	2	22	"m"	"r"	1	20	7	5	0	1	2	0.2393	20
607	3	2	22	"m"	"r"	1	21	9	6	5	2	1	0.31911	-1
607	3	2	22	"m"	"r"	1	22	14	10	0	1	3	0.3755	100
607	3	2	22	"m"	"r"	1	23	2	2	0	1	1	0.37593	1
607	3	2	22	"m"	"r"	1	24	13	9	0	1	1	0.32771	1
607	3	2	22	"m"	"r"	1	25	8	6	0	1	1	0.36779	1
607	3	2	22	"m"	"r"	1	26	5	4	0	2	1	0.4252	-1
607	3	2	22	"m"	"r"	1	27	11	8	0	2	1	0.33526	-1
607	3	2	22	"m"	"r"	1	28	17	14	0	2	1	0.4074	-1
607	3	2	22	"m"	"r"	1	29	12	8	7	1	2	0.3924	20
607	3	2	22	"m"	"r"	1	30	18	15	16	1	1	0.52911	1
607	3	2	22	"m"	"r"	1	31	4	3	0	2	2	0.34442	-20
607	3	2	22	"m"	"r"	1	32	16	13	0	2	1	0.27229	-1
607	3	2	22	"m"	"r"	1	33	6	4	3	1	1	0.33682	1
607	3	2	22	"m"	"r"	1	34	16	13	0	2	2	0.2726	-20
607	3	2	22	"m"	"r"	1	35	5	4	0	2	1	0.29711	-1
607	3	2	22	"m"	"r"	1	36	2	2	0	1	3	0.35199	100
607	3	2	22	"m"	"r"	2	37	12	7	8	1	1	0.31318	1
607	3	2	22	"m"	"r"	2	38	6	4	3	1	1	0.38423	1
607	3	2	22	"m"	"r"	2	39	12	8	7	1	3	0.47116	100
607	3	2	22	"m"	"r"	2	40	15	11	12	2	1	0.48884	-1
607	3	2	22	"m"	"r"	2	41	7	5	0	1	3	0.40039	100
607	3	2	22	"m"	"r"	2	42	14	10	0	1	3	0.36094	100
607	3	2	22	"m"	"r"	2	43	17	14	0	2	2	0.28787	-20
607	3	2	22	"m"	"r"	2	44	15	12	11	2	1	0.43125	-1
607	3	2	22	"m"	"r"	2	45	10	7	0	2	3	0.27988	-100
607	3	2	22	"m"	"r"	2	46	4	3	0	2	2	0.42447	-20
607	3	2	22	"m"	"r"	2	47	13	9	0	1	3	0.38452	100
607	3	2	22	"m"	"r"	2	48	14	10	0	1	3	0.40872	100
607	3	2	22	"m"	"r"	2	49	8	6	0	1	3	0.28814	100
607	3	2	22	"m"	"r"	2	50	13	9	0	1	3	0.61505	100
607	3	2	22	"m"	"r"	2	51	3	1	2	2	1	0.35188	-1
607	3	2	22	"m"	"r"	2	52	2	2	0	1	3	0.35286	100
607	3	2	22	"m"	"r"	2	53	16	13	0	2	1	0.36796	-1
607	3	2	22	"m"	"r"	2	54	9	6	5	2	1	0.31962	-1
607	3	2	22	"m"	"r"	2	55	18	16	15	1	3	0.24938	100
607	3	2	22	"m"	"r"	2	56	8	6	0	1	1	0.24009	1
607	3	2	22	"m"	"r"	2	57	5	4	0	2	1	0.39139	-1
607	3	2	22	"m"	"r"	2	58	3	2	1	2	3	0.3844	-100
607	3	2	22	"m"	"r"	2	59	1	1	0	1	1	0.26332	1
607	3	2	22	"m"	"r"	2	60	18	15	16	1	3	0.35814	100
607	3	2	22	"m"	"r"	2	61	16	13	0	2	1	0.32726	-1
607	3	2	22	"m"	"r"	2	62	17	14	0	2	1	0.39303	-1
607	3	2	22	"m"	"r"	2	63	1	1	0	1	3	0.35245	100
607	3	2	22	"m"	"r"	2	64	7	5	0	1	1	0.23994	1
607	3	2	22	"m"	"r"	2	65	11	8	0	2	3	0.42503	-100
607	3	2	22	"m"	"r"	2	66	2	2	0	1	3	0.36741	100
607	3	2	22	"m"	"r"	2	67	4	3	0	2	1	0.45654	-1
607	3	2	22	"m"	"r"	2	68	6	3	4	1	2	0.3534	20
607	3	2	22	"m"	"r"	2	69	5	4	0	2	1	0.40837	-1
607	3	2	22	"m"	"r"	2	70	10	7	0	2	2	0.27178	-20
607	3	2	22	"m"	"r"	2	71	9	6	5	2	2	0.4489	-20
607	3	2	22	"m"	"r"	2	72	11	8	0	2	1	0.28826	-1
607	3	2	22	"m"	"r"	3	73	14	10	0	1	3	0.3366	100
607	3	2	22	"m"	"r"	3	74	4	3	0	2	1	0.23993	-1
607	3	2	22	"m"	"r"	3	75	11	8	0	2	1	0.42494	-1
607	3	2	22	"m"	"r"	3	76	18	16	15	1	3	0.23211	100
607	3	2	22	"m"	"r"	3	77	3	1	2	2	1	0.37499	-1
607	3	2	22	"m"	"r"	3	78	11	8	0	2	1	0.23272	-1
607	3	2	22	"m"	"r"	3	79	9	6	5	2	1	0.43659	-1
607	3	2	22	"m"	"r"	3	80	8	6	0	1	1	0.30475	1
607	3	2	22	"m"	"r"	3	81	13	9	0	1	3	0.2489	100
607	3	2	22	"m"	"r"	3	82	2	2	0	1	3	0.30302	100
607	3	2	22	"m"	"r"	3	83	16	13	0	2	1	0.33581	-1
607	3	2	22	"m"	"r"	3	84	5	4	0	2	1	0.20715	-1
607	3	2	22	"m"	"r"	3	85	8	6	0	1	2	0.40056	20
607	3	2	22	"m"	"r"	3	86	12	8	7	1	1	0.27226	1
607	3	2	22	"m"	"r"	3	87	10	7	0	2	1	0.28813	-1
607	3	2	22	"m"	"r"	3	88	7	5	0	1	1	0.59895	1
607	3	2	22	"m"	"r"	3	89	15	11	12	2	2	0.30437	-20
607	3	2	22	"m"	"r"	3	90	13	9	0	1	3	0.32843	100
607	3	2	22	"m"	"r"	3	91	1	1	0	1	1	0.21738	1
607	3	2	22	"m"	"r"	3	92	17	14	0	2	1	0.24777	-1
607	3	2	22	"m"	"r"	3	93	15	12	11	2	3	0.44044	-100
607	3	2	22	"m"	"r"	3	94	17	14	0	2	2	0.57541	-20
607	3	2	22	"m"	"r"	3	95	14	10	0	1	3	0.33723	100
607	3	2	22	"m"	"r"	3	96	6	3	4	1	2	0.36745	20
607	3	2	22	"m"	"r"	3	97	10	7	0	2	1	0.26489	-1
607	3	2	22	"m"	"r"	3	98	16	13	0	2	2	0.31151	-20
607	3	2	22	"m"	"r"	3	99	2	2	0	1	3	0.31972	100
607	3	2	22	"m"	"r"	3	100	5	4	0	2	1	0.30365	-1
607	3	2	22	"m"	"r"	3	101	9	6	5	2	1	0.34401	-1
607	3	2	22	"m"	"r"	3	102	4	3	0	2	1	0.37651	-1
607	3	2	22	"m"	"r"	3	103	18	15	16	1	3	0.34259	100
607	3	2	22	"m"	"r"	3	104	1	1	0	1	1	0.25546	1
607	3	2	22	"m"	"r"	3	105	3	2	1	2	3	0.54324	-100
607	3	2	22	"m"	"r"	3	106	6	4	3	1	2	0.32057	20
607	3	2	22	"m"	"r"	3	107	7	5	0	1	2	0.35118	20
607	3	2	22	"m"	"r"	3	108	12	7	8	1	3	0.46406	100
607	3	2	22	"m"	"r"	4	109	11	8	0	2	2	0.31928	-20
607	3	2	22	"m"	"r"	4	110	18	16	15	1	1	0.33646	1
607	3	2	22	"m"	"r"	4	111	7	5	0	1	3	0.39151	100
607	3	2	22	"m"	"r"	4	112	5	4	0	2	1	0.33622	-1
607	3	2	22	"m"	"r"	4	113	3	2	1	2	3	0.27195	-100
607	3	2	22	"m"	"r"	4	114	15	11	12	2	1	0.40959	-1
607	3	2	22	"m"	"r"	4	115	10	7	0	2	2	0.28847	-20
607	3	2	22	"m"	"r"	4	116	6	3	4	1	2	0.26264	20
607	3	2	22	"m"	"r"	4	117	3	1	2	2	3	0.33767	-100
607	3	2	22	"m"	"r"	4	118	9	6	5	2	1	0.39364	-1
607	3	2	22	"m"	"r"	4	119	8	6	0	1	3	0.37762	100
607	3	2	22	"m"	"r"	4	120	16	13	0	2	1	0.42614	-1
607	3	2	22	"m"	"r"	4	121	18	15	16	1	3	0.40674	100
607	3	2	22	"m"	"r"	4	122	4	3	0	2	1	0.23978	-1
607	3	2	22	"m"	"r"	4	123	12	8	7	1	1	0.30532	1
607	3	2	22	"m"	"r"	4	124	13	9	0	1	3	1.8096	100
607	3	2	22	"m"	"r"	4	125	17	14	0	2	1	0.24122	-1
607	3	2	22	"m"	"r"	4	126	5	4	0	2	1	0.37651	-1
607	3	2	22	"m"	"r"	4	127	2	2	0	1	3	0.59212	100
607	3	2	22	"m"	"r"	4	128	7	5	0	1	1	0.27791	1
607	3	2	22	"m"	"r"	4	129	1	1	0	1	2	0.27171	20
607	3	2	22	"m"	"r"	4	130	14	10	0	1	3	0.31193	100
607	3	2	22	"m"	"r"	4	131	11	8	0	2	2	0.2299	-20
607	3	2	22	"m"	"r"	4	132	1	1	0	1	1	0.22338	1
607	3	2	22	"m"	"r"	4	133	8	6	0	1	3	0.20068	100
607	3	2	22	"m"	"r"	4	134	9	6	5	2	2	0.54344	-20
607	3	2	22	"m"	"r"	4	135	16	13	0	2	1	0.32869	-1
607	3	2	22	"m"	"r"	4	136	4	3	0	2	1	0.31113	-1
607	3	2	22	"m"	"r"	4	137	15	12	11	2	1	0.44901	-1
607	3	2	22	"m"	"r"	4	138	12	7	8	1	2	0.38465	20
607	3	2	22	"m"	"r"	4	139	6	4	3	1	1	1.2077	1
607	3	2	22	"m"	"r"	4	140	14	10	0	1	3	0.27833	100
607	3	2	22	"m"	"r"	4	141	2	2	0	1	3	0.38552	100
607	3	2	22	"m"	"r"	4	142	17	14	0	2	1	0.26381	-1
607	3	2	22	"m"	"r"	4	143	10	7	0	2	3	0.30454	-100
607	3	2	22	"m"	"r"	4	144	13	9	0	1	3	0.34422	100
607	3	2	22	"m"	"r"	5	145	18	15	16	1	3	0.31125	100
607	3	2	22	"m"	"r"	5	146	5	4	0	2	3	0.42496	-100
607	3	2	22	"m"	"r"	5	147	6	4	3	1	1	0.32813	1
607	3	2	22	"m"	"r"	5	148	3	1	2	2	1	0.43967	-1
607	3	2	22	"m"	"r"	5	149	1	1	0	1	3	0.34391	100
607	3	2	22	"m"	"r"	5	150	9	6	5	2	2	0.42417	-20
607	3	2	22	"m"	"r"	5	151	14	10	0	1	3	0.33579	100
607	3	2	22	"m"	"r"	5	152	15	12	11	2	1	0.35965	-1
607	3	2	22	"m"	"r"	5	153	16	13	0	2	1	0.2727	-1
607	3	2	22	"m"	"r"	5	154	2	2	0	1	3	0.11317	100
607	3	2	22	"m"	"r"	5	155	12	8	7	1	1	0.93708	1
607	3	2	22	"m"	"r"	5	156	8	6	0	1	3	0.41523	100
607	3	2	22	"m"	"r"	5	157	16	13	0	2	1	0.48757	-1
607	3	2	22	"m"	"r"	5	158	7	5	0	1	2	0.43175	20
607	3	2	22	"m"	"r"	5	159	15	11	12	2	3	0.51235	-100
607	3	2	22	"m"	"r"	5	160	17	14	0	2	1	0.28162	-1
607	3	2	22	"m"	"r"	5	161	11	8	0	2	1	0.43086	-1
607	3	2	22	"m"	"r"	5	162	18	16	15	1	1	0.29462	1
607	3	2	22	"m"	"r"	5	163	5	4	0	2	1	0.26436	-1
607	3	2	22	"m"	"r"	5	164	10	7	0	2	1	0.37662	-1
607	3	2	22	"m"	"r"	5	165	6	3	4	1	3	0.52025	100
607	3	2	22	"m"	"r"	5	166	2	2	0	1	3	0.36769	100
607	3	2	22	"m"	"r"	5	167	7	5	0	1	1	0.37708	1
607	3	2	22	"m"	"r"	5	168	13	9	0	1	3	0.36116	100
607	3	2	22	"m"	"r"	5	169	10	7	0	2	1	0.49475	-1
607	3	2	22	"m"	"r"	5	170	12	7	8	1	1	0.36173	1
607	3	2	22	"m"	"r"	5	171	4	3	0	2	1	0.19988	-1
607	3	2	22	"m"	"r"	5	172	14	10	0	1	3	0.38394	100
607	3	2	22	"m"	"r"	5	173	3	2	1	2	3	0.4335	-100
607	3	2	22	"m"	"r"	5	174	4	3	0	2	1	0.33595	-1
607	3	2	22	"m"	"r"	5	175	8	6	0	1	3	0.30283	100
607	3	2	22	"m"	"r"	5	176	9	6	5	2	1	0.32894	-1
607	3	2	22	"m"	"r"	5	177	1	1	0	1	3	0.208	100
607	3	2	22	"m"	"r"	5	178	17	14	0	2	1	0.40154	-1
607	3	2	22	"m"	"r"	5	179	13	9	0	1	3	0.25662	100
607	3	2	22	"m"	"r"	5	180	11	8	0	2	1	0.13817	-1
607	3	2	22	"m"	"r"	6	181	3	1	2	2	1	0.30379	-1
607	3	2	22	"m"	"r"	6	182	18	15	16	1	3	0.40726	100
607	3	2	22	"m"	"r"	6	183	12	8	7	1	1	0.32043	1
607	3	2	22	"m"	"r"	6	184	8	6	0	1	3	0.43982	100
607	3	2	22	"m"	"r"	6	185	2	2	0	1	1	0.3203	1
607	3	2	22	"m"	"r"	6	186	9	6	5	2	1	0.37689	-1
607	3	2	22	"m"	"r"	6	187	14	10	0	1	3	0.41849	100
607	3	2	22	"m"	"r"	6	188	15	12	11	2	1	0.44903	-1
607	3	2	22	"m"	"r"	6	189	7	5	0	1	1	0.33444	1
607	3	2	22	"m"	"r"	6	190	10	7	0	2	1	0.25563	-1
607	3	2	22	"m"	"r"	6	191	6	3	4	1	3	0.2724	100
607	3	2	22	"m"	"r"	6	192	13	9	0	1	3	0.2945	100
607	3	2	22	"m"	"r"	6	193	11	8	0	2	1	0.34407	-1
607	3	2	22	"m"	"r"	6	194	16	13	0	2	1	0.29554	-1
607	3	2	22	"m"	"r"	6	195	11	8	0	2	1	0.28783	-1
607	3	2	22	"m"	"r"	6	196	1	1	0	1	3	0.28744	100
607	3	2	22	"m"	"r"	6	197	16	13	0	2	1	0.24612	-1
607	3	2	22	"m"	"r"	6	198	12	7	8	1	1	0.70421	1
607	3	2	22	"m"	"r"	6	199	4	3	0	2	1	0.40014	-1
607	3	2	22	"m"	"r"	6	200	9	6	5	2	1	0.59241	-1
607	3	2	22	"m"	"r"	6	201	14	10	0	1	3	0.29519	100
607	3	2	22	"m"	"r"	6	202	5	4	0	2	1	0.31253	-1
607	3	2	22	"m"	"r"	6	203	6	4	3	1	3	0.34465	100
607	3	2	22	"m"	"r"	6	204	1	1	0	1	3	0.27507	100
607	3	2	22	"m"	"r"	6	205	13	9	0	1	3	0.40861	100
607	3	2	22	"m"	"r"	6	206	4	3	0	2	1	0.46492	-1
607	3	2	22	"m"	"r"	6	207	17	14	0	2	1	0.28869	-1
607	3	2	22	"m"	"r"	6	208	15	11	12	2	3	0.40796	-100
607	3	2	22	"m"	"r"	6	209	10	7	0	2	1	0.2883	-1
607	3	2	22	"m"	"r"	6	210	5	4	0	2	1	0.24877	-1
607	3	2	22	"m"	"r"	6	211	8	6	0	1	3	0.23329	100
607	3	2	22	"m"	"r"	6	212	3	2	1	2	1	0.57528	-1
607	3	2	22	"m"	"r"	6	213	18	16	15	1	3	0.4637	100
607	3	2	22	"m"	"r"	6	214	17	14	0	2	1	0.34484	-1
607	3	2	22	"m"	"r"	6	215	7	5	0	1	1	0.40045	1
607	3	2	22	"m"	"r"	6	216	2	2	0	1	3	0.38609	100
608	2	1	18	"m"	"r"	1	1	3	1	2	2	2	1.9914	-20
608	2	1	18	"m"	"r"	1	2	1	1	0	1	2	0.38479	20
608	2	1	18	"m"	"r"	1	3	8	6	0	1	1	0.48927	1
608	2	1	18	"m"	"r"	1	4	11	8	0	2	2	0.35338	-20
608	2	1	18	"m"	"r"	1	5	3	2	1	2	1	1.3295	-1
608	2	1	18	"m"	"r"	1	6	13	9	0	1	3	0.48923	100
608	2	1	18	"m"	"r"	1	7	15	12	11	2	2	0.37774	-20
608	2	1	18	"m"	"r"	1	8	10	7	0	2	3	0.50616	-100
608	2	1	18	"m"	"r"	1	9	14	10	0	1	1	0.33596	1
608	2	1	18	"m"	"r"	1	10	7	5	0	1	1	0.64944	1
608	2	1	18	"m"	"r"	1	11	16	13	0	2	2	0.53817	-20
608	2	1	18	"m"	"r"	1	12	14	10	0	1	3	0.57711	100
608	2	1	18	"m"	"r"	1	13	17	14	0	2	3	0.37776	-100
608	2	1	18	"m"	"r"	1	14	4	3	0	2	3	0.42561	-100
608	2	1	18	"m"	"r"	1	15	8	6	0	1	3	0.37747	100
608	2	1	18	"m"	"r"	1	16	7	5	0	1	3	0.45761	100
608	2	1	18	"m"	"r"	1	17	11	8	0	2	1	0.69728	-1
608	2	1	18	"m"	"r"	1	18	2	2	0	1	2	0.31269	20
608	2	1	18	"m"	"r"	1	19	9	6	5	2	3	0.41779	-100
608	2	1	18	"m"	"r"	1	20	5	4	0	2	3	0.44985	-100
608	2	1	18	"m"	"r"	1	21	2	2	0	1	3	0.32977	100
608	2	1	18	"m"	"r"	1	22	4	3	0	2	1	0.43344	-1
608	2	1	18	"m"	"r"	1	23	12	7	8	1	2	0.3858	20
608	2	1	18	"m"	"r"	1	24	18	15	16	1	1	0.45732	1
608	2	1	18	"m"	"r"	1	25	16	13	0	2	2	0.48216	-20
608	2	1	18	"m"	"r"	1	26	6	3	4	1	2	0.48929	20
608	2	1	18	"m"	"r"	1	27	13	9	0	1	3	0.46529	100
608	2	1	18	"m"	"r"	1	28	5	4	0	2	2	0.49743	-20
608	2	1	18	"m"	"r"	1	29	9	6	5	2	3	0.48083	-100
608	2	1	18	"m"	"r"	1	30	1	1	0	1	3	0.39301	100
608	2	1	18	"m"	"r"	1	31	12	8	7	1	3	0.43306	100
608	2	1	18	"m"	"r"	1	32	10	7	0	2	2	0.34523	-20
608	2	1	18	"m"	"r"	1	33	6	4	3	1	1	0.33741	1
608	2	1	18	"m"	"r"	1	34	17	14	0	2	2	0.53737	-20
608	2	1	18	"m"	"r"	1	35	15	11	12	2	1	0.40132	-1
608	2	1	18	"m"	"r"	1	36	18	16	15	1	1	0.55285	1
608	2	1	18	"m"	"r"	2	37	11	8	0	2	3	0.29684	-100
608	2	1	18	"m"	"r"	2	38	2	2	0	1	3	0.34502	100
608	2	1	18	"m"	"r"	2	39	7	5	0	1	3	0.46519	100
608	2	1	18	"m"	"r"	2	40	1	1	0	1	3	0.34571	100
608	2	1	18	"m"	"r"	2	41	14	10	0	1	2	0.32156	20
608	2	1	18	"m"	"r"	2	42	18	16	15	1	3	0.29653	100
608	2	1	18	"m"	"r"	2	43	4	3	0	2	1	0.72153	-1
608	2	1	18	"m"	"r"	2	44	6	4	3	1	1	0.43311	1
608	2	1	18	"m"	"r"	2	45	4	3	0	2	1	0.2651	-1
608	2	1	18	"m"	"r"	2	46	13	9	0	1	3	0.36916	100
608	2	1	18	"m"	"r"	2	47	10	7	0	2	2	0.44991	-20
608	2	1	18	"m"	"r"	2	48	5	4	0	2	2	0.4656	-20
608	2	1	18	"m"	"r"	2	49	13	9	0	1	3	0.361	100
608	2	1	18	"m"	"r"	2	50	10	7	0	2	1	0.79383	-1
608	2	1	18	"m"	"r"	2	51	12	8	7	1	2	0.42479	20
608	2	1	18	"m"	"r"	2	52	9	6	5	2	3	0.63251	-100
608	2	1	18	"m"	"r"	2	53	3	2	1	2	3	0.49693	-100
608	2	1	18	"m"	"r"	2	54	18	15	16	1	3	0.42487	100
608	2	1	18	"m"	"r"	2	55	2	2	0	1	2	0.3539	20
608	2	1	18	"m"	"r"	2	56	16	13	0	2	1	0.41685	-1
608	2	1	18	"m"	"r"	2	57	14	10	0	1	3	0.36133	100
608	2	1	18	"m"	"r"	2	58	17	14	0	2	1	0.39353	-1
608	2	1	18	"m"	"r"	2	59	6	3	4	1	3	0.41721	100
608	2	1	18	"m"	"r"	2	60	9	6	5	2	1	0.56224	-1
608	2	1	18	"m"	"r"	2	61	8	6	0	1	1	0.33601	1
608	2	1	18	"m"	"r"	2	62	1	1	0	1	3	0.37052	100
608	2	1	18	"m"	"r"	2	63	11	8	0	2	1	0.54563	-1
608	2	1	18	"m"	"r"	2	64	7	5	0	1	3	0.31441	100
608	2	1	18	"m"	"r"	2	65	5	4	0	2	1	0.5528	-1
608	2	1	18	"m"	"r"	2	66	15	11	12	2	1	0.3697	-1
608	2	1	18	"m"	"r"	2	67	3	1	2	2	1	0.33025	-1
608	2	1	18	"m"	"r"	2	68	15	12	11	2	1	0.36154	-1
608	2	1	18	"m"	"r"	2	69	16	13	0	2	2	0.44091	-20
608	2	1	18	"m"	"r"	2	70	8	6	0	1	3	0.28874	100
608	2	1	18	"m"	"r"	2	71	17	14	0	2	1	0.33732	-1
608	2	1	18	"m"	"r"	2	72	12	7	8	1	3	0.40191	100
608	2	1	18	"m"	"r"	3	73	7	5	0	1	3	0.33841	100
608	2	1	18	"m"	"r"	3	74	6	3	4	1	3	0.38526	100
608	2	1	18	"m"	"r"	3	75	4	3	0	2	2	0.52902	-20
608	2	1	18	"m"	"r"	3	76	16	13	0	2	1	0.39389	-1
608	2	1	18	"m"	"r"	3	77	11	8	0	2	1	0.32881	-1
608	2	1	18	"m"	"r"	3	78	1	1	0	1	3	0.27411	100
608	2	1	18	"m"	"r"	3	79	12	7	8	1	3	0.4013	100
608	2	1	18	"m"	"r"	3	80	18	15	16	1	3	0.39349	100
608	2	1	18	"m"	"r"	3	81	9	6	5	2	1	0.44161	-1
608	2	1	18	"m"	"r"	3	82	7	5	0	1	3	0.33647	100
608	2	1	18	"m"	"r"	3	83	18	16	15	1	3	0.3849	100
608	2	1	18	"m"	"r"	3	84	8	6	0	1	3	0.2663	100
608	2	1	18	"m"	"r"	3	85	15	11	12	2	1	0.43995	-1
608	2	1	18	"m"	"r"	3	86	5	4	0	2	3	0.3137	-100
608	2	1	18	"m"	"r"	3	87	14	10	0	1	3	0.51397	100
608	2	1	18	"m"	"r"	3	88	13	9	0	1	3	0.35236	100
608	2	1	18	"m"	"r"	3	89	17	14	0	2	1	0.43278	-1
608	2	1	18	"m"	"r"	3	90	10	7	0	2	1	0.40148	-1
608	2	1	18	"m"	"r"	3	91	11	8	0	2	1	0.34586	-1
608	2	1	18	"m"	"r"	3	92	17	14	0	2	1	0.28112	-1
608	2	1	18	"m"	"r"	3	93	15	12	11	2	1	0.29017	-1
608	2	1	18	"m"	"r"	3	94	12	8	7	1	3	0.44939	100
608	2	1	18	"m"	"r"	3	95	3	2	1	2	1	0.53679	-1
608	2	1	18	"m"	"r"	3	96	13	9	0	1	3	0.28934	100
608	2	1	18	"m"	"r"	3	97	2	2	0	1	3	0.32145	100
608	2	1	18	"m"	"r"	3	98	4	3	0	2	3	0.68997	-100
608	2	1	18	"m"	"r"	3	99	9	6	5	2	1	0.36195	-1
608	2	1	18	"m"	"r"	3	100	5	4	0	2	3	0.36134	-100
608	2	1	18	"m"	"r"	3	101	6	4	3	1	3	0.33708	100
608	2	1	18	"m"	"r"	3	102	14	10	0	1	3	0.35355	100
608	2	1	18	"m"	"r"	3	103	1	1	0	1	3	0.31397	100
608	2	1	18	"m"	"r"	3	104	10	7	0	2	1	0.52149	-1
608	2	1	18	"m"	"r"	3	105	8	6	0	1	3	0.29676	100
608	2	1	18	"m"	"r"	3	106	16	13	0	2	1	0.29726	-1
608	2	1	18	"m"	"r"	3	107	3	1	2	2	1	0.32201	-1
608	2	1	18	"m"	"r"	3	108	2	2	0	1	3	0.32209	100
608	2	1	18	"m"	"r"	4	109	15	11	12	2	1	0.32931	-1
608	2	1	18	"m"	"r"	4	110	14	10	0	1	3	0.31263	100
608	2	1	18	"m"	"r"	4	111	2	2	0	1	3	0.29727	100
608	2	1	18	"m"	"r"	4	112	13	9	0	1	3	0.32877	100
608	2	1	18	"m"	"r"	4	113	5	4	0	2	1	0.33832	-1
608	2	1	18	"m"	"r"	4	114	13	9	0	1	3	0.37603	100
608	2	1	18	"m"	"r"	4	115	6	3	4	1	3	0.2895	100
608	2	1	18	"m"	"r"	4	116	7	5	0	1	3	0.26606	100
608	2	1	18	"m"	"r"	4	117	5	4	0	2	1	0.31248	-1
608	2	1	18	"m"	"r"	4	118	18	15	16	1	3	0.34465	100
608	2	1	18	"m"	"r"	4	119	3	1	2	2	1	0.42549	-1
608	2	1	18	"m"	"r"	4	120	10	7	0	2	1	0.5524	-1
608	2	1	18	"m"	"r"	4	121	3	2	1	2	1	0.39991	-1
608	2	1	18	"m"	"r"	4	122	1	1	0	1	3	0.353	100
608	2	1	18	"m"	"r"	4	123	2	2	0	1	3	0.29578	100
608	2	1	18	"m"	"r"	4	124	16	13	0	2	1	0.31239	-1
608	2	1	18	"m"	"r"	4	125	18	16	15	1	3	0.38655	100
608	2	1	18	"m"	"r"	4	126	10	7	0	2	1	0.30537	-1
608	2	1	18	"m"	"r"	4	127	11	8	0	2	1	0.39244	-1
608	2	1	18	"m"	"r"	4	128	1	1	0	1	3	0.4407	100
608	2	1	18	"m"	"r"	4	129	4	3	0	2	1	0.33725	-1
608	2	1	18	"m"	"r"	4	130	9	6	5	2	1	0.4984	-1
608	2	1	18	"m"	"r"	4	131	15	12	11	2	1	0.37687	-1
608	2	1	18	"m"	"r"	4	132	6	4	3	1	3	0.37735	100
608	2	1	18	"m"	"r"	4	133	17	14	0	2	1	0.30446	-1
608	2	1	18	"m"	"r"	4	134	7	5	0	1	3	0.36865	100
608	2	1	18	"m"	"r"	4	135	8	6	0	1	3	0.42456	100
608	2	1	18	"m"	"r"	4	136	12	7	8	1	3	0.40874	100
608	2	1	18	"m"	"r"	4	137	8	6	0	1	3	0.35993	100
608	2	1	18	"m"	"r"	4	138	4	3	0	2	1	0.49768	-1
608	2	1	18	"m"	"r"	4	139	14	10	0	1	3	0.36898	100
608	2	1	18	"m"	"r"	4	140	11	8	0	2	1	0.3528	-1
608	2	1	18	"m"	"r"	4	141	9	6	5	2	1	0.40133	-1
608	2	1	18	"m"	"r"	4	142	16	13	0	2	1	0.46525	-1
608	2	1	18	"m"	"r"	4	143	12	8	7	1	3	0.32051	100
608	2	1	18	"m"	"r"	4	144	17	14	0	2	1	0.34555	-1
608	2	1	18	"m"	"r"	5	145	11	8	0	2	1	0.54066	-1
608	2	1	18	"m"	"r"	5	146	13	9	0	1	3	0.41633	100
608	2	1	18	"m"	"r"	5	147	6	4	3	1	3	0.44909	100
608	2	1	18	"m"	"r"	5	148	9	6	5	2	1	0.32926	-1
608	2	1	18	"m"	"r"	5	149	14	10	0	1	3	0.35154	100
608	2	1	18	"m"	"r"	5	150	11	8	0	2	1	0.33747	-1
608	2	1	18	"m"	"r"	5	151	10	7	0	2	1	0.32939	-1
608	2	1	18	"m"	"r"	5	152	16	13	0	2	1	0.33734	-1
608	2	1	18	"m"	"r"	5	153	17	14	0	2	1	0.39312	-1
608	2	1	18	"m"	"r"	5	154	5	4	0	2	1	0.43306	-1
608	2	1	18	"m"	"r"	5	155	4	3	0	2	1	0.47016	-1
608	2	1	18	"m"	"r"	5	156	3	1	2	2	1	0.36133	-1
608	2	1	18	"m"	"r"	5	157	8	6	0	1	3	0.30554	100
608	2	1	18	"m"	"r"	5	158	10	7	0	2	1	0.2963	-1
608	2	1	18	"m"	"r"	5	159	7	5	0	1	3	0.35386	100
608	2	1	18	"m"	"r"	5	160	13	9	0	1	3	0.30559	100
608	2	1	18	"m"	"r"	5	161	18	16	15	1	3	0.39314	100
608	2	1	18	"m"	"r"	5	162	6	3	4	1	3	0.3534	100
608	2	1	18	"m"	"r"	5	163	12	8	7	1	3	0.33594	100
608	2	1	18	"m"	"r"	5	164	2	2	0	1	3	0.45648	100
608	2	1	18	"m"	"r"	5	165	3	2	1	2	1	0.37807	-1
608	2	1	18	"m"	"r"	5	166	18	15	16	1	3	0.4871	100
608	2	1	18	"m"	"r"	5	167	14	10	0	1	3	0.44137	100
608	2	1	18	"m"	"r"	5	168	12	7	8	1	3	0.47299	100
608	2	1	18	"m"	"r"	5	169	7	5	0	1	3	0.48855	100
608	2	1	18	"m"	"r"	5	170	5	4	0	2	1	0.47379	-1
608	2	1	18	"m"	"r"	5	171	1	1	0	1	3	0.31343	100
608	2	1	18	"m"	"r"	5	172	2	2	0	1	3	0.41734	100
608	2	1	18	"m"	"r"	5	173	15	11	12	2	1	0.47356	-1
608	2	1	18	"m"	"r"	5	174	4	3	0	2	1	0.60859	-1
608	2	1	18	"m"	"r"	5	175	1	1	0	1	3	0.31162	100
608	2	1	18	"m"	"r"	5	176	16	13	0	2	1	0.40721	-1
608	2	1	18	"m"	"r"	5	177	17	14	0	2	1	0.4722	-1
608	2	1	18	"m"	"r"	5	178	9	6	5	2	1	0.42612	-1
608	2	1	18	"m"	"r"	5	179	8	6	0	1	3	0.28946	100
608	2	1	18	"m"	"r"	5	180	15	12	11	2	1	0.34446	-1
608	2	1	18	"m"	"r"	6	181	3	2	1	2	1	0.80152	-1
608	2	1	18	"m"	"r"	6	182	12	7	8	1	3	0.44745	100
608	2	1	18	"m"	"r"	6	183	10	7	0	2	1	0.40943	-1
608	2	1	18	"m"	"r"	6	184	6	4	3	1	3	0.36063	100
608	2	1	18	"m"	"r"	6	185	15	11	12	2	1	0.25699	-1
608	2	1	18	"m"	"r"	6	186	4	3	0	2	1	0.34467	-1
608	2	1	18	"m"	"r"	6	187	2	2	0	1	3	0.46332	100
608	2	1	18	"m"	"r"	6	188	6	3	4	1	3	0.7614	100
608	2	1	18	"m"	"r"	6	189	13	9	0	1	3	0.34374	100
608	2	1	18	"m"	"r"	6	190	11	8	0	2	1	0.2581	-1
608	2	1	18	"m"	"r"	6	191	16	13	0	2	1	0.27216	-1
608	2	1	18	"m"	"r"	6	192	8	6	0	1	3	0.36135	100
608	2	1	18	"m"	"r"	6	193	10	7	0	2	1	0.28845	-1
608	2	1	18	"m"	"r"	6	194	7	5	0	1	3	0.25746	100
608	2	1	18	"m"	"r"	6	195	14	10	0	1	3	0.34528	100
608	2	1	18	"m"	"r"	6	196	8	6	0	1	3	0.36998	100
608	2	1	18	"m"	"r"	6	197	11	8	0	2	1	0.33784	-1
608	2	1	18	"m"	"r"	6	198	7	5	0	1	3	0.36191	100
608	2	1	18	"m"	"r"	6	199	17	14	0	2	1	0.47292	-1
608	2	1	18	"m"	"r"	6	200	16	13	0	2	1	0.33844	-1
608	2	1	18	"m"	"r"	6	201	12	8	7	1	3	0.31429	100
608	2	1	18	"m"	"r"	6	202	14	10	0	1	3	0.33818	100
608	2	1	18	"m"	"r"	6	203	17	14	0	2	1	0.3685	-1
608	2	1	18	"m"	"r"	6	204	5	4	0	2	1	0.67968	-1
608	2	1	18	"m"	"r"	6	205	2	2	0	1	3	0.32117	100
608	2	1	18	"m"	"r"	6	206	1	1	0	1	3	0.28929	100
608	2	1	18	"m"	"r"	6	207	9	6	5	2	1	0.43407	-1
608	2	1	18	"m"	"r"	6	208	13	9	0	1	3	0.55432	100
608	2	1	18	"m"	"r"	6	209	4	3	0	2	1	0.39315	-1
608	2	1	18	"m"	"r"	6	210	1	1	0	1	3	0.28046	100
608	2	1	18	"m"	"r"	6	211	3	1	2	2	1	0.25559	-1
608	2	1	18	"m"	"r"	6	212	15	12	11	2	1	0.26534	-1
608	2	1	18	"m"	"r"	6	213	5	4	0	2	1	0.34339	-1
608	2	1	18	"m"	"r"	6	214	18	15	16	1	3	0.53645	100
608	2	1	18	"m"	"r"	6	215	9	6	5	2	1	0.48985	-1
608	2	1	18	"m"	"r"	6	216	18	16	15	1	3	0.34491	100
609	3	2	19	"m"	"r"	1	1	13	9	0	1	2	2.2201	20
609	3	2	19	"m"	"r"	1	2	4	3	0	2	1	1.5135	-1
609	3	2	19	"m"	"r"	1	3	2	2	0	1	2	0.68908	20
609	3	2	19	"m"	"r"	1	4	13	9	0	1	1	0.78386	1
609	3	2	19	"m"	"r"	1	5	11	8	0	2	2	0.399	-20
609	3	2	19	"m"	"r"	1	6	7	5	0	1	2	0.27427	20
609	3	2	19	"m"	"r"	1	7	17	14	0	2	1	0.47865	-1
609	3	2	19	"m"	"r"	1	8	1	1	0	1	2	0.30418	20
609	3	2	19	"m"	"r"	1	9	12	8	7	1	1	0.44774	1
609	3	2	19	"m"	"r"	1	10	9	6	5	2	1	0.35242	-1
609	3	2	19	"m"	"r"	1	11	15	12	11	2	2	1.0016	-20
609	3	2	19	"m"	"r"	1	12	5	4	0	2	1	0.33483	-1
609	3	2	19	"m"	"r"	1	13	9	6	5	2	1	0.42533	-1
609	3	2	19	"m"	"r"	1	14	6	3	4	1	3	0.2879	100
609	3	2	19	"m"	"r"	1	15	16	13	0	2	1	0.26981	-1
609	3	2	19	"m"	"r"	1	16	17	14	0	2	1	0.26421	-1
609	3	2	19	"m"	"r"	1	17	7	5	0	1	1	0.26421	1
609	3	2	19	"m"	"r"	1	18	18	16	15	1	1	0.44968	1
609	3	2	19	"m"	"r"	1	19	14	10	0	1	1	0.66496	1
609	3	2	19	"m"	"r"	1	20	3	2	1	2	2	0.32071	-20
609	3	2	19	"m"	"r"	1	21	14	10	0	1	3	0.31098	100
609	3	2	19	"m"	"r"	1	22	6	4	3	1	1	0.37607	1
609	3	2	19	"m"	"r"	1	23	10	7	0	2	3	0.41602	-100
609	3	2	19	"m"	"r"	1	24	1	1	0	1	3	0.30406	100
609	3	2	19	"m"	"r"	1	25	16	13	0	2	1	0.30242	-1
609	3	2	19	"m"	"r"	1	26	10	7	0	2	3	0.30247	-100
609	3	2	19	"m"	"r"	1	27	5	4	0	2	3	0.3288	-100
609	3	2	19	"m"	"r"	1	28	15	11	12	2	1	0.36002	-1
609	3	2	19	"m"	"r"	1	29	8	6	0	1	1	0.40084	1
609	3	2	19	"m"	"r"	1	30	12	7	8	1	1	0.72925	1
609	3	2	19	"m"	"r"	1	31	3	1	2	2	1	0.4154	-1
609	3	2	19	"m"	"r"	1	32	8	6	0	1	1	0.31926	1
609	3	2	19	"m"	"r"	1	33	18	15	16	1	1	0.44832	1
609	3	2	19	"m"	"r"	1	34	4	3	0	2	1	0.3779	-1
609	3	2	19	"m"	"r"	1	35	11	8	0	2	1	0.31222	-1
609	3	2	19	"m"	"r"	1	36	2	2	0	1	1	0.35263	1
609	3	2	19	"m"	"r"	2	37	18	16	15	1	3	0.45598	100
609	3	2	19	"m"	"r"	2	38	17	14	0	2	1	0.25738	-1
609	3	2	19	"m"	"r"	2	39	11	8	0	2	1	0.2631	-1
609	3	2	19	"m"	"r"	2	40	9	6	5	2	3	0.46233	-100
609	3	2	19	"m"	"r"	2	41	7	5	0	1	3	0.2648	100
609	3	2	19	"m"	"r"	2	42	16	13	0	2	3	0.35149	-100
609	3	2	19	"m"	"r"	2	43	6	4	3	1	3	0.49675	100
609	3	2	19	"m"	"r"	2	44	12	8	7	1	3	0.28914	100
609	3	2	19	"m"	"r"	2	45	5	4	0	2	3	0.40844	-100
609	3	2	19	"m"	"r"	2	46	2	2	0	1	1	0.46432	1
609	3	2	19	"m"	"r"	2	47	9	6	5	2	1	0.23992	-1
609	3	2	19	"m"	"r"	2	48	1	1	0	1	3	0.29675	100
609	3	2	19	"m"	"r"	2	49	6	3	4	1	1	0.28066	1
609	3	2	19	"m"	"r"	2	50	7	5	0	1	1	0.27259	1
609	3	2	19	"m"	"r"	2	51	5	4	0	2	1	0.30313	-1
609	3	2	19	"m"	"r"	2	52	10	7	0	2	1	0.30548	-1
609	3	2	19	"m"	"r"	2	53	8	6	0	1	1	0.24138	1
609	3	2	19	"m"	"r"	2	54	11	8	0	2	1	0.41579	-1
609	3	2	19	"m"	"r"	2	55	4	3	0	2	1	0.36009	-1
609	3	2	19	"m"	"r"	2	56	14	10	0	1	3	0.27305	100
609	3	2	19	"m"	"r"	2	57	4	3	0	2	1	0.61589	-1
609	3	2	19	"m"	"r"	2	58	15	12	11	2	1	0.74443	-1
609	3	2	19	"m"	"r"	2	59	18	15	16	1	1	0.28089	1
609	3	2	19	"m"	"r"	2	60	14	10	0	1	3	0.31307	100
609	3	2	19	"m"	"r"	2	61	12	7	8	1	1	0.55106	1
609	3	2	19	"m"	"r"	2	62	8	6	0	1	3	0.48855	100
609	3	2	19	"m"	"r"	2	63	1	1	0	1	1	0.39139	1
609	3	2	19	"m"	"r"	2	64	17	14	0	2	1	0.51174	-1
609	3	2	19	"m"	"r"	2	65	2	2	0	1	1	0.39185	1
609	3	2	19	"m"	"r"	2	66	3	2	1	2	1	1.9208	-1
609	3	2	19	"m"	"r"	2	67	15	11	12	2	1	0.34453	-1
609	3	2	19	"m"	"r"	2	68	13	9	0	1	1	0.35209	1
609	3	2	19	"m"	"r"	2	69	10	7	0	2	1	0.33572	-1
609	3	2	19	"m"	"r"	2	70	16	13	0	2	1	0.27207	-1
609	3	2	19	"m"	"r"	2	71	3	1	2	2	3	0.67187	-100
609	3	2	19	"m"	"r"	2	72	13	9	0	1	3	0.39178	100
609	3	2	19	"m"	"r"	3	73	15	12	11	2	1	0.28825	-1
609	3	2	19	"m"	"r"	3	74	2	2	0	1	3	0.49782	100
609	3	2	19	"m"	"r"	3	75	8	6	0	1	3	0.28692	100
609	3	2	19	"m"	"r"	3	76	13	9	0	1	3	0.25749	100
609	3	2	19	"m"	"r"	3	77	17	14	0	2	1	0.52111	-1
609	3	2	19	"m"	"r"	3	78	16	13	0	2	1	0.63415	-1
609	3	2	19	"m"	"r"	3	79	5	4	0	2	1	0.25634	-1
609	3	2	19	"m"	"r"	3	80	4	3	0	2	1	0.37553	-1
609	3	2	19	"m"	"r"	3	81	13	9	0	1	3	0.29717	100
609	3	2	19	"m"	"r"	3	82	3	1	2	2	3	0.57643	-100
609	3	2	19	"m"	"r"	3	83	1	1	0	1	3	0.28972	100
609	3	2	19	"m"	"r"	3	84	6	4	3	1	1	0.33699	1
609	3	2	19	"m"	"r"	3	85	18	16	15	1	1	0.58636	1
609	3	2	19	"m"	"r"	3	86	5	4	0	2	1	0.28157	-1
609	3	2	19	"m"	"r"	3	87	18	15	16	1	1	0.408	1
609	3	2	19	"m"	"r"	3	88	15	11	12	2	1	0.2647	-1
609	3	2	19	"m"	"r"	3	89	12	8	7	1	1	0.84077	1
609	3	2	19	"m"	"r"	3	90	6	3	4	1	1	0.34528	1
609	3	2	19	"m"	"r"	3	91	1	1	0	1	3	0.54391	100
609	3	2	19	"m"	"r"	3	92	11	8	0	2	1	0.55994	-1
609	3	2	19	"m"	"r"	3	93	10	7	0	2	1	0.27327	-1
609	3	2	19	"m"	"r"	3	94	9	6	5	2	1	0.28983	-1
609	3	2	19	"m"	"r"	3	95	17	14	0	2	1	0.36911	-1
609	3	2	19	"m"	"r"	3	96	4	3	0	2	1	0.35199	-1
609	3	2	19	"m"	"r"	3	97	11	8	0	2	1	0.28197	-1
609	3	2	19	"m"	"r"	3	98	12	7	8	1	1	0.36167	1
609	3	2	19	"m"	"r"	3	99	7	5	0	1	3	0.32696	100
609	3	2	19	"m"	"r"	3	100	9	6	5	2	1	0.33588	-1
609	3	2	19	"m"	"r"	3	101	2	2	0	1	3	0.38587	100
609	3	2	19	"m"	"r"	3	102	8	6	0	1	3	0.34294	100
609	3	2	19	"m"	"r"	3	103	10	7	0	2	1	0.40821	-1
609	3	2	19	"m"	"r"	3	104	14	10	0	1	3	0.36071	100
609	3	2	19	"m"	"r"	3	105	7	5	0	1	3	0.30379	100
609	3	2	19	"m"	"r"	3	106	3	2	1	2	3	0.23977	-100
609	3	2	19	"m"	"r"	3	107	16	13	0	2	1	0.28053	-1
609	3	2	19	"m"	"r"	3	108	14	10	0	1	3	0.28628	100
609	3	2	19	"m"	"r"	4	109	3	1	2	2	1	0.32682	-1
609	3	2	19	"m"	"r"	4	110	15	11	12	2	1	0.3374	-1
609	3	2	19	"m"	"r"	4	111	17	14	0	2	1	0.22278	-1
609	3	2	19	"m"	"r"	4	112	18	15	16	1	3	0.34366	100
609	3	2	19	"m"	"r"	4	113	8	6	0	1	3	0.304	100
609	3	2	19	"m"	"r"	4	114	16	13	0	2	1	0.39962	-1
609	3	2	19	"m"	"r"	4	115	4	3	0	2	1	0.50448	-1
609	3	2	19	"m"	"r"	4	116	11	8	0	2	1	0.37562	-1
609	3	2	19	"m"	"r"	4	117	6	3	4	1	1	0.47303	1
609	3	2	19	"m"	"r"	4	118	8	6	0	1	3	0.40609	100
609	3	2	19	"m"	"r"	4	119	16	13	0	2	1	0.32789	-1
609	3	2	19	"m"	"r"	4	120	10	7	0	2	1	0.48932	-1
609	3	2	19	"m"	"r"	4	121	9	6	5	2	1	0.31151	-1
609	3	2	19	"m"	"r"	4	122	1	1	0	1	3	0.29537	100
609	3	2	19	"m"	"r"	4	123	9	6	5	2	1	0.38509	-1
609	3	2	19	"m"	"r"	4	124	10	7	0	2	1	0.45692	-1
609	3	2	19	"m"	"r"	4	125	5	4	0	2	1	0.70572	-1
609	3	2	19	"m"	"r"	4	126	14	10	0	1	3	1.3197	100
609	3	2	19	"m"	"r"	4	127	13	9	0	1	3	0.30365	100
609	3	2	19	"m"	"r"	4	128	11	8	0	2	2	0.37601	-20
609	3	2	19	"m"	"r"	4	129	3	2	1	2	1	0.48658	-1
609	3	2	19	"m"	"r"	4	130	7	5	0	1	3	0.24847	100
609	3	2	19	"m"	"r"	4	131	12	7	8	1	3	0.3746	100
609	3	2	19	"m"	"r"	4	132	1	1	0	1	3	0.27971	100
609	3	2	19	"m"	"r"	4	133	18	16	15	1	3	0.3909	100
609	3	2	19	"m"	"r"	4	134	12	8	7	1	3	0.40569	100
609	3	2	19	"m"	"r"	4	135	2	2	0	1	3	0.33592	100
609	3	2	19	"m"	"r"	4	136	5	4	0	2	1	0.67923	-1
609	3	2	19	"m"	"r"	4	137	13	9	0	1	3	0.41693	100
609	3	2	19	"m"	"r"	4	138	6	4	3	1	3	0.41558	100
609	3	2	19	"m"	"r"	4	139	4	3	0	2	1	0.39221	-1
609	3	2	19	"m"	"r"	4	140	2	2	0	1	3	0.40995	100
609	3	2	19	"m"	"r"	4	141	14	10	0	1	3	0.32045	100
609	3	2	19	"m"	"r"	4	142	15	12	11	2	1	0.42282	-1
609	3	2	19	"m"	"r"	4	143	7	5	0	1	3	0.24803	100
609	3	2	19	"m"	"r"	4	144	17	14	0	2	1	0.31235	-1
609	3	2	19	"m"	"r"	5	145	4	3	0	2	1	0.41742	-1
609	3	2	19	"m"	"r"	5	146	8	6	0	1	3	0.35229	100
609	3	2	19	"m"	"r"	5	147	15	12	11	2	1	0.48157	-1
609	3	2	19	"m"	"r"	5	148	10	7	0	2	1	0.28031	-1
609	3	2	19	"m"	"r"	5	149	3	1	2	2	1	0.28814	-1
609	3	2	19	"m"	"r"	5	150	12	8	7	1	3	0.49458	100
609	3	2	19	"m"	"r"	5	151	2	2	0	1	3	0.2579	100
609	3	2	19	"m"	"r"	5	152	1	1	0	1	3	0.30358	100
609	3	2	19	"m"	"r"	5	153	16	13	0	2	1	0.56751	-1
609	3	2	19	"m"	"r"	5	154	3	2	1	2	1	0.28156	-1
609	3	2	19	"m"	"r"	5	155	14	10	0	1	3	0.30439	100
609	3	2	19	"m"	"r"	5	156	5	4	0	2	1	0.31216	-1
609	3	2	19	"m"	"r"	5	157	18	16	15	1	3	0.27947	100
609	3	2	19	"m"	"r"	5	158	7	5	0	1	3	0.27998	100
609	3	2	19	"m"	"r"	5	159	18	15	16	1	3	0.41498	100
609	3	2	19	"m"	"r"	5	160	10	7	0	2	1	0.28004	-1
609	3	2	19	"m"	"r"	5	161	1	1	0	1	3	0.45634	100
609	3	2	19	"m"	"r"	5	162	7	5	0	1	3	0.34315	100
609	3	2	19	"m"	"r"	5	163	6	3	4	1	1	1.0966	1
609	3	2	19	"m"	"r"	5	164	12	7	8	1	3	0.58412	100
609	3	2	19	"m"	"r"	5	165	14	10	0	1	3	0.32896	100
609	3	2	19	"m"	"r"	5	166	2	2	0	1	3	0.44864	100
609	3	2	19	"m"	"r"	5	167	9	6	5	2	1	0.30451	-1
609	3	2	19	"m"	"r"	5	168	4	3	0	2	1	0.4409	-1
609	3	2	19	"m"	"r"	5	169	13	9	0	1	3	0.55368	100
609	3	2	19	"m"	"r"	5	170	5	4	0	2	1	0.3042	-1
609	3	2	19	"m"	"r"	5	171	16	13	0	2	1	0.55234	-1
609	3	2	19	"m"	"r"	5	172	17	14	0	2	1	0.30324	-1
609	3	2	19	"m"	"r"	5	173	15	11	12	2	1	0.32135	-1
609	3	2	19	"m"	"r"	5	174	11	8	0	2	1	0.31342	-1
609	3	2	19	"m"	"r"	5	175	8	6	0	1	3	0.36016	100
609	3	2	19	"m"	"r"	5	176	13	9	0	1	3	0.31369	100
609	3	2	19	"m"	"r"	5	177	9	6	5	2	1	0.35237	-1
609	3	2	19	"m"	"r"	5	178	6	4	3	1	3	0.33703	100
609	3	2	19	"m"	"r"	5	179	17	14	0	2	1	0.42433	-1
609	3	2	19	"m"	"r"	5	180	11	8	0	2	1	0.44125	-1
609	3	2	19	"m"	"r"	6	181	7	5	0	1	3	0.4647	100
609	3	2	19	"m"	"r"	6	182	17	14	0	2	1	0.8408	-1
609	3	2	19	"m"	"r"	6	183	16	13	0	2	1	0.31239	-1
609	3	2	19	"m"	"r"	6	184	18	16	15	1	3	0.49629	100
609	3	2	19	"m"	"r"	6	185	1	1	0	1	3	0.3433	100
609	3	2	19	"m"	"r"	6	186	2	2	0	1	3	0.28903	100
609	3	2	19	"m"	"r"	6	187	1	1	0	1	3	0.48891	100
609	3	2	19	"m"	"r"	6	188	5	4	0	2	1	0.44927	-1
609	3	2	19	"m"	"r"	6	189	17	14	0	2	1	0.39214	-1
609	3	2	19	"m"	"r"	6	190	5	4	0	2	1	0.28955	-1
609	3	2	19	"m"	"r"	6	191	11	8	0	2	1	0.40793	-1
609	3	2	19	"m"	"r"	6	192	9	6	5	2	1	0.25637	-1
609	3	2	19	"m"	"r"	6	193	3	1	2	2	1	0.50487	-1
609	3	2	19	"m"	"r"	6	194	12	7	8	1	3	0.35191	100
609	3	2	19	"m"	"r"	6	195	15	12	11	2	1	0.40806	-1
609	3	2	19	"m"	"r"	6	196	6	4	3	1	3	0.27962	100
609	3	2	19	"m"	"r"	6	197	2	2	0	1	3	0.32067	100
609	3	2	19	"m"	"r"	6	198	16	13	0	2	1	0.52597	-1
609	3	2	19	"m"	"r"	6	199	8	6	0	1	3	0.31134	100
609	3	2	19	"m"	"r"	6	200	14	10	0	1	3	0.26394	100
609	3	2	19	"m"	"r"	6	201	7	5	0	1	1	0.25651	1
609	3	2	19	"m"	"r"	6	202	4	3	0	2	1	0.2883	-1
609	3	2	19	"m"	"r"	6	203	10	7	0	2	1	0.27995	-1
609	3	2	19	"m"	"r"	6	204	13	9	0	1	3	0.26397	100
609	3	2	19	"m"	"r"	6	205	9	6	5	2	1	0.57558	-1
609	3	2	19	"m"	"r"	6	206	14	10	0	1	3	0.50412	100
609	3	2	19	"m"	"r"	6	207	8	6	0	1	3	0.36786	100
609	3	2	19	"m"	"r"	6	208	12	8	7	1	3	0.37551	100
609	3	2	19	"m"	"r"	6	209	4	3	0	2	1	0.35326	-1
609	3	2	19	"m"	"r"	6	210	15	11	12	2	1	0.36716	-1
609	3	2	19	"m"	"r"	6	211	6	3	4	1	3	0.28913	100
609	3	2	19	"m"	"r"	6	212	13	9	0	1	3	0.34462	100
609	3	2	19	"m"	"r"	6	213	11	8	0	2	1	0.23911	-1
609	3	2	19	"m"	"r"	6	214	3	2	1	2	1	0.29415	-1
609	3	2	19	"m"	"r"	6	215	10	7	0	2	1	0.25847	-1
609	3	2	19	"m"	"r"	6	216	18	15	16	1	3	0.41538	100
610	2	1	20	"m"	"r"	1	1	10	7	0	2	1	0.27348	-1
610	2	1	20	"m"	"r"	1	2	7	5	0	1	1	0.28015	1
610	2	1	20	"m"	"r"	1	3	16	13	0	2	1	0.29597	-1
610	2	1	20	"m"	"r"	1	4	14	10	0	1	2	0.24826	20
610	2	1	20	"m"	"r"	1	5	6	4	3	1	1	0.26376	1
610	2	1	20	"m"	"r"	1	6	5	4	0	2	2	0.24076	-20
610	2	1	20	"m"	"r"	1	7	1	1	0	1	2	0.2802	20
610	2	1	20	"m"	"r"	1	8	14	10	0	1	3	0.31315	100
610	2	1	20	"m"	"r"	1	9	17	14	0	2	1	0.32169	-1
610	2	1	20	"m"	"r"	1	10	18	15	16	1	3	0.28047	100
610	2	1	20	"m"	"r"	1	11	11	8	0	2	1	0.25652	-1
610	2	1	20	"m"	"r"	1	12	3	2	1	2	1	0.36225	-1
610	2	1	20	"m"	"r"	1	13	8	6	0	1	1	0.25577	1
610	2	1	20	"m"	"r"	1	14	13	9	0	1	1	0.29505	1
610	2	1	20	"m"	"r"	1	15	6	3	4	1	1	0.36725	1
610	2	1	20	"m"	"r"	1	16	4	3	0	2	1	0.26258	-1
610	2	1	20	"m"	"r"	1	17	13	9	0	1	3	0.31235	100
610	2	1	20	"m"	"r"	1	18	15	11	12	2	1	0.36985	-1
610	2	1	20	"m"	"r"	1	19	8	6	0	1	3	0.32061	100
610	2	1	20	"m"	"r"	1	20	9	6	5	2	1	0.35947	-1
610	2	1	20	"m"	"r"	1	21	17	14	0	2	1	0.31291	-1
610	2	1	20	"m"	"r"	1	22	18	16	15	1	3	0.28933	100
610	2	1	20	"m"	"r"	1	23	1	1	0	1	3	0.24028	100
610	2	1	20	"m"	"r"	1	24	10	7	0	2	2	0.32894	-20
610	2	1	20	"m"	"r"	1	25	2	2	0	1	1	0.28843	1
610	2	1	20	"m"	"r"	1	26	12	7	8	1	1	0.35337	1
610	2	1	20	"m"	"r"	1	27	11	8	0	2	1	0.30315	-1
610	2	1	20	"m"	"r"	1	28	2	2	0	1	1	0.26583	1
610	2	1	20	"m"	"r"	1	29	7	5	0	1	1	0.40852	1
610	2	1	20	"m"	"r"	1	30	15	12	11	2	1	0.3292	-1
610	2	1	20	"m"	"r"	1	31	4	3	0	2	1	0.30337	-1
610	2	1	20	"m"	"r"	1	32	5	4	0	2	1	0.33579	-1
610	2	1	20	"m"	"r"	1	33	16	13	0	2	1	0.26497	-1
610	2	1	20	"m"	"r"	1	34	12	8	7	1	3	0.54263	100
610	2	1	20	"m"	"r"	1	35	3	1	2	2	1	0.32039	-1
610	2	1	20	"m"	"r"	1	36	9	6	5	2	1	0.25701	-1
610	2	1	20	"m"	"r"	2	37	14	10	0	1	3	0.28838	100
610	2	1	20	"m"	"r"	2	38	4	3	0	2	1	0.33686	-1
610	2	1	20	"m"	"r"	2	39	18	15	16	1	3	0.27363	100
610	2	1	20	"m"	"r"	2	40	17	14	0	2	1	0.20803	-1
610	2	1	20	"m"	"r"	2	41	12	7	8	1	3	0.33607	100
610	2	1	20	"m"	"r"	2	42	10	7	0	2	1	0.26425	-1
610	2	1	20	"m"	"r"	2	43	4	3	0	2	1	0.26227	-1
610	2	1	20	"m"	"r"	2	44	3	2	1	2	1	0.32744	-1
610	2	1	20	"m"	"r"	2	45	10	7	0	2	1	0.34487	-1
610	2	1	20	"m"	"r"	2	46	9	6	5	2	1	0.31295	-1
610	2	1	20	"m"	"r"	2	47	5	4	0	2	1	0.32789	-1
610	2	1	20	"m"	"r"	2	48	15	11	12	2	1	0.26605	-1
610	2	1	20	"m"	"r"	2	49	9	6	5	2	1	0.25596	-1
610	2	1	20	"m"	"r"	2	50	8	6	0	1	1	0.3846	1
610	2	1	20	"m"	"r"	2	51	14	10	0	1	3	0.43188	100
610	2	1	20	"m"	"r"	2	52	6	3	4	1	1	0.36101	1
610	2	1	20	"m"	"r"	2	53	5	4	0	2	1	0.39191	-1
610	2	1	20	"m"	"r"	2	54	13	9	0	1	3	0.33644	100
610	2	1	20	"m"	"r"	2	55	3	1	2	2	1	0.28798	-1
610	2	1	20	"m"	"r"	2	56	7	5	0	1	1	0.41588	1
610	2	1	20	"m"	"r"	2	57	17	14	0	2	1	0.26495	-1
610	2	1	20	"m"	"r"	2	58	11	8	0	2	1	0.88713	-1
610	2	1	20	"m"	"r"	2	59	13	9	0	1	3	0.41589	100
610	2	1	20	"m"	"r"	2	60	6	4	3	1	3	0.34444	100
610	2	1	20	"m"	"r"	2	61	2	2	0	1	3	0.31122	100
610	2	1	20	"m"	"r"	2	62	18	16	15	1	3	0.26479	100
610	2	1	20	"m"	"r"	2	63	1	1	0	1	3	0.29662	100
610	2	1	20	"m"	"r"	2	64	2	2	0	1	3	0.26514	100
610	2	1	20	"m"	"r"	2	65	7	5	0	1	3	0.38518	100
610	2	1	20	"m"	"r"	2	66	1	1	0	1	3	0.2571	100
610	2	1	20	"m"	"r"	2	67	16	13	0	2	1	0.44896	-1
610	2	1	20	"m"	"r"	2	68	12	8	7	1	3	0.38568	100
610	2	1	20	"m"	"r"	2	69	8	6	0	1	3	0.45676	100
610	2	1	20	"m"	"r"	2	70	16	13	0	2	1	0.32754	-1
610	2	1	20	"m"	"r"	2	71	11	8	0	2	1	0.44802	-1
610	2	1	20	"m"	"r"	2	72	15	12	11	2	1	0.42296	-1
610	2	1	20	"m"	"r"	3	73	17	14	0	2	1	0.27114	-1
610	2	1	20	"m"	"r"	3	74	9	6	5	2	3	0.30424	-100
610	2	1	20	"m"	"r"	3	75	6	3	4	1	3	0.28813	100
610	2	1	20	"m"	"r"	3	76	1	1	0	1	3	0.30344	100
610	2	1	20	"m"	"r"	3	77	11	8	0	2	1	0.37759	-1
610	2	1	20	"m"	"r"	3	78	16	13	0	2	1	0.2859	-1
610	2	1	20	"m"	"r"	3	79	3	2	1	2	1	0.40046	-1
610	2	1	20	"m"	"r"	3	80	16	13	0	2	1	0.30437	-1
610	2	1	20	"m"	"r"	3	81	9	6	5	2	1	0.28777	-1
610	2	1	20	"m"	"r"	3	82	8	6	0	1	3	0.25584	100
610	2	1	20	"m"	"r"	3	83	4	3	0	2	1	0.43301	-1
610	2	1	20	"m"	"r"	3	84	15	12	11	2	1	0.25651	-1
610	2	1	20	"m"	"r"	3	85	5	4	0	2	1	0.30472	-1
610	2	1	20	"m"	"r"	3	86	14	10	0	1	1	0.41667	1
610	2	1	20	"m"	"r"	3	87	12	8	7	1	3	0.4157	100
610	2	1	20	"m"	"r"	3	88	11	8	0	2	1	0.40014	-1
610	2	1	20	"m"	"r"	3	89	1	1	0	1	3	0.31344	100
610	2	1	20	"m"	"r"	3	90	7	5	0	1	1	0.48906	1
610	2	1	20	"m"	"r"	3	91	5	4	0	2	1	0.40081	-1
610	2	1	20	"m"	"r"	3	92	6	4	3	1	3	0.66548	100
610	2	1	20	"m"	"r"	3	93	2	2	0	1	3	0.33536	100
610	2	1	20	"m"	"r"	3	94	18	15	16	1	3	0.32108	100
610	2	1	20	"m"	"r"	3	95	15	11	12	2	1	0.4308	-1
610	2	1	20	"m"	"r"	3	96	10	7	0	2	1	0.3121	-1
610	2	1	20	"m"	"r"	3	97	17	14	0	2	1	0.43912	-1
610	2	1	20	"m"	"r"	3	98	18	16	15	1	3	0.38618	100
610	2	1	20	"m"	"r"	3	99	13	9	0	1	3	0.51218	100
610	2	1	20	"m"	"r"	3	100	12	7	8	1	3	0.2956	100
610	2	1	20	"m"	"r"	3	101	2	2	0	1	3	0.50478	100
610	2	1	20	"m"	"r"	3	102	10	7	0	2	1	0.54297	-1
610	2	1	20	"m"	"r"	3	103	7	5	0	1	3	0.36988	100
610	2	1	20	"m"	"r"	3	104	4	3	0	2	1	0.31996	-1
610	2	1	20	"m"	"r"	3	105	3	1	2	2	1	0.2805	-1
610	2	1	20	"m"	"r"	3	106	13	9	0	1	3	0.2567	100
610	2	1	20	"m"	"r"	3	107	14	10	0	1	3	0.2638	100
610	2	1	20	"m"	"r"	3	108	8	6	0	1	3	0.41594	100
610	2	1	20	"m"	"r"	4	109	10	7	0	2	1	0.32803	-1
610	2	1	20	"m"	"r"	4	110	18	16	15	1	3	0.28854	100
610	2	1	20	"m"	"r"	4	111	4	3	0	2	1	0.39275	-1
610	2	1	20	"m"	"r"	4	112	2	2	0	1	3	0.29663	100
610	2	1	20	"m"	"r"	4	113	7	5	0	1	3	0.31314	100
610	2	1	20	"m"	"r"	4	114	13	9	0	1	3	0.27162	100
610	2	1	20	"m"	"r"	4	115	11	8	0	2	1	0.4013	-1
610	2	1	20	"m"	"r"	4	116	10	7	0	2	1	0.79946	-1
610	2	1	20	"m"	"r"	4	117	14	10	0	1	3	0.31056	100
610	2	1	20	"m"	"r"	4	118	7	5	0	1	3	0.31316	100
610	2	1	20	"m"	"r"	4	119	17	14	0	2	1	0.17616	-1
610	2	1	20	"m"	"r"	4	120	15	12	11	2	1	0.25569	-1
610	2	1	20	"m"	"r"	4	121	9	6	5	2	1	0.28901	-1
610	2	1	20	"m"	"r"	4	122	13	9	0	1	3	0.38429	100
610	2	1	20	"m"	"r"	4	123	5	4	0	2	1	0.49607	-1
610	2	1	20	"m"	"r"	4	124	11	8	0	2	1	0.41585	-1
610	2	1	20	"m"	"r"	4	125	1	1	0	1	3	0.39953	100
610	2	1	20	"m"	"r"	4	126	2	2	0	1	3	0.38466	100
610	2	1	20	"m"	"r"	4	127	3	1	2	2	1	0.57666	-1
610	2	1	20	"m"	"r"	4	128	1	1	0	1	3	0.31252	100
610	2	1	20	"m"	"r"	4	129	4	3	0	2	1	0.34653	-1
610	2	1	20	"m"	"r"	4	130	14	10	0	1	3	0.47228	100
610	2	1	20	"m"	"r"	4	131	17	14	0	2	1	0.60796	-1
610	2	1	20	"m"	"r"	4	132	15	11	12	2	1	0.36842	-1
610	2	1	20	"m"	"r"	4	133	16	13	0	2	1	0.2712	-1
610	2	1	20	"m"	"r"	4	134	12	8	7	1	3	0.29649	100
610	2	1	20	"m"	"r"	4	135	8	6	0	1	3	0.28826	100
610	2	1	20	"m"	"r"	4	136	16	13	0	2	1	0.48735	-1
610	2	1	20	"m"	"r"	4	137	6	4	3	1	3	0.4236	100
610	2	1	20	"m"	"r"	4	138	3	2	1	2	1	0.45715	-1
610	2	1	20	"m"	"r"	4	139	18	15	16	1	3	0.35355	100
610	2	1	20	"m"	"r"	4	140	6	3	4	1	3	0.24891	100
610	2	1	20	"m"	"r"	4	141	5	4	0	2	1	0.40072	-1
610	2	1	20	"m"	"r"	4	142	8	6	0	1	3	0.3692	100
610	2	1	20	"m"	"r"	4	143	12	7	8	1	3	0.42325	100
610	2	1	20	"m"	"r"	4	144	9	6	5	2	1	0.36743	-1
610	2	1	20	"m"	"r"	5	145	15	12	11	2	1	0.25649	-1
610	2	1	20	"m"	"r"	5	146	2	2	0	1	3	0.36692	100
610	2	1	20	"m"	"r"	5	147	13	9	0	1	3	0.28789	100
610	2	1	20	"m"	"r"	5	148	18	16	15	1	3	0.4154	100
610	2	1	20	"m"	"r"	5	149	5	4	0	2	1	0.58972	-1
610	2	1	20	"m"	"r"	5	150	13	9	0	1	3	1.7364	100
610	2	1	20	"m"	"r"	5	151	18	15	16	1	3	0.30554	100
610	2	1	20	"m"	"r"	5	152	11	8	0	2	1	0.28828	-1
610	2	1	20	"m"	"r"	5	153	7	5	0	1	3	0.32025	100
610	2	1	20	"m"	"r"	5	154	6	3	4	1	3	0.3205	100
610	2	1	20	"m"	"r"	5	155	4	3	0	2	1	0.31835	-1
610	2	1	20	"m"	"r"	5	156	9	6	5	2	1	0.32039	-1
610	2	1	20	"m"	"r"	5	157	14	10	0	1	3	0.88952	100
610	2	1	20	"m"	"r"	5	158	1	1	0	1	3	0.24212	100
610	2	1	20	"m"	"r"	5	159	8	6	0	1	3	0.33776	100
610	2	1	20	"m"	"r"	5	160	2	2	0	1	3	0.38239	100
610	2	1	20	"m"	"r"	5	161	4	3	0	2	1	0.48578	-1
610	2	1	20	"m"	"r"	5	162	16	13	0	2	1	0.98374	-1
610	2	1	20	"m"	"r"	5	163	17	14	0	2	1	0.25469	-1
610	2	1	20	"m"	"r"	5	164	5	4	0	2	1	0.31921	-1
610	2	1	20	"m"	"r"	5	165	12	7	8	1	3	0.27893	100
610	2	1	20	"m"	"r"	5	166	16	13	0	2	1	0.4781	-1
610	2	1	20	"m"	"r"	5	167	1	1	0	1	3	0.26481	100
610	2	1	20	"m"	"r"	5	168	10	7	0	2	1	0.24101	-1
610	2	1	20	"m"	"r"	5	169	15	11	12	2	1	0.25482	-1
610	2	1	20	"m"	"r"	5	170	10	7	0	2	1	0.29578	-1
610	2	1	20	"m"	"r"	5	171	8	6	0	1	3	0.27986	100
610	2	1	20	"m"	"r"	5	172	14	10	0	1	3	0.32752	100
610	2	1	20	"m"	"r"	5	173	12	8	7	1	3	0.40733	100
610	2	1	20	"m"	"r"	5	174	11	8	0	2	1	0.26458	-1
610	2	1	20	"m"	"r"	5	175	17	14	0	2	1	0.48141	-1
610	2	1	20	"m"	"r"	5	176	9	6	5	2	1	0.36018	-1
610	2	1	20	"m"	"r"	5	177	3	2	1	2	1	0.97635	-1
610	2	1	20	"m"	"r"	5	178	6	4	3	1	3	0.28732	100
610	2	1	20	"m"	"r"	5	179	3	1	2	2	1	0.43353	-1
610	2	1	20	"m"	"r"	5	180	7	5	0	1	3	0.91236	100
610	2	1	20	"m"	"r"	6	181	3	1	2	2	1	0.35959	-1
610	2	1	20	"m"	"r"	6	182	15	11	12	2	1	0.67144	-1
610	2	1	20	"m"	"r"	6	183	3	2	1	2	1	0.52066	-1
610	2	1	20	"m"	"r"	6	184	17	14	0	2	1	0.47315	-1
610	2	1	20	"m"	"r"	6	185	7	5	0	1	3	0.50483	100
610	2	1	20	"m"	"r"	6	186	10	7	0	2	1	0.69624	-1
610	2	1	20	"m"	"r"	6	187	9	6	5	2	1	0.8408	-1
610	2	1	20	"m"	"r"	6	188	5	4	0	2	1	0.58414	-1
610	2	1	20	"m"	"r"	6	189	12	8	7	1	3	0.79451	100
610	2	1	20	"m"	"r"	6	190	7	5	0	1	3	0.27223	100
610	2	1	20	"m"	"r"	6	191	18	15	16	1	3	0.39137	100
610	2	1	20	"m"	"r"	6	192	4	3	0	2	1	0.50241	-1
610	2	1	20	"m"	"r"	6	193	2	2	0	1	3	1.3613	100
610	2	1	20	"m"	"r"	6	194	16	13	0	2	1	0.47949	-1
610	2	1	20	"m"	"r"	6	195	13	9	0	1	3	0.40151	100
610	2	1	20	"m"	"r"	6	196	18	16	15	1	3	0.32127	100
610	2	1	20	"m"	"r"	6	197	16	13	0	2	1	0.63907	-1
610	2	1	20	"m"	"r"	6	198	1	1	0	1	3	0.28826	100
610	2	1	20	"m"	"r"	6	199	9	6	5	2	1	0.38244	-1
610	2	1	20	"m"	"r"	6	200	13	9	0	1	3	0.41536	100
610	2	1	20	"m"	"r"	6	201	11	8	0	2	1	0.54303	-1
610	2	1	20	"m"	"r"	6	202	6	3	4	1	3	0.52838	100
610	2	1	20	"m"	"r"	6	203	4	3	0	2	1	1.457	-1
610	2	1	20	"m"	"r"	6	204	14	10	0	1	3	0.35924	100
610	2	1	20	"m"	"r"	6	205	10	7	0	2	1	0.47259	-1
610	2	1	20	"m"	"r"	6	206	15	12	11	2	1	0.37461	-1
610	2	1	20	"m"	"r"	6	207	12	7	8	1	3	0.33424	100
610	2	1	20	"m"	"r"	6	208	14	10	0	1	3	0.34554	100
610	2	1	20	"m"	"r"	6	209	17	14	0	2	1	0.36803	-1
610	2	1	20	"m"	"r"	6	210	2	2	0	1	3	0.41486	100
610	2	1	20	"m"	"r"	6	211	6	4	3	1	3	0.69006	100
610	2	1	20	"m"	"r"	6	212	5	4	0	2	1	0.30567	-1
610	2	1	20	"m"	"r"	6	213	8	6	0	1	3	0.39287	100
610	2	1	20	"m"	"r"	6	214	11	8	0	2	1	0.27193	-1
610	2	1	20	"m"	"r"	6	215	1	1	0	1	3	1.4245	100
610	2	1	20	"m"	"r"	6	216	8	6	0	1	3	0.39954	100
612	2	1	18	"M"	"R"	1	1	7	5	0	1	2	0.77792	20
612	2	1	18	"M"	"R"	1	2	6	3	4	1	2	3.6565	20
612	2	1	18	"M"	"R"	1	3	1	1	0	1	3	0.28088	100
612	2	1	18	"M"	"R"	1	4	3	2	1	2	3	0.31184	-100
612	2	1	18	"M"	"R"	1	5	10	7	0	2	1	0.7085	-1
612	2	1	18	"M"	"R"	1	6	3	1	2	2	2	0.33838	-20
612	2	1	18	"M"	"R"	1	7	17	14	0	2	2	0.3123	-20
612	2	1	18	"M"	"R"	1	8	10	7	0	2	1	0.24123	-1
612	2	1	18	"M"	"R"	1	9	14	10	0	1	2	0.20025	20
612	2	1	18	"M"	"R"	1	10	16	13	0	2	2	0.21563	-20
612	2	1	18	"M"	"R"	1	11	7	5	0	1	2	0.30379	20
612	2	1	18	"M"	"R"	1	12	11	8	0	2	1	0.34532	-1
612	2	1	18	"M"	"R"	1	13	5	4	0	2	2	0.36848	-20
612	2	1	18	"M"	"R"	1	14	18	15	16	1	2	0.26569	20
612	2	1	18	"M"	"R"	1	15	4	3	0	2	2	0.3206	-20
612	2	1	18	"M"	"R"	1	16	13	9	0	1	1	0.23189	1
612	2	1	18	"M"	"R"	1	17	9	6	5	2	2	0.27145	-20
612	2	1	18	"M"	"R"	1	18	1	1	0	1	3	0.26424	100
612	2	1	18	"M"	"R"	1	19	14	10	0	1	1	0.4173	1
612	2	1	18	"M"	"R"	1	20	12	8	7	1	1	0.40031	1
612	2	1	18	"M"	"R"	1	21	11	8	0	2	2	0.40938	-20
612	2	1	18	"M"	"R"	1	22	16	13	0	2	1	0.24096	-1
612	2	1	18	"M"	"R"	1	23	2	2	0	1	3	0.56014	100
612	2	1	18	"M"	"R"	1	24	13	9	0	1	2	0.25592	20
612	2	1	18	"M"	"R"	1	25	17	14	0	2	1	0.23901	-1
612	2	1	18	"M"	"R"	1	26	12	7	8	1	3	0.32932	100
612	2	1	18	"M"	"R"	1	27	15	12	11	2	1	0.25651	-1
612	2	1	18	"M"	"R"	1	28	8	6	0	1	1	0.3449	1
612	2	1	18	"M"	"R"	1	29	9	6	5	2	1	0.32807	-1
612	2	1	18	"M"	"R"	1	30	4	3	0	2	2	0.1936	-20
612	2	1	18	"M"	"R"	1	31	6	4	3	1	2	0.39943	20
612	2	1	18	"M"	"R"	1	32	15	11	12	2	2	0.14474	-20
612	2	1	18	"M"	"R"	1	33	18	16	15	1	2	0.2567	20
612	2	1	18	"M"	"R"	1	34	8	6	0	1	1	0.26244	1
612	2	1	18	"M"	"R"	1	35	2	2	0	1	3	0.30425	100
612	2	1	18	"M"	"R"	1	36	5	4	0	2	1	0.21781	-1
612	2	1	18	"M"	"R"	2	37	14	10	0	1	1	0.18531	1
612	2	1	18	"M"	"R"	2	38	4	3	0	2	1	0.25616	-1
612	2	1	18	"M"	"R"	2	39	6	4	3	1	3	0.23373	100
612	2	1	18	"M"	"R"	2	40	9	6	5	2	1	0.24902	-1
612	2	1	18	"M"	"R"	2	41	12	8	7	1	3	0.23246	100
612	2	1	18	"M"	"R"	2	42	17	14	0	2	1	0.37657	-1
612	2	1	18	"M"	"R"	2	43	15	11	12	2	2	0.25666	-20
612	2	1	18	"M"	"R"	2	44	9	6	5	2	1	0.25555	-1
612	2	1	18	"M"	"R"	2	45	18	15	16	1	3	0.23401	100
612	2	1	18	"M"	"R"	2	46	15	12	11	2	1	0.21587	-1
612	2	1	18	"M"	"R"	2	47	13	9	0	1	1	0.27997	1
612	2	1	18	"M"	"R"	2	48	11	8	0	2	1	0.21668	-1
612	2	1	18	"M"	"R"	2	49	2	2	0	1	3	0.23314	100
612	2	1	18	"M"	"R"	2	50	3	2	1	2	1	0.24811	-1
612	2	1	18	"M"	"R"	2	51	17	14	0	2	1	0.22636	-1
612	2	1	18	"M"	"R"	2	52	1	1	0	1	3	0.38347	100
612	2	1	18	"M"	"R"	2	53	13	9	0	1	1	0.21563	1
612	2	1	18	"M"	"R"	2	54	11	8	0	2	1	0.30314	-1
612	2	1	18	"M"	"R"	2	55	18	16	15	1	3	0.24015	100
612	2	1	18	"M"	"R"	2	56	1	1	0	1	3	0.27136	100
612	2	1	18	"M"	"R"	2	57	7	5	0	1	2	0.32095	20
612	2	1	18	"M"	"R"	2	58	8	6	0	1	1	0.22396	1
612	2	1	18	"M"	"R"	2	59	10	7	0	2	1	0.28861	-1
612	2	1	18	"M"	"R"	2	60	14	10	0	1	3	0.33693	100
612	2	1	18	"M"	"R"	2	61	8	6	0	1	3	0.25602	100
612	2	1	18	"M"	"R"	2	62	16	13	0	2	1	0.31062	-1
612	2	1	18	"M"	"R"	2	63	3	1	2	2	1	0.24141	-1
612	2	1	18	"M"	"R"	2	64	2	2	0	1	3	0.24756	100
612	2	1	18	"M"	"R"	2	65	6	3	4	1	3	0.26378	100
612	2	1	18	"M"	"R"	2	66	12	7	8	1	3	0.22336	100
612	2	1	18	"M"	"R"	2	67	5	4	0	2	1	0.28174	-1
612	2	1	18	"M"	"R"	2	68	16	13	0	2	2	0.21691	-20
612	2	1	18	"M"	"R"	2	69	5	4	0	2	1	0.28013	-1
612	2	1	18	"M"	"R"	2	70	7	5	0	1	2	0.37604	20
612	2	1	18	"M"	"R"	2	71	4	3	0	2	1	0.23293	-1
612	2	1	18	"M"	"R"	2	72	10	7	0	2	1	0.273	-1
612	2	1	18	"M"	"R"	3	73	15	11	12	2	3	0.2654	-100
612	2	1	18	"M"	"R"	3	74	13	9	0	1	1	0.31377	1
612	2	1	18	"M"	"R"	3	75	8	6	0	1	3	0.31437	100
612	2	1	18	"M"	"R"	3	76	15	12	11	2	3	0.32797	-100
612	2	1	18	"M"	"R"	3	77	5	4	0	2	2	0.36837	-20
612	2	1	18	"M"	"R"	3	78	3	2	1	2	1	0.31269	-1
612	2	1	18	"M"	"R"	3	79	2	2	0	1	3	0.28855	100
612	2	1	18	"M"	"R"	3	80	1	1	0	1	3	0.28788	100
612	2	1	18	"M"	"R"	3	81	16	13	0	2	1	0.26374	-1
612	2	1	18	"M"	"R"	3	82	14	10	0	1	3	0.33466	100
612	2	1	18	"M"	"R"	3	83	18	16	15	1	3	0.30508	100
612	2	1	18	"M"	"R"	3	84	4	3	0	2	1	0.24804	-1
612	2	1	18	"M"	"R"	3	85	7	5	0	1	3	0.22482	100
612	2	1	18	"M"	"R"	3	86	12	8	7	1	3	0.2486	100
612	2	1	18	"M"	"R"	3	87	11	8	0	2	1	0.24851	-1
612	2	1	18	"M"	"R"	3	88	6	4	3	1	3	0.31269	100
612	2	1	18	"M"	"R"	3	89	5	4	0	2	1	0.32121	-1
612	2	1	18	"M"	"R"	3	90	4	3	0	2	1	0.288	-1
612	2	1	18	"M"	"R"	3	91	14	10	0	1	3	0.30341	100
612	2	1	18	"M"	"R"	3	92	2	2	0	1	3	0.30445	100
612	2	1	18	"M"	"R"	3	93	11	8	0	2	1	0.2886	-1
612	2	1	18	"M"	"R"	3	94	7	5	0	1	3	0.52034	100
612	2	1	18	"M"	"R"	3	95	1	1	0	1	3	0.2478	100
612	2	1	18	"M"	"R"	3	96	10	7	0	2	1	0.2734	-1
612	2	1	18	"M"	"R"	3	97	12	7	8	1	3	0.24096	100
612	2	1	18	"M"	"R"	3	98	9	6	5	2	1	0.27071	-1
612	2	1	18	"M"	"R"	3	99	3	1	2	2	1	0.27136	-1
612	2	1	18	"M"	"R"	3	100	8	6	0	1	3	0.27252	100
612	2	1	18	"M"	"R"	3	101	6	3	4	1	3	0.29778	100
612	2	1	18	"M"	"R"	3	102	17	14	0	2	2	0.25596	-20
612	2	1	18	"M"	"R"	3	103	18	15	16	1	2	0.28021	20
612	2	1	18	"M"	"R"	3	104	17	14	0	2	3	0.27379	-100
612	2	1	18	"M"	"R"	3	105	16	13	0	2	3	0.40877	-100
612	2	1	18	"M"	"R"	3	106	9	6	5	2	3	0.2394	-100
612	2	1	18	"M"	"R"	3	107	10	7	0	2	1	0.19916	-1
612	2	1	18	"M"	"R"	3	108	13	9	0	1	2	0.26389	20
612	2	1	18	"M"	"R"	4	109	15	11	12	2	3	0.37709	-100
612	2	1	18	"M"	"R"	4	110	2	2	0	1	3	0.26316	100
612	2	1	18	"M"	"R"	4	111	4	3	0	2	1	0.25572	-1
612	2	1	18	"M"	"R"	4	112	13	9	0	1	1	0.42391	1
612	2	1	18	"M"	"R"	4	113	15	12	11	2	2	0.27391	-20
612	2	1	18	"M"	"R"	4	114	16	13	0	2	2	0.37668	-20
612	2	1	18	"M"	"R"	4	115	5	4	0	2	1	0.27386	-1
612	2	1	18	"M"	"R"	4	116	1	1	0	1	3	0.29608	100
612	2	1	18	"M"	"R"	4	117	12	8	7	1	3	0.25641	100
612	2	1	18	"M"	"R"	4	118	18	16	15	1	2	0.23299	20
612	2	1	18	"M"	"R"	4	119	9	6	5	2	3	0.27265	-100
612	2	1	18	"M"	"R"	4	120	2	2	0	1	3	0.36078	100
612	2	1	18	"M"	"R"	4	121	9	6	5	2	1	0.3614	-1
612	2	1	18	"M"	"R"	4	122	8	6	0	1	3	0.33641	100
612	2	1	18	"M"	"R"	4	123	3	1	2	2	1	0.29707	-1
612	2	1	18	"M"	"R"	4	124	12	7	8	1	3	0.25565	100
612	2	1	18	"M"	"R"	4	125	14	10	0	1	3	0.37652	100
612	2	1	18	"M"	"R"	4	126	17	14	0	2	1	0.295	-1
612	2	1	18	"M"	"R"	4	127	7	5	0	1	1	0.3686	1
612	2	1	18	"M"	"R"	4	128	3	2	1	2	1	0.28041	-1
612	2	1	18	"M"	"R"	4	129	11	8	0	2	3	0.24075	-100
612	2	1	18	"M"	"R"	4	130	18	15	16	1	1	0.28188	1
612	2	1	18	"M"	"R"	4	131	6	4	3	1	3	0.28785	100
612	2	1	18	"M"	"R"	4	132	7	5	0	1	3	0.2639	100
612	2	1	18	"M"	"R"	4	133	5	4	0	2	1	0.34371	-1
612	2	1	18	"M"	"R"	4	134	6	3	4	1	3	0.28867	100
612	2	1	18	"M"	"R"	4	135	10	7	0	2	1	0.31305	-1
612	2	1	18	"M"	"R"	4	136	8	6	0	1	3	0.2806	100
612	2	1	18	"M"	"R"	4	137	16	13	0	2	1	0.39347	-1
612	2	1	18	"M"	"R"	4	138	14	10	0	1	3	0.24924	100
612	2	1	18	"M"	"R"	4	139	13	9	0	1	1	0.30395	1
612	2	1	18	"M"	"R"	4	140	4	3	0	2	1	0.28043	-1
612	2	1	18	"M"	"R"	4	141	17	14	0	2	1	0.25686	-1
612	2	1	18	"M"	"R"	4	142	1	1	0	1	3	0.266	100
612	2	1	18	"M"	"R"	4	143	11	8	0	2	1	0.33814	-1
612	2	1	18	"M"	"R"	4	144	10	7	0	2	1	0.34416	-1
612	2	1	18	"M"	"R"	5	145	11	8	0	2	1	0.25739	-1
612	2	1	18	"M"	"R"	5	146	12	8	7	1	3	0.26408	100
612	2	1	18	"M"	"R"	5	147	18	15	16	1	2	0.31318	20
612	2	1	18	"M"	"R"	5	148	4	3	0	2	1	0.39317	-1
612	2	1	18	"M"	"R"	5	149	8	6	0	1	3	0.24149	100
612	2	1	18	"M"	"R"	5	150	4	3	0	2	1	0.24881	-1
612	2	1	18	"M"	"R"	5	151	5	4	0	2	1	0.24041	-1
612	2	1	18	"M"	"R"	5	152	10	7	0	2	1	0.34484	-1
612	2	1	18	"M"	"R"	5	153	12	7	8	1	3	0.29534	100
612	2	1	18	"M"	"R"	5	154	9	6	5	2	3	0.46573	-100
612	2	1	18	"M"	"R"	5	155	1	1	0	1	3	1.0964	100
612	2	1	18	"M"	"R"	5	156	5	4	0	2	1	0.37657	-1
612	2	1	18	"M"	"R"	5	157	17	14	0	2	1	0.32	-1
612	2	1	18	"M"	"R"	5	158	3	1	2	2	1	0.35243	-1
612	2	1	18	"M"	"R"	5	159	8	6	0	1	3	0.3115	100
612	2	1	18	"M"	"R"	5	160	17	14	0	2	1	0.56898	-1
612	2	1	18	"M"	"R"	5	161	15	12	11	2	1	0.24175	-1
612	2	1	18	"M"	"R"	5	162	18	16	15	1	3	0.29444	100
612	2	1	18	"M"	"R"	5	163	2	2	0	1	3	0.24805	100
612	2	1	18	"M"	"R"	5	164	7	5	0	1	3	0.2886	100
612	2	1	18	"M"	"R"	5	165	9	6	5	2	1	0.61564	-1
612	2	1	18	"M"	"R"	5	166	13	9	0	1	1	0.25662	1
612	2	1	18	"M"	"R"	5	167	6	3	4	1	3	0.321	100
612	2	1	18	"M"	"R"	5	168	15	11	12	2	1	0.31277	-1
612	2	1	18	"M"	"R"	5	169	14	10	0	1	3	0.3128	100
612	2	1	18	"M"	"R"	5	170	16	13	0	2	1	0.28031	-1
612	2	1	18	"M"	"R"	5	171	11	8	0	2	3	0.41619	-100
612	2	1	18	"M"	"R"	5	172	7	5	0	1	3	0.3538	100
612	2	1	18	"M"	"R"	5	173	6	4	3	1	3	0.27239	100
612	2	1	18	"M"	"R"	5	174	10	7	0	2	1	0.26336	-1
612	2	1	18	"M"	"R"	5	175	14	10	0	1	3	0.21499	100
612	2	1	18	"M"	"R"	5	176	13	9	0	1	1	0.32711	1
612	2	1	18	"M"	"R"	5	177	2	2	0	1	3	0.62488	100
612	2	1	18	"M"	"R"	5	178	16	13	0	2	1	0.24144	-1
612	2	1	18	"M"	"R"	5	179	1	1	0	1	3	0.27996	100
612	2	1	18	"M"	"R"	5	180	3	2	1	2	1	0.28898	-1
612	2	1	18	"M"	"R"	6	181	16	13	0	2	1	0.41527	-1
612	2	1	18	"M"	"R"	6	182	17	14	0	2	1	0.27222	-1
612	2	1	18	"M"	"R"	6	183	4	3	0	2	1	0.33618	-1
612	2	1	18	"M"	"R"	6	184	1	1	0	1	3	0.39321	100
612	2	1	18	"M"	"R"	6	185	8	6	0	1	3	0.41544	100
612	2	1	18	"M"	"R"	6	186	12	8	7	1	3	0.27359	100
612	2	1	18	"M"	"R"	6	187	15	11	12	2	2	0.37032	-20
612	2	1	18	"M"	"R"	6	188	6	3	4	1	3	0.21633	100
612	2	1	18	"M"	"R"	6	189	17	14	0	2	1	0.36735	-1
612	2	1	18	"M"	"R"	6	190	1	1	0	1	3	0.67755	100
612	2	1	18	"M"	"R"	6	191	5	4	0	2	1	0.37765	-1
612	2	1	18	"M"	"R"	6	192	13	9	0	1	3	0.38437	100
612	2	1	18	"M"	"R"	6	193	4	3	0	2	1	0.30335	-1
612	2	1	18	"M"	"R"	6	194	9	6	5	2	2	0.62405	-20
612	2	1	18	"M"	"R"	6	195	10	7	0	2	1	0.6164	-1
612	2	1	18	"M"	"R"	6	196	16	13	0	2	3	0.26464	-100
612	2	1	18	"M"	"R"	6	197	5	4	0	2	1	0.409	-1
612	2	1	18	"M"	"R"	6	198	9	6	5	2	3	0.34483	-100
612	2	1	18	"M"	"R"	6	199	15	12	11	2	1	0.27418	-1
612	2	1	18	"M"	"R"	6	200	18	15	16	1	3	0.30462	100
612	2	1	18	"M"	"R"	6	201	12	7	8	1	3	0.29699	100
612	2	1	18	"M"	"R"	6	202	2	2	0	1	3	0.28107	100
612	2	1	18	"M"	"R"	6	203	11	8	0	2	1	0.2317	-1
612	2	1	18	"M"	"R"	6	204	13	9	0	1	2	0.11362	20
612	2	1	18	"M"	"R"	6	205	11	8	0	2	1	0.35137	-1
612	2	1	18	"M"	"R"	6	206	3	2	1	2	1	0.34471	-1
612	2	1	18	"M"	"R"	6	207	7	5	0	1	2	0.24925	20
612	2	1	18	"M"	"R"	6	208	6	4	3	1	3	0.37581	100
612	2	1	18	"M"	"R"	6	209	10	7	0	2	1	0.34583	-1
612	2	1	18	"M"	"R"	6	210	2	2	0	1	3	0.48907	100
612	2	1	18	"M"	"R"	6	211	18	16	15	1	2	0.37638	20
612	2	1	18	"M"	"R"	6	212	3	1	2	2	1	0.28852	-1
612	2	1	18	"M"	"R"	6	213	14	10	0	1	3	0.26358	100
612	2	1	18	"M"	"R"	6	214	8	6	0	1	3	0.37454	100
612	2	1	18	"M"	"R"	6	215	14	10	0	1	3	0.4649	100
612	2	1	18	"M"	"R"	6	216	7	5	0	1	3	0.36858	100
613	3	2	21	"M"	"R"	1	1	12	7	8	1	1	0.86207	1
613	3	2	21	"M"	"R"	1	2	10	7	0	2	2	0.45696	-20
613	3	2	21	"M"	"R"	1	3	13	9	0	1	3	0.59888	100
613	3	2	21	"M"	"R"	1	4	18	15	16	1	2	0.41763	20
613	3	2	21	"M"	"R"	1	5	2	2	0	1	1	0.42401	1
613	3	2	21	"M"	"R"	1	6	15	11	12	2	2	0.3844	-20
613	3	2	21	"M"	"R"	1	7	3	2	1	2	2	0.41692	-20
613	3	2	21	"M"	"R"	1	8	9	6	5	2	2	2.7386	-20
613	3	2	21	"M"	"R"	1	9	16	13	0	2	3	0.70506	-100
613	3	2	21	"M"	"R"	1	10	5	4	0	2	2	0.4555	-20
613	3	2	21	"M"	"R"	1	11	18	16	15	1	2	0.52906	20
613	3	2	21	"M"	"R"	1	12	17	14	0	2	3	0.72839	-100
613	3	2	21	"M"	"R"	1	13	8	6	0	1	2	0.62401	20
613	3	2	21	"M"	"R"	1	14	10	7	0	2	3	0.55293	-100
613	3	2	21	"M"	"R"	1	15	5	4	0	2	2	0.31057	-20
613	3	2	21	"M"	"R"	1	16	6	3	4	1	2	0.46539	20
613	3	2	21	"M"	"R"	1	17	7	5	0	1	1	0.36932	1
613	3	2	21	"M"	"R"	1	18	14	10	0	1	3	0.52856	100
613	3	2	21	"M"	"R"	1	19	15	12	11	2	3	0.59224	-100
613	3	2	21	"M"	"R"	1	20	7	5	0	1	1	0.36218	1
613	3	2	21	"M"	"R"	1	21	14	10	0	1	2	0.40032	20
613	3	2	21	"M"	"R"	1	22	4	3	0	2	1	0.47156	-1
613	3	2	21	"M"	"R"	1	23	13	9	0	1	2	0.48078	20
613	3	2	21	"M"	"R"	1	24	1	1	0	1	2	0.42494	20
613	3	2	21	"M"	"R"	1	25	2	2	0	1	1	0.30297	1
613	3	2	21	"M"	"R"	1	26	6	4	3	1	1	0.35297	1
613	3	2	21	"M"	"R"	1	27	4	3	0	2	2	1.128	-20
613	3	2	21	"M"	"R"	1	28	16	13	0	2	1	0.40075	-1
613	3	2	21	"M"	"R"	1	29	8	6	0	1	2	0.67253	20
613	3	2	21	"M"	"R"	1	30	9	6	5	2	2	0.40956	-20
613	3	2	21	"M"	"R"	1	31	1	1	0	1	2	0.49701	20
613	3	2	21	"M"	"R"	1	32	11	8	0	2	2	0.50488	-20
613	3	2	21	"M"	"R"	1	33	12	8	7	1	3	0.35373	100
613	3	2	21	"M"	"R"	1	34	11	8	0	2	1	1.5927	-1
613	3	2	21	"M"	"R"	1	35	17	14	0	2	3	1.2245	-100
613	3	2	21	"M"	"R"	1	36	3	1	2	2	2	0.47335	-20
613	3	2	21	"M"	"R"	2	37	12	8	7	1	3	0.52121	100
613	3	2	21	"M"	"R"	2	38	9	6	5	2	1	0.28901	-1
613	3	2	21	"M"	"R"	2	39	11	8	0	2	3	0.40923	-100
613	3	2	21	"M"	"R"	2	40	1	1	0	1	2	0.5444	20
613	3	2	21	"M"	"R"	2	41	5	4	0	2	1	0.46556	-1
613	3	2	21	"M"	"R"	2	42	12	7	8	1	3	0.34419	100
613	3	2	21	"M"	"R"	2	43	7	5	0	1	1	0.38401	1
613	3	2	21	"M"	"R"	2	44	10	7	0	2	3	0.76146	-100
613	3	2	21	"M"	"R"	2	45	11	8	0	2	1	0.54501	-1
613	3	2	21	"M"	"R"	2	46	8	6	0	1	2	0.40871	20
613	3	2	21	"M"	"R"	2	47	17	14	0	2	2	0.38464	-20
613	3	2	21	"M"	"R"	2	48	16	13	0	2	2	0.7138	-20
613	3	2	21	"M"	"R"	2	49	3	2	1	2	2	0.48727	-20
613	3	2	21	"M"	"R"	2	50	9	6	5	2	3	0.90384	-100
613	3	2	21	"M"	"R"	2	51	15	11	12	2	1	0.46405	-1
613	3	2	21	"M"	"R"	2	52	8	6	0	1	2	0.4326	20
613	3	2	21	"M"	"R"	2	53	4	3	0	2	1	0.48087	-1
613	3	2	21	"M"	"R"	2	54	16	13	0	2	2	0.37501	-20
613	3	2	21	"M"	"R"	2	55	17	14	0	2	3	0.28706	-100
613	3	2	21	"M"	"R"	2	56	4	3	0	2	2	0.41597	-20
613	3	2	21	"M"	"R"	2	57	6	3	4	1	1	0.68832	1
613	3	2	21	"M"	"R"	2	58	18	16	15	1	2	0.44048	20
613	3	2	21	"M"	"R"	2	59	6	4	3	1	2	0.57703	20
613	3	2	21	"M"	"R"	2	60	3	1	2	2	2	0.48518	-20
613	3	2	21	"M"	"R"	2	61	1	1	0	1	2	0.46397	20
613	3	2	21	"M"	"R"	2	62	2	2	0	1	1	0.42577	1
613	3	2	21	"M"	"R"	2	63	10	7	0	2	2	0.38372	-20
613	3	2	21	"M"	"R"	2	64	2	2	0	1	1	0.59128	1
613	3	2	21	"M"	"R"	2	65	14	10	0	1	2	0.33666	20
613	3	2	21	"M"	"R"	2	66	5	4	0	2	3	0.44196	-100
613	3	2	21	"M"	"R"	2	67	13	9	0	1	2	0.42366	20
613	3	2	21	"M"	"R"	2	68	15	12	11	2	1	0.4333	-1
613	3	2	21	"M"	"R"	2	69	7	5	0	1	1	0.32139	1
613	3	2	21	"M"	"R"	2	70	13	9	0	1	2	0.73687	20
613	3	2	21	"M"	"R"	2	71	18	15	16	1	2	0.39987	20
613	3	2	21	"M"	"R"	2	72	14	10	0	1	2	0.52965	20
613	3	2	21	"M"	"R"	3	73	7	5	0	1	1	0.40999	1
613	3	2	21	"M"	"R"	3	74	14	10	0	1	2	0.31335	20
613	3	2	21	"M"	"R"	3	75	6	3	4	1	2	0.37759	20
613	3	2	21	"M"	"R"	3	76	9	6	5	2	2	0.44053	-20
613	3	2	21	"M"	"R"	3	77	18	16	15	1	2	0.31943	20
613	3	2	21	"M"	"R"	3	78	14	10	0	1	2	0.55283	20
613	3	2	21	"M"	"R"	3	79	10	7	0	2	1	0.46465	-1
613	3	2	21	"M"	"R"	3	80	2	2	0	1	1	0.48014	1
613	3	2	21	"M"	"R"	3	81	5	4	0	2	1	0.46447	-1
613	3	2	21	"M"	"R"	3	82	8	6	0	1	2	0.60971	20
613	3	2	21	"M"	"R"	3	83	1	1	0	1	1	0.31169	1
613	3	2	21	"M"	"R"	3	84	16	13	0	2	1	0.3527	-1
613	3	2	21	"M"	"R"	3	85	9	6	5	2	2	0.48758	-20
613	3	2	21	"M"	"R"	3	86	4	3	0	2	3	0.39988	-100
613	3	2	21	"M"	"R"	3	87	3	1	2	2	1	0.44142	-1
613	3	2	21	"M"	"R"	3	88	15	11	12	2	1	0.48923	-1
613	3	2	21	"M"	"R"	3	89	8	6	0	1	2	0.4249	20
613	3	2	21	"M"	"R"	3	90	15	12	11	2	2	0.39947	-20
613	3	2	21	"M"	"R"	3	91	13	9	0	1	2	0.56843	20
613	3	2	21	"M"	"R"	3	92	10	7	0	2	3	0.57695	-100
613	3	2	21	"M"	"R"	3	93	16	13	0	2	1	0.46249	-1
613	3	2	21	"M"	"R"	3	94	6	4	3	1	2	0.51301	20
613	3	2	21	"M"	"R"	3	95	13	9	0	1	2	0.31165	20
613	3	2	21	"M"	"R"	3	96	7	5	0	1	1	0.44671	1
613	3	2	21	"M"	"R"	3	97	2	2	0	1	1	0.30307	1
613	3	2	21	"M"	"R"	3	98	12	7	8	1	3	0.44859	100
613	3	2	21	"M"	"R"	3	99	11	8	0	2	3	0.441	-100
613	3	2	21	"M"	"R"	3	100	17	14	0	2	2	0.39298	-20
613	3	2	21	"M"	"R"	3	101	3	2	1	2	1	0.50499	-1
613	3	2	21	"M"	"R"	3	102	12	8	7	1	3	0.54411	100
613	3	2	21	"M"	"R"	3	103	1	1	0	1	1	0.34407	1
613	3	2	21	"M"	"R"	3	104	11	8	0	2	1	0.68876	-1
613	3	2	21	"M"	"R"	3	105	18	15	16	1	2	0.36801	20
613	3	2	21	"M"	"R"	3	106	17	14	0	2	1	0.39385	-1
613	3	2	21	"M"	"R"	3	107	5	4	0	2	1	0.5192	-1
613	3	2	21	"M"	"R"	3	108	4	3	0	2	2	0.45692	-20
613	3	2	21	"M"	"R"	4	109	10	7	0	2	2	0.39957	-20
613	3	2	21	"M"	"R"	4	110	13	9	0	1	2	0.32823	20
613	3	2	21	"M"	"R"	4	111	9	6	5	2	1	0.38393	-1
613	3	2	21	"M"	"R"	4	112	4	3	0	2	1	0.2972	-1
613	3	2	21	"M"	"R"	4	113	7	5	0	1	1	0.36821	1
613	3	2	21	"M"	"R"	4	114	12	7	8	1	3	0.40863	100
613	3	2	21	"M"	"R"	4	115	15	11	12	2	2	0.33756	-20
613	3	2	21	"M"	"R"	4	116	2	2	0	1	1	0.401	1
613	3	2	21	"M"	"R"	4	117	11	8	0	2	1	0.46526	-1
613	3	2	21	"M"	"R"	4	118	2	2	0	1	1	0.46575	1
613	3	2	21	"M"	"R"	4	119	6	4	3	1	1	0.46583	1
613	3	2	21	"M"	"R"	4	120	8	6	0	1	1	0.85715	1
613	3	2	21	"M"	"R"	4	121	3	2	1	2	1	0.43185	-1
613	3	2	21	"M"	"R"	4	122	1	1	0	1	2	0.59428	20
613	3	2	21	"M"	"R"	4	123	11	8	0	2	1	1.297	-1
613	3	2	21	"M"	"R"	4	124	8	6	0	1	1	0.3998	1
613	3	2	21	"M"	"R"	4	125	4	3	0	2	2	0.37709	-20
613	3	2	21	"M"	"R"	4	126	18	16	15	1	2	0.3119	20
613	3	2	21	"M"	"R"	4	127	17	14	0	2	1	0.63257	-1
613	3	2	21	"M"	"R"	4	128	3	1	2	2	1	0.5527	-1
613	3	2	21	"M"	"R"	4	129	13	9	0	1	2	0.4099	20
613	3	2	21	"M"	"R"	4	130	15	12	11	2	2	0.44061	-20
613	3	2	21	"M"	"R"	4	131	1	1	0	1	2	0.32882	20
613	3	2	21	"M"	"R"	4	132	17	14	0	2	2	0.34561	-20
613	3	2	21	"M"	"R"	4	133	14	10	0	1	1	0.37507	1
613	3	2	21	"M"	"R"	4	134	7	5	0	1	1	0.43314	1
613	3	2	21	"M"	"R"	4	135	16	13	0	2	2	0.27975	-20
613	3	2	21	"M"	"R"	4	136	18	15	16	1	2	0.36124	20
613	3	2	21	"M"	"R"	4	137	9	6	5	2	1	0.42461	-1
613	3	2	21	"M"	"R"	4	138	10	7	0	2	2	0.25683	-20
613	3	2	21	"M"	"R"	4	139	6	3	4	1	2	0.56813	20
613	3	2	21	"M"	"R"	4	140	5	4	0	2	1	0.40908	-1
613	3	2	21	"M"	"R"	4	141	16	13	0	2	2	0.6084	-20
613	3	2	21	"M"	"R"	4	142	5	4	0	2	1	0.44708	-1
613	3	2	21	"M"	"R"	4	143	14	10	0	1	1	0.41754	1
613	3	2	21	"M"	"R"	4	144	12	8	7	1	3	0.3532	100
613	3	2	21	"M"	"R"	5	145	10	7	0	2	1	0.42335	-1
613	3	2	21	"M"	"R"	5	146	5	4	0	2	1	0.32152	-1
613	3	2	21	"M"	"R"	5	147	1	1	0	1	1	0.66556	1
613	3	2	21	"M"	"R"	5	148	7	5	0	1	1	1.2646	1
613	3	2	21	"M"	"R"	5	149	10	7	0	2	1	0.68111	-1
613	3	2	21	"M"	"R"	5	150	14	10	0	1	1	0.38544	1
613	3	2	21	"M"	"R"	5	151	8	6	0	1	1	0.34432	1
613	3	2	21	"M"	"R"	5	152	4	3	0	2	1	0.36025	-1
613	3	2	21	"M"	"R"	5	153	6	4	3	1	2	0.45692	20
613	3	2	21	"M"	"R"	5	154	15	11	12	2	1	0.3832	-1
613	3	2	21	"M"	"R"	5	155	11	8	0	2	1	0.35313	-1
613	3	2	21	"M"	"R"	5	156	2	2	0	1	1	0.30493	1
613	3	2	21	"M"	"R"	5	157	16	13	0	2	1	0.36097	-1
613	3	2	21	"M"	"R"	5	158	9	6	5	2	1	0.3835	-1
613	3	2	21	"M"	"R"	5	159	8	6	0	1	1	0.49738	1
613	3	2	21	"M"	"R"	5	160	2	2	0	1	2	0.37527	20
613	3	2	21	"M"	"R"	5	161	4	3	0	2	2	0.29616	-20
613	3	2	21	"M"	"R"	5	162	3	2	1	2	2	0.34531	-20
613	3	2	21	"M"	"R"	5	163	18	16	15	1	2	1.0066	20
613	3	2	21	"M"	"R"	5	164	7	5	0	1	1	0.36759	1
613	3	2	21	"M"	"R"	5	165	17	14	0	2	1	0.3356	-1
613	3	2	21	"M"	"R"	5	166	12	7	8	1	3	0.32035	100
613	3	2	21	"M"	"R"	5	167	9	6	5	2	1	0.38507	-1
613	3	2	21	"M"	"R"	5	168	15	12	11	2	2	0.4638	-20
613	3	2	21	"M"	"R"	5	169	13	9	0	1	2	0.34543	20
613	3	2	21	"M"	"R"	5	170	14	10	0	1	1	0.44038	1
613	3	2	21	"M"	"R"	5	171	18	15	16	1	2	0.33502	20
613	3	2	21	"M"	"R"	5	172	3	1	2	2	1	0.4713	-1
613	3	2	21	"M"	"R"	5	173	1	1	0	1	1	0.49536	1
613	3	2	21	"M"	"R"	5	174	6	3	4	1	2	0.47996	20
613	3	2	21	"M"	"R"	5	175	13	9	0	1	2	0.44103	20
613	3	2	21	"M"	"R"	5	176	16	13	0	2	1	0.40189	-1
613	3	2	21	"M"	"R"	5	177	12	8	7	1	3	0.45595	100
613	3	2	21	"M"	"R"	5	178	5	4	0	2	2	0.40874	-20
613	3	2	21	"M"	"R"	5	179	17	14	0	2	1	0.44029	-1
613	3	2	21	"M"	"R"	5	180	11	8	0	2	2	0.32853	-20
613	3	2	21	"M"	"R"	6	181	17	14	0	2	3	0.42467	-100
613	3	2	21	"M"	"R"	6	182	16	13	0	2	1	0.49569	-1
613	3	2	21	"M"	"R"	6	183	3	1	2	2	1	0.57688	-1
613	3	2	21	"M"	"R"	6	184	11	8	0	2	1	0.31348	-1
613	3	2	21	"M"	"R"	6	185	8	6	0	1	1	0.4878	1
613	3	2	21	"M"	"R"	6	186	10	7	0	2	2	0.32872	-20
613	3	2	21	"M"	"R"	6	187	1	1	0	1	1	0.32849	1
613	3	2	21	"M"	"R"	6	188	3	2	1	2	2	0.72824	-20
613	3	2	21	"M"	"R"	6	189	12	8	7	1	3	0.26397	100
613	3	2	21	"M"	"R"	6	190	9	6	5	2	1	0.68822	-1
613	3	2	21	"M"	"R"	6	191	7	5	0	1	1	0.35213	1
613	3	2	21	"M"	"R"	6	192	13	9	0	1	2	0.32217	20
613	3	2	21	"M"	"R"	6	193	1	1	0	1	1	0.39305	1
613	3	2	21	"M"	"R"	6	194	8	6	0	1	1	0.39252	1
613	3	2	21	"M"	"R"	6	195	14	10	0	1	1	0.44854	1
613	3	2	21	"M"	"R"	6	196	18	15	16	1	2	0.29523	20
613	3	2	21	"M"	"R"	6	197	16	13	0	2	1	0.3208	-1
613	3	2	21	"M"	"R"	6	198	17	14	0	2	1	0.45718	-1
613	3	2	21	"M"	"R"	6	199	9	6	5	2	2	0.44171	-20
613	3	2	21	"M"	"R"	6	200	5	4	0	2	1	0.69011	-1
