"subj"	"group"	"cb"	"age"	"gender"	"hand"	"trial"	"trialtype"	"pos"	"resp"	"rt"	"acc"
601	2	2	21	"m"	"r"	1	0	3	3	0.4371	1
601	2	2	21	"m"	"r"	2	1	1	1	0.60725	1
601	2	2	21	"m"	"r"	3	2	2	2	0.55292	1
601	2	2	21	"m"	"r"	4	3	3	3	0.55289	1
601	2	2	21	"m"	"r"	5	1	1	1	0.39989	1
601	2	2	21	"m"	"r"	6	2	2	2	0.43536	1
601	2	2	21	"m"	"r"	7	33	1	3	0.67053	0
601	2	2	21	"m"	"r"	8	2	2	2	0.44709	1
601	2	2	21	"m"	"r"	9	3	3	3	0.44785	1
601	2	2	21	"m"	"r"	10	11	2	2	0.52943	1
601	2	2	21	"m"	"r"	11	3	3	3	2.3217	1
601	2	2	21	"m"	"r"	12	1	1	1	2.6407	1
601	2	2	21	"m"	"r"	13	22	3	3	0.4485	1
601	2	2	21	"m"	"r"	14	11	2	2	0.61178	1
601	2	2	21	"m"	"r"	15	33	1	1	1.2704	1
601	2	2	21	"m"	"r"	16	2	2	2	0.50379	1
601	2	2	21	"m"	"r"	17	3	3	3	0.43929	1
601	2	2	21	"m"	"r"	18	1	1	1	0.34397	1
601	2	2	21	"m"	"r"	19	2	2	2	0.96177	1
601	2	2	21	"m"	"r"	20	3	3	3	0.5594	1
601	2	2	21	"m"	"r"	21	1	1	1	0.35305	1
601	2	2	21	"m"	"r"	22	22	3	2	0.64704	0
601	2	2	21	"m"	"r"	23	1	1	1	0.57665	1
601	2	2	21	"m"	"r"	24	2	2	2	0.3647	1
601	2	2	21	"m"	"r"	25	3	3	3	0.38815	1
601	2	2	21	"m"	"r"	26	1	1	1	0.36459	1
601	2	2	21	"m"	"r"	27	2	2	2	0.44769	1
601	2	2	21	"m"	"r"	28	33	1	1	0.51772	1
601	2	2	21	"m"	"r"	29	2	2	2	0.73528	1
601	2	2	21	"m"	"r"	30	3	3	3	0.43071	1
601	2	2	21	"m"	"r"	31	1	1	1	0.39165	1
601	2	2	21	"m"	"r"	32	2	2	2	0.52794	1
601	2	2	21	"m"	"r"	33	3	3	3	0.54575	1
601	2	2	21	"m"	"r"	34	11	2	2	0.49404	1
601	2	2	21	"m"	"r"	35	3	3	3	0.75266	1
601	2	2	21	"m"	"r"	36	1	1	1	0.54145	1
601	2	2	21	"m"	"r"	37	22	3	3	0.59368	1
601	2	2	21	"m"	"r"	38	1	1	1	0.45479	1
601	2	2	21	"m"	"r"	39	2	2	2	0.30532	1
601	2	2	21	"m"	"r"	40	33	1	1	0.96654	1
601	2	2	21	"m"	"r"	41	22	3	3	0.48229	1
601	2	2	21	"m"	"r"	42	1	1	1	0.42344	1
601	2	2	21	"m"	"r"	43	2	2	2	0.44524	1
601	2	2	21	"m"	"r"	44	3	3	3	0.51335	1
601	2	2	21	"m"	"r"	45	11	2	2	0.57515	1
601	2	2	21	"m"	"r"	46	3	3	3	0.90494	1
601	2	2	21	"m"	"r"	47	1	1	1	0.57047	1
601	2	2	21	"m"	"r"	48	2	2	2	0.38828	1
601	2	2	21	"m"	"r"	49	3	3	3	0.5175	1
601	2	2	21	"m"	"r"	50	1	1	1	0.58827	1
601	2	2	21	"m"	"r"	51	22	3	3	0.4942	1
601	2	2	21	"m"	"r"	52	1	1	1	0.40003	1
601	2	2	21	"m"	"r"	53	2	2	2	0.82067	1
601	2	2	21	"m"	"r"	54	3	3	3	0.45603	1
601	2	2	21	"m"	"r"	55	1	1	1	0.29615	1
601	2	2	21	"m"	"r"	56	2	2	2	0.44754	1
601	2	2	21	"m"	"r"	57	3	3	3	0.46435	1
601	2	2	21	"m"	"r"	58	11	2	2	1.9613	1
601	2	2	21	"m"	"r"	59	33	1	1	0.59028	1
601	2	2	21	"m"	"r"	60	2	2	2	0.6329	1
601	2	2	21	"m"	"r"	61	3	3	3	0.34937	1
601	2	2	21	"m"	"r"	62	1	1	1	1.1124	1
601	2	2	21	"m"	"r"	63	2	2	2	0.47899	1
601	2	2	21	"m"	"r"	64	33	1	1	0.66345	1
601	2	2	21	"m"	"r"	65	2	2	2	0.63014	1
601	2	2	21	"m"	"r"	66	3	3	3	3.7709	1
601	2	2	21	"m"	"r"	67	1	1	1	3.2463	1
601	2	2	21	"m"	"r"	68	2	2	2	3.5946	1
601	2	2	21	"m"	"r"	69	3	3	3	0.93729	1
601	2	2	21	"m"	"r"	70	1	1	1	0.99923	1
601	2	2	21	"m"	"r"	71	22	3	3	2.6321	1
601	2	2	21	"m"	"r"	72	11	2	2	0.53731	1
601	2	2	21	"m"	"r"	73	3	3	3	0.58341	1
601	2	2	21	"m"	"r"	74	1	1	1	0.45	1
601	2	2	21	"m"	"r"	75	2	2	2	0.65608	1
601	2	2	21	"m"	"r"	76	33	1	1	2.1112	1
601	2	2	21	"m"	"r"	77	22	3	3	0.39909	1
601	2	2	21	"m"	"r"	78	1	1	1	0.44993	1
601	2	2	21	"m"	"r"	79	2	2	2	0.35108	1
601	2	2	21	"m"	"r"	80	3	3	3	1.3128	1
601	2	2	21	"m"	"r"	81	1	1	1	0.43985	1
601	2	2	21	"m"	"r"	82	2	2	2	0.40866	1
601	2	2	21	"m"	"r"	83	3	3	3	0.68843	1
601	2	2	21	"m"	"r"	84	11	2	2	3.0322	1
601	2	2	21	"m"	"r"	85	3	3	3	0.34975	1
601	2	2	21	"m"	"r"	86	1	1	1	0.60875	1
601	2	2	21	"m"	"r"	87	22	3	3	1.6001	1
601	2	2	21	"m"	"r"	88	1	1	1	0.89596	1
601	2	2	21	"m"	"r"	89	2	2	2	0.42353	1
601	2	2	21	"m"	"r"	90	3	3	3	0.66782	1
601	2	2	21	"m"	"r"	91	11	2	2	2.9007	1
601	2	2	21	"m"	"r"	92	3	3	3	0.62515	1
601	2	2	21	"m"	"r"	93	1	1	1	0.35859	1
601	2	2	21	"m"	"r"	94	2	2	2	0.45637	1
601	2	2	21	"m"	"r"	95	33	1	1	0.87202	1
601	2	2	21	"m"	"r"	96	2	2	2	1.2089	1
601	2	2	21	"m"	"r"	97	3	3	3	0.57516	1
601	2	2	21	"m"	"r"	98	11	2	2	1.2014	1
601	2	2	21	"m"	"r"	99	33	1	1	0.59193	1
601	2	2	21	"m"	"r"	100	2	2	2	4.2063	1
601	2	2	21	"m"	"r"	101	3	3	3	0.4258	1
601	2	2	21	"m"	"r"	102	1	1	1	0.28782	1
601	2	2	21	"m"	"r"	103	2	2	2	0.43901	1
601	2	2	21	"m"	"r"	104	3	3	3	1.4482	1
601	2	2	21	"m"	"r"	105	1	1	1	0.48888	1
601	2	2	21	"m"	"r"	106	2	2	2	0.46436	1
601	2	2	21	"m"	"r"	107	3	3	3	0.40064	1
601	2	2	21	"m"	"r"	108	1	1	1	0.45689	1
601	2	2	21	"m"	"r"	109	22	3	3	1.1531	1
601	2	2	21	"m"	"r"	110	1	1	1	0.54326	1
601	2	2	21	"m"	"r"	111	22	3	3	0.4564	1
601	2	2	21	"m"	"r"	112	1	1	1	0.51292	1
601	2	2	21	"m"	"r"	113	2	2	2	0.52874	1
601	2	2	21	"m"	"r"	114	33	1	1	2.2321	1
601	2	2	21	"m"	"r"	115	2	2	2	0.50549	1
601	2	2	21	"m"	"r"	116	3	3	3	0.37354	1
601	2	2	21	"m"	"r"	117	1	1	1	0.55999	1
601	2	2	21	"m"	"r"	118	2	2	2	1.6164	1
601	2	2	21	"m"	"r"	119	3	3	3	0.35173	1
601	2	2	21	"m"	"r"	120	11	2	2	0.45529	1
601	2	2	21	"m"	"r"	121	3	3	3	0.48136	1
601	2	2	21	"m"	"r"	122	11	2	2	0.60767	1
601	2	2	21	"m"	"r"	123	33	1	1	0.73637	1
601	2	2	21	"m"	"r"	124	2	2	2	0.43532	1
601	2	2	21	"m"	"r"	125	3	3	3	0.38823	1
601	2	2	21	"m"	"r"	126	1	1	1	0.51755	1
601	2	2	21	"m"	"r"	127	2	2	2	0.75776	1
601	2	2	21	"m"	"r"	128	3	3	3	0.36738	1
601	2	2	21	"m"	"r"	129	1	1	1	0.56043	1
601	2	2	21	"m"	"r"	130	2	2	2	0.31985	1
601	2	2	21	"m"	"r"	131	3	3	3	0.46163	1
601	2	2	21	"m"	"r"	132	1	1	1	2.0577	1
601	2	2	21	"m"	"r"	133	22	3	2	0.6236	0
601	2	2	21	"m"	"r"	134	1	1	1	2.9327	1
601	2	2	21	"m"	"r"	135	2	2	2	0.3273	1
601	2	2	21	"m"	"r"	136	3	3	3	0.51302	1
601	2	2	21	"m"	"r"	137	11	2	2	0.37271	1
601	2	2	21	"m"	"r"	138	33	1	1	0.57893	1
601	2	2	21	"m"	"r"	139	22	3	3	1.1673	1
601	2	2	21	"m"	"r"	140	1	1	1	0.56823	1
601	2	2	21	"m"	"r"	141	2	2	2	0.37666	1
601	2	2	21	"m"	"r"	142	3	3	3	0.62182	1
601	2	2	21	"m"	"r"	143	1	1	1	1.7272	1
601	2	2	21	"m"	"r"	144	2	2	2	0.50466	1
601	2	2	21	"m"	"r"	145	3	3	3	0.51292	1
601	2	2	21	"m"	"r"	146	1	1	1	0.39154	1
601	2	2	21	"m"	"r"	147	22	3	3	1.1195	1
601	2	2	21	"m"	"r"	148	1	1	1	1.4562	1
601	2	2	21	"m"	"r"	149	2	2	2	0.6425	1
601	2	2	21	"m"	"r"	150	3	3	3	0.33492	1
601	2	2	21	"m"	"r"	151	11	2	2	3.119	1
601	2	2	21	"m"	"r"	152	33	1	1	0.81637	1
601	2	2	21	"m"	"r"	153	2	2	2	0.60871	1
601	2	2	21	"m"	"r"	154	3	3	3	0.36819	1
601	2	2	21	"m"	"r"	155	1	1	1	0.76822	1
601	2	2	21	"m"	"r"	156	2	2	2	2.1106	1
601	2	2	21	"m"	"r"	157	3	3	3	0.43328	1
601	2	2	21	"m"	"r"	158	1	1	1	0.48792	1
601	2	2	21	"m"	"r"	159	22	3	3	0.46415	1
601	2	2	21	"m"	"r"	160	1	1	1	0.69726	1
601	2	2	21	"m"	"r"	161	2	2	2	1.0442	1
601	2	2	21	"m"	"r"	162	33	1	1	1.0016	1
601	2	2	21	"m"	"r"	163	2	2	2	0.49625	1
601	2	2	21	"m"	"r"	164	3	3	3	0.47087	1
601	2	2	21	"m"	"r"	165	11	2	2	0.56933	1
601	2	2	21	"m"	"r"	166	3	3	2	3.4558	0
601	2	2	21	"m"	"r"	167	1	1	1	0.75808	1
601	2	2	21	"m"	"r"	168	2	2	2	0.63199	1
601	2	2	21	"m"	"r"	169	3	3	3	0.34513	1
601	2	2	21	"m"	"r"	170	1	1	1	0.63149	1
601	2	2	21	"m"	"r"	171	2	2	2	1.1595	1
601	2	2	21	"m"	"r"	172	3	3	3	0.76599	1
601	2	2	21	"m"	"r"	173	11	2	2	0.76115	1
601	2	2	21	"m"	"r"	174	3	3	3	0.62342	1
601	2	2	21	"m"	"r"	175	1	1	1	0.48721	1
601	2	2	21	"m"	"r"	176	22	3	3	1.2319	1
601	2	2	21	"m"	"r"	177	1	1	1	0.50408	1
601	2	2	21	"m"	"r"	178	2	2	2	0.6003	1
601	2	2	21	"m"	"r"	179	33	1	1	1.1296	1
601	2	2	21	"m"	"r"	180	2	2	2	1.6396	1
601	2	2	21	"m"	"r"	181	3	3	3	0.96722	1
601	2	2	21	"m"	"r"	182	1	1	1	0.53697	1
601	2	2	21	"m"	"r"	183	2	2	2	0.6078	1
601	2	2	21	"m"	"r"	184	33	1	1	2.5604	1
601	2	2	21	"m"	"r"	185	2	2	2	0.52056	1
601	2	2	21	"m"	"r"	186	3	3	3	0.40785	1
601	2	2	21	"m"	"r"	187	11	2	2	2.737	1
601	2	2	21	"m"	"r"	188	3	3	3	2.4479	1
601	2	2	21	"m"	"r"	189	1	1	1	0.55012	1
601	2	2	21	"m"	"r"	190	22	3	2	0.75002	0
601	2	2	21	"m"	"r"	191	1	1	1	1.5527	1
601	2	2	21	"m"	"r"	192	2	2	2	1.4879	1
601	2	2	21	"m"	"r"	193	3	3	3	0.47219	1
601	2	2	21	"m"	"r"	194	1	1	1	0.40121	1
601	2	2	21	"m"	"r"	195	2	2	2	1.193	1
601	2	2	21	"m"	"r"	196	3	3	3	0.55979	1
601	2	2	21	"m"	"r"	197	11	2	2	0.44815	1
601	2	2	21	"m"	"r"	198	3	3	3	0.53579	1
601	2	2	21	"m"	"r"	199	1	1	1	0.42465	1
601	2	2	21	"m"	"r"	200	2	2	2	1.4255	1
601	2	2	21	"m"	"r"	201	33	1	1	1.334	1
601	2	2	21	"m"	"r"	202	22	3	3	0.60045	1
601	2	2	21	"m"	"r"	203	1	1	1	0.48818	1
601	2	2	21	"m"	"r"	204	2	2	2	0.88706	1
601	2	2	21	"m"	"r"	205	3	3	3	0.4246	1
601	2	2	21	"m"	"r"	206	1	1	1	0.31198	1
601	2	2	21	"m"	"r"	207	2	2	2	0.30292	1
601	2	2	21	"m"	"r"	208	3	3	3	0.36873	1
601	2	2	21	"m"	"r"	209	1	1	1	1.6628	1
601	2	2	21	"m"	"r"	210	2	2	2	0.82391	1
601	2	2	21	"m"	"r"	211	33	1	1	0.39185	1
601	2	2	21	"m"	"r"	212	22	3	3	0.35301	1
601	2	2	21	"m"	"r"	213	11	2	2	0.52839	1
601	2	2	21	"m"	"r"	214	3	3	1	0.72089	0
601	2	2	21	"m"	"r"	215	1	1	1	0.40006	1
601	2	2	21	"m"	"r"	216	2	2	2	0.36474	1
601	2	2	21	"m"	"r"	217	3	3	3	0.87039	1
601	2	2	21	"m"	"r"	218	11	2	2	0.47944	1
601	2	2	21	"m"	"r"	219	3	3	3	0.4059	1
601	2	2	21	"m"	"r"	220	1	1	1	0.37676	1
601	2	2	21	"m"	"r"	221	2	2	2	1.049	1
601	2	2	21	"m"	"r"	222	33	1	1	0.71587	1
601	2	2	21	"m"	"r"	223	22	3	3	0.42426	1
601	2	2	21	"m"	"r"	224	1	1	1	0.4813	1
601	2	2	21	"m"	"r"	225	2	2	2	0.31201	1
601	2	2	21	"m"	"r"	226	3	3	3	0.3833	1
601	2	2	21	"m"	"r"	227	1	1	1	0.67361	1
601	2	2	21	"m"	"r"	228	2	2	2	0.61176	1
601	2	2	21	"m"	"r"	229	22	3	3	0.48236	1
601	2	2	21	"m"	"r"	230	1	1	1	0.51764	1
601	2	2	21	"m"	"r"	231	2	2	2	0.9058	1
601	2	2	21	"m"	"r"	232	3	3	3	0.50887	1
601	2	2	21	"m"	"r"	233	1	1	1	0.54435	1
601	2	2	21	"m"	"r"	234	22	3	3	0.51696	1
601	2	2	21	"m"	"r"	235	1	1	1	0.75274	1
601	2	2	21	"m"	"r"	236	2	2	2	0.7175	1
601	2	2	21	"m"	"r"	237	33	1	1	0.88121	1
601	2	2	21	"m"	"r"	238	2	2	2	0.59962	1
601	2	2	21	"m"	"r"	239	3	3	3	0.60595	1
601	2	2	21	"m"	"r"	240	11	2	2	1.1149	1
601	2	2	21	"m"	"r"	241	3	3	3	0.68231	1
601	2	2	21	"m"	"r"	242	1	1	1	0.47965	1
601	2	2	21	"m"	"r"	243	2	2	2	0.45629	1
601	2	2	21	"m"	"r"	244	3	3	3	0.40569	1
601	2	2	21	"m"	"r"	245	11	2	2	0.55245	1
601	2	2	21	"m"	"r"	246	3	3	3	0.73651	1
601	2	2	21	"m"	"r"	247	1	1	1	0.54114	1
601	2	2	21	"m"	"r"	248	22	3	3	0.76165	1
601	2	2	21	"m"	"r"	249	1	1	1	0.40672	1
601	2	2	21	"m"	"r"	250	2	2	2	0.38406	1
601	2	2	21	"m"	"r"	251	33	1	1	0.58485	1
601	2	2	21	"m"	"r"	252	2	2	2	0.95563	1
601	2	2	21	"m"	"r"	253	3	3	3	0.44841	1
601	2	2	21	"m"	"r"	254	11	2	2	0.39324	1
601	2	2	21	"m"	"r"	255	3	3	3	0.48638	1
601	2	2	21	"m"	"r"	256	1	1	1	0.48822	1
601	2	2	21	"m"	"r"	257	2	2	2	0.95643	1
601	2	2	21	"m"	"r"	258	3	3	3	0.40812	1
601	2	2	21	"m"	"r"	259	1	1	1	0.43323	1
601	2	2	21	"m"	"r"	260	2	2	2	0.85523	1
601	2	2	21	"m"	"r"	261	33	1	1	0.41723	1
601	2	2	21	"m"	"r"	262	2	2	2	0.88829	1
601	2	2	21	"m"	"r"	263	3	3	3	0.49558	1
601	2	2	21	"m"	"r"	264	1	1	1	0.34544	1
601	2	2	21	"m"	"r"	265	3	3	3	0.50267	1
601	2	2	21	"m"	"r"	266	1	1	1	0.57118	1
601	2	2	21	"m"	"r"	267	22	3	3	0.512	1
601	2	2	21	"m"	"r"	268	1	1	1	0.50507	1
601	2	2	21	"m"	"r"	269	2	2	2	0.55936	1
601	2	2	21	"m"	"r"	270	3	3	3	0.53597	1
601	2	2	21	"m"	"r"	271	1	1	1	1.2406	1
601	2	2	21	"m"	"r"	272	2	2	2	0.40941	1
601	2	2	21	"m"	"r"	273	33	1	1	0.46169	1
601	2	2	21	"m"	"r"	274	2	2	2	0.5206	1
601	2	2	21	"m"	"r"	275	3	3	3	0.41673	1
601	2	2	21	"m"	"r"	276	11	2	2	3.0166	1
601	2	2	21	"m"	"r"	277	3	3	3	0.43089	1
601	2	2	21	"m"	"r"	278	11	2	2	0.46378	1
601	2	2	21	"m"	"r"	279	3	3	3	0.61551	1
601	2	2	21	"m"	"r"	280	1	1	1	0.97646	1
601	2	2	21	"m"	"r"	281	2	2	2	0.86024	1
601	2	2	21	"m"	"r"	282	33	1	1	0.39883	1
601	2	2	21	"m"	"r"	283	22	3	3	0.51269	1
601	2	2	21	"m"	"r"	284	1	1	1	0.37661	1
601	2	2	21	"m"	"r"	285	2	2	2	1.7912	1
601	2	2	21	"m"	"r"	286	3	3	3	0.76606	1
601	2	2	21	"m"	"r"	287	1	1	1	0.50799	1
601	2	2	21	"m"	"r"	288	2	2	2	0.56014	1
601	2	2	21	"m"	"r"	289	3	3	3	0.39243	1
601	2	2	21	"m"	"r"	290	11	2	2	0.5518	1
601	2	2	21	"m"	"r"	291	3	3	3	3.3328	1
601	2	2	21	"m"	"r"	292	1	1	1	0.40003	1
601	2	2	21	"m"	"r"	293	22	3	3	0.79988	1
601	2	2	21	"m"	"r"	294	1	1	1	0.43528	1
601	2	2	21	"m"	"r"	295	2	2	2	1.4467	1
601	2	2	21	"m"	"r"	296	3	3	3	0.41607	1
601	2	2	21	"m"	"r"	297	1	1	1	0.57781	1
601	2	2	21	"m"	"r"	298	2	2	2	0.39851	1
601	2	2	21	"m"	"r"	299	33	1	1	0.51344	1
601	2	2	21	"m"	"r"	300	2	2	2	1.9356	1
601	2	2	21	"m"	"r"	301	3	3	3	0.42396	1
601	2	2	21	"m"	"r"	302	11	2	2	0.5699	1
601	2	2	21	"m"	"r"	303	3	3	3	0.62219	1
601	2	2	21	"m"	"r"	304	1	1	1	0.66368	1
601	2	2	21	"m"	"r"	305	2	2	2	0.77719	1
601	2	2	21	"m"	"r"	306	3	3	3	0.43054	1
601	2	2	21	"m"	"r"	307	1	1	1	0.29536	1
601	2	2	21	"m"	"r"	308	22	3	3	0.34496	1
601	2	2	21	"m"	"r"	309	1	1	1	0.39303	1
601	2	2	21	"m"	"r"	310	2	2	2	0.51155	1
601	2	2	21	"m"	"r"	311	33	1	1	0.7122	1
601	2	2	21	"m"	"r"	312	2	2	2	5.2984	1
601	2	2	21	"m"	"r"	313	3	3	3	0.42179	1
601	2	2	21	"m"	"r"	314	1	1	1	1.4313	1
601	2	2	21	"m"	"r"	315	2	2	2	1.1854	1
601	2	2	21	"m"	"r"	316	3	3	3	0.3673	1
601	2	2	21	"m"	"r"	317	1	1	1	0.352	1
601	2	2	21	"m"	"r"	318	22	3	3	0.54521	1
601	2	2	21	"m"	"r"	319	1	1	1	1.3761	1
601	2	2	21	"m"	"r"	320	2	2	2	1.3758	1
601	2	2	21	"m"	"r"	321	3	3	3	0.4475	1
601	2	2	21	"m"	"r"	322	11	2	2	1.5937	1
601	2	2	21	"m"	"r"	323	33	1	1	0.41459	1
601	2	2	21	"m"	"r"	324	2	2	2	0.47196	1
601	2	2	21	"m"	"r"	325	3	3	3	0.44531	1
601	2	2	21	"m"	"r"	326	11	2	2	0.73037	1
601	2	2	21	"m"	"r"	327	3	3	3	0.83519	1
601	2	2	21	"m"	"r"	328	1	1	1	0.48486	1
601	2	2	21	"m"	"r"	329	2	2	2	0.33628	1
601	2	2	21	"m"	"r"	330	33	1	1	0.35225	1
601	2	2	21	"m"	"r"	331	2	2	2	0.39998	1
601	2	2	21	"m"	"r"	332	3	3	3	1.1913	1
601	2	2	21	"m"	"r"	333	1	1	1	0.51074	1
601	2	2	21	"m"	"r"	334	22	3	3	0.40856	1
601	2	2	21	"m"	"r"	335	1	1	1	0.31259	1
601	2	2	21	"m"	"r"	336	2	2	2	0.3388	1
601	2	2	21	"m"	"r"	337	3	3	3	1.3492	1
601	2	2	21	"m"	"r"	338	1	1	1	0.53655	1
601	2	2	21	"m"	"r"	339	2	2	2	0.31372	1
601	2	2	21	"m"	"r"	340	3	3	3	0.59813	1
601	2	2	21	"m"	"r"	341	1	1	1	0.81611	1
601	2	2	21	"m"	"r"	342	22	3	3	0.44928	1
601	2	2	21	"m"	"r"	343	11	2	2	0.5199	1
601	2	2	21	"m"	"r"	344	3	3	3	0.41703	1
601	2	2	21	"m"	"r"	345	1	1	1	0.50373	1
601	2	2	21	"m"	"r"	346	2	2	2	1.4572	1
601	2	2	21	"m"	"r"	347	33	1	1	0.50648	1
601	2	2	21	"m"	"r"	348	2	2	3	0.44736	0
601	2	2	21	"m"	"r"	349	3	3	3	0.37814	1
601	2	2	21	"m"	"r"	350	11	2	2	0.3991	1
601	2	2	21	"m"	"r"	351	33	1	1	0.69397	1
601	2	2	21	"m"	"r"	352	2	2	2	0.62481	1
601	2	2	21	"m"	"r"	353	3	3	3	0.39861	1
601	2	2	21	"m"	"r"	354	1	1	1	0.40848	1
601	2	2	21	"m"	"r"	355	22	3	3	0.47937	1
601	2	2	21	"m"	"r"	356	1	1	1	0.47324	1
601	2	2	21	"m"	"r"	357	2	2	2	0.60051	1
601	2	2	21	"m"	"r"	358	3	3	3	0.50121	1
601	2	2	21	"m"	"r"	359	1	1	1	0.32106	1
601	2	2	21	"m"	"r"	360	2	2	2	0.33592	1
601	2	2	21	"m"	"r"	361	3	3	3	0.34346	1
601	2	2	21	"m"	"r"	362	1	1	1	0.53705	1
601	2	2	21	"m"	"r"	363	2	2	2	0.51402	1
601	2	2	21	"m"	"r"	364	3	3	3	0.43396	1
601	2	2	21	"m"	"r"	365	1	1	1	0.25622	1
601	2	2	21	"m"	"r"	366	22	3	3	0.43243	1
601	2	2	21	"m"	"r"	367	11	2	2	0.44786	1
601	2	2	21	"m"	"r"	368	3	3	3	0.60787	1
601	2	2	21	"m"	"r"	369	1	1	1	0.5529	1
601	2	2	21	"m"	"r"	370	2	2	2	0.43541	1
601	2	2	21	"m"	"r"	371	33	1	1	0.48376	1
601	2	2	21	"m"	"r"	372	2	2	2	0.43204	1
601	2	2	21	"m"	"r"	373	3	3	3	0.2652	1
601	2	2	21	"m"	"r"	374	1	1	1	0.51184	1
601	2	2	21	"m"	"r"	375	2	2	2	1.6176	1
601	2	2	21	"m"	"r"	376	3	3	3	0.41401	1
601	2	2	21	"m"	"r"	377	1	1	1	0.31231	1
601	2	2	21	"m"	"r"	378	2	2	2	0.36016	1
601	2	2	21	"m"	"r"	379	33	1	1	0.76003	1
601	2	2	21	"m"	"r"	380	2	2	2	0.76794	1
601	2	2	21	"m"	"r"	381	3	3	3	0.32099	1
601	2	2	21	"m"	"r"	382	11	2	2	0.41542	1
601	2	2	21	"m"	"r"	383	3	3	3	0.31221	1
601	2	2	21	"m"	"r"	384	1	1	1	0.48892	1
601	2	2	21	"m"	"r"	385	22	3	3	0.39261	1
601	2	2	21	"m"	"r"	386	1	1	1	0.55297	1
601	2	2	21	"m"	"r"	387	2	2	2	0.31931	1
601	2	2	21	"m"	"r"	388	3	3	3	0.37464	1
601	2	2	21	"m"	"r"	389	1	1	1	0.30371	1
601	2	2	21	"m"	"r"	390	22	3	3	0.55338	1
601	2	2	21	"m"	"r"	391	1	1	1	2.0085	1
601	2	2	21	"m"	"r"	392	2	2	2	0.32274	1
601	2	2	21	"m"	"r"	393	3	3	3	0.25659	1
601	2	2	21	"m"	"r"	394	11	2	2	0.48915	1
601	2	2	21	"m"	"r"	395	33	1	1	0.30448	1
601	2	2	21	"m"	"r"	396	2	2	2	0.46276	1
601	2	2	21	"m"	"r"	397	3	3	3	0.36603	1
601	2	2	21	"m"	"r"	398	1	1	1	0.41464	1
601	2	2	21	"m"	"r"	399	22	3	3	0.32701	1
601	2	2	21	"m"	"r"	400	1	1	1	0.52811	1
601	2	2	21	"m"	"r"	401	2	2	2	0.36913	1
601	2	2	21	"m"	"r"	402	3	3	3	0.5848	1
601	2	2	21	"m"	"r"	403	1	1	1	1.0116	1
601	2	2	21	"m"	"r"	404	2	2	2	0.54695	1
601	2	2	21	"m"	"r"	405	33	1	1	0.36851	1
601	2	2	21	"m"	"r"	406	2	2	2	0.56764	1
601	2	2	21	"m"	"r"	407	3	3	3	0.32759	1
601	2	2	21	"m"	"r"	408	11	2	1	0.72849	0
601	2	2	21	"m"	"r"	409	3	3	3	0.44347	1
601	2	2	21	"m"	"r"	410	1	1	1	0.37657	1
601	2	2	21	"m"	"r"	411	2	2	2	0.32825	1
601	2	2	21	"m"	"r"	412	3	3	3	0.31937	1
601	2	2	21	"m"	"r"	413	11	2	2	4.4112	1
601	2	2	21	"m"	"r"	414	3	3	3	0.38687	1
601	2	2	21	"m"	"r"	415	1	1	1	0.31851	1
601	2	2	21	"m"	"r"	416	2	2	2	0.35366	1
601	2	2	21	"m"	"r"	417	33	1	1	0.5597	1
601	2	2	21	"m"	"r"	418	2	2	2	0.95966	1
601	2	2	21	"m"	"r"	419	3	3	3	0.32702	1
601	2	2	21	"m"	"r"	420	1	1	1	0.40124	1
601	2	2	21	"m"	"r"	421	22	3	3	0.46441	1
601	2	2	21	"m"	"r"	422	11	2	2	0.34902	1
601	2	2	21	"m"	"r"	423	33	1	1	0.90005	1
601	2	2	21	"m"	"r"	424	22	3	3	0.39826	1
601	2	2	21	"m"	"r"	425	1	1	1	0.31383	1
601	2	2	21	"m"	"r"	426	2	2	2	0.35119	1
601	2	2	21	"m"	"r"	427	3	3	3	0.32806	1
601	2	2	21	"m"	"r"	428	1	1	1	0.51853	1
601	2	2	21	"m"	"r"	429	2	2	2	0.54444	1
601	2	2	21	"m"	"r"	430	3	3	3	0.38154	1
601	2	2	21	"m"	"r"	431	1	1	1	0.56778	1
601	2	2	21	"m"	"r"	432	2	2	2	0.28835	1
601	2	2	21	"m"	"r"	433	3	3	3	0.49592	1
601	2	2	21	"m"	"r"	434	1	1	1	1.8753	1
601	2	2	21	"m"	"r"	435	2	2	2	0.42521	1
601	2	2	21	"m"	"r"	436	3	3	3	0.32802	1
601	2	2	21	"m"	"r"	437	11	2	2	0.56754	1
601	2	2	21	"m"	"r"	438	33	1	1	0.47236	1
601	2	2	21	"m"	"r"	439	2	2	2	1.2624	1
601	2	2	21	"m"	"r"	440	3	3	3	0.36755	1
601	2	2	21	"m"	"r"	441	1	1	1	0.47227	1
601	2	2	21	"m"	"r"	442	22	3	3	0.50374	1
601	2	2	21	"m"	"r"	443	1	1	1	0.76778	1
601	2	2	21	"m"	"r"	444	2	2	2	1.1114	1
601	2	2	21	"m"	"r"	445	3	3	3	0.55961	1
601	2	2	21	"m"	"r"	446	1	1	1	0.51363	1
601	2	2	21	"m"	"r"	447	2	2	2	0.49292	1
601	2	2	21	"m"	"r"	448	3	3	3	0.68504	1
601	2	2	21	"m"	"r"	449	11	2	1	0.46557	0
601	2	2	21	"m"	"r"	450	3	3	3	0.39356	1
601	2	2	21	"m"	"r"	451	1	1	1	0.32647	1
601	2	2	21	"m"	"r"	452	2	2	2	0.39662	1
601	2	2	21	"m"	"r"	453	33	1	1	2.3671	1
601	2	2	21	"m"	"r"	454	22	3	3	0.45019	1
601	2	2	21	"m"	"r"	455	1	1	1	0.3424	1
601	2	2	21	"m"	"r"	456	2	2	2	0.34586	1
601	2	2	21	"m"	"r"	457	3	3	3	0.50233	1
601	2	2	21	"m"	"r"	458	1	1	1	1.4391	1
601	2	2	21	"m"	"r"	459	2	2	2	0.49664	1
601	2	2	21	"m"	"r"	460	3	3	3	0.35093	1
601	2	2	21	"m"	"r"	461	1	1	1	0.44745	1
601	2	2	21	"m"	"r"	462	2	2	2	0.70519	1
601	2	2	21	"m"	"r"	463	33	1	1	0.55206	1
601	2	2	21	"m"	"r"	464	2	2	2	0.38363	1
601	2	2	21	"m"	"r"	465	3	3	3	0.29635	1
601	2	2	21	"m"	"r"	466	11	2	2	0.40016	1
601	2	2	21	"m"	"r"	467	3	3	3	0.55776	1
601	2	2	21	"m"	"r"	468	1	1	1	1.5759	1
601	2	2	21	"m"	"r"	469	3	3	2	0.43827	0
601	2	2	21	"m"	"r"	470	1	1	1	0.49454	1
601	2	2	21	"m"	"r"	471	22	3	3	0.33708	1
601	2	2	21	"m"	"r"	472	11	2	2	0.52674	1
601	2	2	21	"m"	"r"	473	3	3	3	1.7287	1
601	2	2	21	"m"	"r"	474	1	1	1	0.5317	1
601	2	2	21	"m"	"r"	475	2	2	2	0.50474	1
601	2	2	21	"m"	"r"	476	33	1	1	0.48455	1
601	2	2	21	"m"	"r"	477	2	2	1	2.0976	0
601	2	2	21	"m"	"r"	478	3	3	3	1.729	1
601	2	2	21	"m"	"r"	479	1	1	1	0.47868	1
601	2	2	21	"m"	"r"	480	2	2	2	0.30387	1
601	2	2	21	"m"	"r"	481	3	3	3	0.38421	1
601	2	2	21	"m"	"r"	482	1	1	1	0.83304	1
601	2	2	21	"m"	"r"	483	2	2	2	0.59824	1
601	2	2	21	"m"	"r"	484	33	1	1	0.74597	1
601	2	2	21	"m"	"r"	485	2	2	2	0.37551	1
601	2	2	21	"m"	"r"	486	3	3	3	0.47264	1
601	2	2	21	"m"	"r"	487	1	1	1	1.8151	1
601	2	2	21	"m"	"r"	488	2	2	2	0.37766	1
601	2	2	21	"m"	"r"	489	3	3	3	0.45537	1
601	2	2	21	"m"	"r"	490	1	1	1	0.35227	1
601	2	2	21	"m"	"r"	491	22	3	3	0.5525	1
601	2	2	21	"m"	"r"	492	11	2	2	1.2386	1
601	2	2	21	"m"	"r"	493	3	3	2	0.40861	0
601	2	2	21	"m"	"r"	494	11	2	2	0.57663	1
601	2	2	21	"m"	"r"	495	33	1	1	0.40043	1
601	2	2	21	"m"	"r"	496	22	3	3	1.1766	1
601	2	2	21	"m"	"r"	497	1	1	1	2.6546	1
601	2	2	21	"m"	"r"	498	2	2	2	0.47054	1
601	2	2	21	"m"	"r"	499	3	3	3	0.39171	1
601	2	2	21	"m"	"r"	500	1	1	1	0.35124	1
601	2	2	21	"m"	"r"	501	2	2	2	1.4011	1
601	2	2	21	"m"	"r"	502	3	3	3	0.5541	1
601	2	2	21	"m"	"r"	503	1	1	1	0.57471	1
601	2	2	21	"m"	"r"	504	2	2	2	0.46304	1
601	2	2	21	"m"	"r"	505	3	3	3	0.53675	1
601	2	2	21	"m"	"r"	506	1	1	1	1.2571	1
601	2	2	21	"m"	"r"	507	22	3	1	0.17106	0
601	2	2	21	"m"	"r"	508	1	1	1	0.66612	1
601	2	2	21	"m"	"r"	509	2	2	2	0.32749	1
601	2	2	21	"m"	"r"	510	3	3	3	0.36725	1
601	2	2	21	"m"	"r"	511	11	2	2	0.36771	1
601	2	2	21	"m"	"r"	512	33	1	1	1.8109	1
601	2	2	21	"m"	"r"	513	2	2	2	0.58562	1
601	2	2	21	"m"	"r"	514	3	3	3	0.33668	1
601	2	2	21	"m"	"r"	515	1	1	1	0.3997	1
601	2	2	21	"m"	"r"	516	2	2	2	0.51995	1
601	2	2	21	"m"	"r"	517	3	3	3	0.79052	1
601	2	2	21	"m"	"r"	518	1	1	1	0.40506	1
601	2	2	21	"m"	"r"	519	2	2	2	0.32948	1
601	2	2	21	"m"	"r"	520	3	3	3	0.67024	1
601	2	2	21	"m"	"r"	521	1	1	1	0.32146	1
601	2	2	21	"m"	"r"	522	2	2	2	1.3409	1
601	2	2	21	"m"	"r"	523	3	3	3	0.40027	1
601	2	2	21	"m"	"r"	524	11	2	2	0.79335	1
601	2	2	21	"m"	"r"	525	33	1	1	0.40756	1
601	2	2	21	"m"	"r"	526	22	3	3	0.42349	1
601	2	2	21	"m"	"r"	527	1	1	1	0.60412	1
601	2	2	21	"m"	"r"	528	2	2	2	0.3368	1
601	2	2	21	"m"	"r"	529	3	3	3	0.28746	1
601	2	2	21	"m"	"r"	530	1	1	2	0.34349	0
601	2	2	21	"m"	"r"	531	2	2	2	0.39307	1
601	2	2	21	"m"	"r"	532	3	3	3	0.51083	1
601	2	2	21	"m"	"r"	533	11	2	2	0.63527	1
601	2	2	21	"m"	"r"	534	3	3	3	0.46274	1
601	2	2	21	"m"	"r"	535	1	1	1	0.41621	1
601	2	2	21	"m"	"r"	536	2	2	2	0.45594	1
601	2	2	21	"m"	"r"	537	3	3	3	0.33636	1
601	2	2	21	"m"	"r"	538	1	1	1	1.0103	1
601	2	2	21	"m"	"r"	539	2	2	2	0.40166	1
601	2	2	21	"m"	"r"	540	33	1	1	0.35212	1
601	2	2	21	"m"	"r"	541	22	3	3	0.29626	1
601	2	2	21	"m"	"r"	542	1	1	1	0.39148	1
601	2	2	21	"m"	"r"	543	2	2	2	0.76734	1
601	2	2	21	"m"	"r"	544	3	3	3	0.29332	1
601	2	2	21	"m"	"r"	545	11	2	2	0.44954	1
601	2	2	21	"m"	"r"	546	33	1	1	0.30328	1
601	2	2	21	"m"	"r"	547	2	2	2	0.34347	1
601	2	2	21	"m"	"r"	548	3	3	3	0.54322	1
601	2	2	21	"m"	"r"	549	1	1	1	0.96462	1
601	2	2	21	"m"	"r"	550	22	3	3	0.42297	1
601	2	2	21	"m"	"r"	551	1	1	1	0.43241	1
601	2	2	21	"m"	"r"	552	2	2	2	0.34497	1
601	2	2	21	"m"	"r"	553	3	3	3	0.38305	1
601	2	2	21	"m"	"r"	554	11	2	2	1.2802	1
601	2	2	21	"m"	"r"	555	3	3	3	0.3844	1
601	2	2	21	"m"	"r"	556	1	1	1	0.47981	1
601	2	2	21	"m"	"r"	557	2	2	2	0.31346	1
601	2	2	21	"m"	"r"	558	33	1	1	0.75751	1
601	2	2	21	"m"	"r"	559	2	2	2	0.4118	1
601	2	2	21	"m"	"r"	560	3	3	3	0.27615	1
601	2	2	21	"m"	"r"	561	1	1	1	0.36876	1
601	2	2	21	"m"	"r"	562	22	3	3	28.6561	1
601	2	2	21	"m"	"r"	563	1	1	1	0.40078	1
601	2	2	21	"m"	"r"	564	2	2	2	0.61779	1
601	2	2	21	"m"	"r"	565	22	3	3	0.34118	1
601	2	2	21	"m"	"r"	566	1	1	1	0.33662	1
601	2	2	21	"m"	"r"	567	22	3	3	0.3687	1
601	2	2	21	"m"	"r"	568	1	1	1	0.41648	1
601	2	2	21	"m"	"r"	569	2	2	2	0.4549	1
601	2	2	21	"m"	"r"	570	3	3	3	0.37765	1
601	2	2	21	"m"	"r"	571	11	2	2	0.34318	1
601	2	2	21	"m"	"r"	572	3	3	3	0.32779	1
601	2	2	21	"m"	"r"	573	1	1	1	0.3201	1
601	2	2	21	"m"	"r"	574	2	2	2	0.36696	1
601	2	2	21	"m"	"r"	575	33	1	1	0.73079	1
601	2	2	21	"m"	"r"	576	2	2	2	0.68822	1
601	2	2	21	"m"	"r"	577	3	3	3	0.4233	1
601	2	2	21	"m"	"r"	578	1	1	1	0.35245	1
601	2	2	21	"m"	"r"	579	2	2	2	0.37655	1
601	2	2	21	"m"	"r"	580	3	3	3	0.66378	1
601	2	2	21	"m"	"r"	581	11	2	2	0.47927	1
601	2	2	21	"m"	"r"	582	3	3	3	0.37626	1
601	2	2	21	"m"	"r"	583	1	1	1	0.5057	1
601	2	2	21	"m"	"r"	584	22	3	3	0.4867	1
601	2	2	21	"m"	"r"	585	1	1	1	0.93832	1
601	2	2	21	"m"	"r"	586	2	2	2	0.3063	1
601	2	2	21	"m"	"r"	587	33	1	1	0.42546	1
601	2	2	21	"m"	"r"	588	2	2	2	0.42236	1
601	2	2	21	"m"	"r"	589	3	3	3	0.41599	1
601	2	2	21	"m"	"r"	590	11	2	2	3.3623	1
601	2	2	21	"m"	"r"	591	33	1	1	0.52683	1
601	2	2	21	"m"	"r"	592	2	2	2	1.0336	1
601	2	2	21	"m"	"r"	593	3	3	3	0.36758	1
601	2	2	21	"m"	"r"	594	1	1	1	2.0489	1
601	2	2	21	"m"	"r"	595	2	2	2	0.41094	1
601	2	2	21	"m"	"r"	596	3	3	3	0.31304	1
601	2	2	21	"m"	"r"	597	1	1	1	0.3924	1
601	2	2	21	"m"	"r"	598	2	2	2	0.38362	1
601	2	2	21	"m"	"r"	599	3	3	3	1.0501	1
601	2	2	21	"m"	"r"	600	1	1	1	0.46602	1
601	2	2	21	"m"	"r"	601	22	3	3	0.43206	1
601	2	2	21	"m"	"r"	602	1	1	1	0.83368	1
601	2	2	21	"m"	"r"	603	2	2	2	1.5278	1
601	2	2	21	"m"	"r"	604	3	3	3	0.34512	1
601	2	2	21	"m"	"r"	605	11	2	2	0.36902	1
601	2	2	21	"m"	"r"	606	3	3	3	0.42193	1
601	2	2	21	"m"	"r"	607	1	1	1	0.38622	1
601	2	2	21	"m"	"r"	608	22	3	3	0.96007	1
601	2	2	21	"m"	"r"	609	1	1	1	0.31176	1
601	2	2	21	"m"	"r"	610	2	2	2	0.28949	1
601	2	2	21	"m"	"r"	611	33	1	1	0.45425	1
601	2	2	21	"m"	"r"	612	2	2	2	0.35177	1
601	2	2	21	"m"	"r"	613	3	3	3	0.32131	1
601	2	2	21	"m"	"r"	614	1	1	1	0.31775	1
601	2	2	21	"m"	"r"	615	2	2	2	0.63583	1
601	2	2	21	"m"	"r"	616	3	3	3	0.28602	1
601	2	2	21	"m"	"r"	617	11	2	2	0.31287	1
601	2	2	21	"m"	"r"	618	33	1	1	0.31198	1
601	2	2	21	"m"	"r"	619	22	3	3	0.41479	1
601	2	2	21	"m"	"r"	620	1	1	1	0.36123	1
601	2	2	21	"m"	"r"	621	2	2	2	0.35966	1
601	2	2	21	"m"	"r"	622	3	3	3	0.27153	1
601	2	2	21	"m"	"r"	623	1	1	1	0.4013	1
601	2	2	21	"m"	"r"	624	2	2	2	0.27313	1
601	2	2	21	"m"	"r"	625	3	3	3	0.41367	1
601	2	2	21	"m"	"r"	626	1	1	1	1.1918	1
601	2	2	21	"m"	"r"	627	2	2	2	0.38479	1
601	2	2	21	"m"	"r"	628	33	1	1	0.59943	1
601	2	2	21	"m"	"r"	629	2	2	2	0.3205	1
601	2	2	21	"m"	"r"	630	3	3	3	0.39267	1
601	2	2	21	"m"	"r"	631	11	2	2	0.71168	1
601	2	2	21	"m"	"r"	632	3	3	3	0.35034	1
601	2	2	21	"m"	"r"	633	1	1	1	0.3915	1
601	2	2	21	"m"	"r"	634	2	2	2	0.28926	1
601	2	2	21	"m"	"r"	635	3	3	3	0.31813	1
601	2	2	21	"m"	"r"	636	1	1	1	0.71247	1
601	2	2	21	"m"	"r"	637	22	3	3	0.32068	1
601	2	2	21	"m"	"r"	638	1	1	1	0.3834	1
601	2	2	21	"m"	"r"	639	2	2	2	0.28865	1
601	2	2	21	"m"	"r"	640	3	3	3	0.3272	1
601	2	2	21	"m"	"r"	641	1	1	1	0.48115	1
601	2	2	21	"m"	"r"	642	2	2	2	0.30292	1
601	2	2	21	"m"	"r"	643	3	3	3	0.2676	1
601	2	2	21	"m"	"r"	644	1	1	1	0.39155	1
601	2	2	21	"m"	"r"	645	2	2	2	0.32044	1
601	2	2	21	"m"	"r"	646	33	1	1	0.3927	1
601	2	2	21	"m"	"r"	647	22	3	2	0.44005	0
601	2	2	21	"m"	"r"	648	11	2	2	0.4366	1
601	2	2	21	"m"	"r"	649	3	3	3	0.23843	1
601	2	2	21	"m"	"r"	650	1	1	1	0.28016	1
601	2	2	21	"m"	"r"	651	2	2	2	0.47189	1
601	2	2	21	"m"	"r"	652	33	1	1	0.43176	1
601	2	2	21	"m"	"r"	653	2	2	2	1.4812	1
601	2	2	21	"m"	"r"	654	3	3	3	0.34161	1
601	2	2	21	"m"	"r"	655	1	1	1	0.3681	1
601	2	2	21	"m"	"r"	656	22	3	3	0.60026	1
601	2	2	21	"m"	"r"	657	1	1	1	0.41577	1
601	2	2	21	"m"	"r"	658	2	2	2	0.49514	1
601	2	2	21	"m"	"r"	659	3	3	3	0.28083	1
601	2	2	21	"m"	"r"	660	11	2	2	0.40785	1
601	2	2	21	"m"	"r"	661	3	3	3	0.32057	1
601	2	2	21	"m"	"r"	662	1	1	1	0.33661	1
601	2	2	21	"m"	"r"	663	2	2	2	0.61679	1
601	2	2	21	"m"	"r"	664	3	3	3	0.49181	1
601	2	2	21	"m"	"r"	665	11	2	2	0.41569	1
601	2	2	21	"m"	"r"	666	3	3	3	0.51993	1
601	2	2	21	"m"	"r"	667	1	1	1	0.43314	1
601	2	2	21	"m"	"r"	668	2	2	2	0.91098	1
601	2	2	21	"m"	"r"	669	3	3	3	0.3274	1
601	2	2	21	"m"	"r"	670	1	1	1	0.29636	1
601	2	2	21	"m"	"r"	671	2	2	2	0.27201	1
601	2	2	21	"m"	"r"	672	33	1	1	0.39372	1
601	2	2	21	"m"	"r"	673	22	3	2	1.6548	0
601	2	2	21	"m"	"r"	674	1	1	1	0.4086	1
601	2	2	21	"m"	"r"	675	2	2	2	0.63261	1
601	2	2	21	"m"	"r"	676	3	3	3	0.33558	1
601	2	2	21	"m"	"r"	677	11	2	2	0.39865	1
601	2	2	21	"m"	"r"	678	33	1	1	0.62338	1
601	2	2	21	"m"	"r"	679	2	2	2	0.3953	1
601	2	2	21	"m"	"r"	680	3	3	3	0.31232	1
601	2	2	21	"m"	"r"	681	1	1	1	0.42519	1
601	2	2	21	"m"	"r"	682	22	3	3	0.68832	1
601	2	2	21	"m"	"r"	683	1	1	1	0.71715	1
601	2	2	21	"m"	"r"	684	2	2	2	0.6268	1
601	2	2	21	"m"	"r"	685	3	3	3	0.27021	1
601	2	2	21	"m"	"r"	686	1	1	1	0.3126	1
601	2	2	21	"m"	"r"	687	2	2	2	0.46715	1
601	2	2	21	"m"	"r"	688	3	3	3	0.89417	1
601	2	2	21	"m"	"r"	689	1	1	1	0.38268	1
601	2	2	21	"m"	"r"	690	2	2	2	0.31287	1
601	2	2	21	"m"	"r"	691	3	3	3	0.28881	1
601	2	2	21	"m"	"r"	692	1	1	1	0.75912	1
601	2	2	21	"m"	"r"	693	2	2	2	1.1057	1
601	2	2	21	"m"	"r"	694	33	1	1	0.48874	1
601	2	2	21	"m"	"r"	695	22	3	3	0.29569	1
601	2	2	21	"m"	"r"	696	11	2	2	0.35299	1
601	2	2	21	"m"	"r"	697	3	3	3	0.41591	1
601	2	2	21	"m"	"r"	698	1	1	1	1.0475	1
601	2	2	21	"m"	"r"	699	2	2	2	0.30358	1
601	2	2	21	"m"	"r"	700	3	3	3	0.33791	1
601	2	2	21	"m"	"r"	701	11	2	2	0.35995	1
601	2	2	21	"m"	"r"	702	3	3	3	0.4788	1
601	2	2	21	"m"	"r"	703	1	1	2	0.8001	0
601	2	2	21	"m"	"r"	704	2	2	2	0.28661	1
601	2	2	21	"m"	"r"	705	33	1	1	0.4236	1
601	2	2	21	"m"	"r"	706	2	2	2	0.36023	1
601	2	2	21	"m"	"r"	707	3	3	3	0.3841	1
601	2	2	21	"m"	"r"	708	1	1	1	2.2332	1
601	2	2	21	"m"	"r"	709	22	3	2	0.42061	0
601	2	2	21	"m"	"r"	710	11	2	2	0.29453	1
601	2	2	21	"m"	"r"	711	3	3	3	0.35277	1
601	2	2	21	"m"	"r"	712	1	1	1	0.5768	1
601	2	2	21	"m"	"r"	713	2	2	2	1.5513	1
601	2	2	21	"m"	"r"	714	33	1	1	0.44068	1
601	2	2	21	"m"	"r"	715	22	3	3	0.35971	1
601	2	2	21	"m"	"r"	716	1	1	1	0.40054	1
601	2	2	21	"m"	"r"	717	2	2	2	0.33609	1
601	2	2	21	"m"	"r"	718	3	3	3	0.54496	1
601	2	2	21	"m"	"r"	719	1	1	2	0.3605	0
601	2	2	21	"m"	"r"	720	2	2	2	0.28564	1
601	2	2	21	"m"	"r"	721	3	3	3	0.30543	1
601	2	2	21	"m"	"r"	722	1	1	1	0.26488	1
601	2	2	21	"m"	"r"	723	22	3	3	0.46651	1
601	2	2	21	"m"	"r"	724	1	1	1	0.46512	1
601	2	2	21	"m"	"r"	725	2	2	2	0.29581	1
601	2	2	21	"m"	"r"	726	3	3	3	0.31062	1
601	2	2	21	"m"	"r"	727	11	2	1	0.32865	0
601	2	2	21	"m"	"r"	728	3	3	3	0.47271	1
601	2	2	21	"m"	"r"	729	1	1	1	0.43284	1
601	2	2	21	"m"	"r"	730	2	2	2	0.98943	1
601	2	2	21	"m"	"r"	731	33	1	1	0.3848	1
601	2	2	21	"m"	"r"	732	2	2	2	0.43357	1
601	2	2	21	"m"	"r"	733	3	3	3	0.34251	1
601	2	2	21	"m"	"r"	734	1	1	1	0.46374	1
601	2	2	21	"m"	"r"	735	22	3	3	0.86686	1
601	2	2	21	"m"	"r"	736	11	2	2	0.2824	1
601	2	2	21	"m"	"r"	737	33	1	1	0.30443	1
601	2	2	21	"m"	"r"	738	2	2	2	0.88943	1
601	2	2	21	"m"	"r"	739	3	3	3	0.38176	1
601	2	2	21	"m"	"r"	740	1	1	1	2.009	1
601	2	2	21	"m"	"r"	741	2	2	2	0.53199	1
601	2	2	21	"m"	"r"	742	3	3	3	0.36804	1
601	2	2	21	"m"	"r"	743	1	1	1	0.42386	1
601	2	2	21	"m"	"r"	744	2	2	2	0.61037	1
601	2	2	21	"m"	"r"	745	3	3	3	0.96688	1
601	2	2	21	"m"	"r"	746	1	1	1	0.68243	1
601	2	2	21	"m"	"r"	747	22	3	3	0.50711	1
601	2	2	21	"m"	"r"	748	1	1	1	0.35497	1
601	2	2	21	"m"	"r"	749	2	2	2	0.28797	1
601	2	2	21	"m"	"r"	750	3	3	3	0.31213	1
601	2	2	21	"m"	"r"	751	11	2	2	0.36182	1
601	2	2	21	"m"	"r"	752	3	3	3	0.63003	1
601	2	2	21	"m"	"r"	753	1	1	1	0.91904	1
601	2	2	21	"m"	"r"	754	2	2	2	0.29232	1
601	2	2	21	"m"	"r"	755	33	1	1	0.47752	1
601	2	2	21	"m"	"r"	756	2	2	2	0.31345	1
601	2	2	21	"m"	"r"	757	3	3	3	0.41537	1
601	2	2	21	"m"	"r"	758	11	2	3	0.72208	0
601	2	2	21	"m"	"r"	759	3	3	3	0.41042	1
601	2	2	21	"m"	"r"	760	1	1	1	0.41762	1
601	2	2	21	"m"	"r"	761	2	2	2	0.35296	1
601	2	2	21	"m"	"r"	762	33	1	1	0.4249	1
601	2	2	21	"m"	"r"	763	22	3	3	0.62286	1
601	2	2	21	"m"	"r"	764	1	1	1	0.40619	1
601	2	2	21	"m"	"r"	765	2	2	2	0.28137	1
601	2	2	21	"m"	"r"	766	3	3	3	0.30336	1
601	2	2	21	"m"	"r"	767	1	1	1	0.34444	1
601	2	2	21	"m"	"r"	768	2	2	2	1.3003	1
601	2	2	21	"m"	"r"	769	3	3	3	0.42346	1
601	2	2	21	"m"	"r"	770	1	1	1	0.28765	1
601	2	2	21	"m"	"r"	771	2	2	2	0.29256	1
601	2	2	21	"m"	"r"	772	3	3	3	0.37183	1
601	2	2	21	"m"	"r"	773	1	1	1	1.2955	1
601	2	2	21	"m"	"r"	774	2	2	2	0.40791	1
601	2	2	21	"m"	"r"	775	3	3	3	0.31232	1
601	2	2	21	"m"	"r"	776	11	2	2	0.45657	1
601	2	2	21	"m"	"r"	777	33	1	1	0.47102	1
601	2	2	21	"m"	"r"	778	22	3	3	0.97577	1
601	2	2	21	"m"	"r"	779	1	1	1	0.40787	1
601	2	2	21	"m"	"r"	780	2	2	2	0.28808	1
601	2	2	21	"m"	"r"	781	3	3	3	0.33566	1
601	2	2	21	"m"	"r"	782	1	1	1	0.61201	1
601	2	2	21	"m"	"r"	783	2	2	2	1.0593	1
601	2	2	21	"m"	"r"	784	3	3	3	0.37517	1
601	2	2	21	"m"	"r"	785	1	1	1	0.3202	1
601	2	2	21	"m"	"r"	786	2	2	2	0.27926	1
601	2	2	21	"m"	"r"	787	3	3	3	0.43236	1
601	2	2	21	"m"	"r"	788	1	1	1	1.1446	1
601	2	2	21	"m"	"r"	789	22	3	3	0.34328	1
601	2	2	21	"m"	"r"	790	11	2	2	0.44863	1
601	2	2	21	"m"	"r"	791	33	1	1	0.37674	1
601	2	2	21	"m"	"r"	792	2	2	2	0.39109	1
601	2	2	21	"m"	"r"	793	22	3	3	0.82398	1
601	2	2	21	"m"	"r"	794	11	2	2	0.34073	1
601	2	2	21	"m"	"r"	795	3	3	3	0.40172	1
601	2	2	21	"m"	"r"	796	1	1	1	0.28737	1
601	2	2	21	"m"	"r"	797	2	2	2	0.32114	1
601	2	2	21	"m"	"r"	798	3	3	3	1.5672	1
601	2	2	21	"m"	"r"	799	1	1	1	0.57516	1
601	2	2	21	"m"	"r"	800	2	2	2	0.31315	1
601	2	2	21	"m"	"r"	801	3	3	3	0.34366	1
601	2	2	21	"m"	"r"	802	1	1	1	0.39123	1
601	2	2	21	"m"	"r"	803	2	2	2	0.36064	1
601	2	2	21	"m"	"r"	804	33	1	1	0.47072	1
601	2	2	21	"m"	"r"	805	22	3	3	0.30355	1
601	2	2	21	"m"	"r"	806	1	1	1	0.43285	1
601	2	2	21	"m"	"r"	807	2	2	2	0.29761	1
601	2	2	21	"m"	"r"	808	3	3	3	0.34204	1
601	2	2	21	"m"	"r"	809	1	1	1	0.80153	1
601	2	2	21	"m"	"r"	810	2	2	2	0.35024	1
601	2	2	21	"m"	"r"	811	33	1	1	0.40207	1
601	2	2	21	"m"	"r"	812	2	2	1	0.36036	0
601	2	2	21	"m"	"r"	813	3	3	3	0.40044	1
601	2	2	21	"m"	"r"	814	1	1	1	0.62975	1
601	2	2	21	"m"	"r"	815	22	3	2	0.26014	0
601	2	2	21	"m"	"r"	816	11	2	2	0.31186	1
601	2	2	21	"m"	"r"	817	3	3	3	0.35342	1
601	2	2	21	"m"	"r"	818	1	1	1	0.28837	1
601	2	2	21	"m"	"r"	819	2	2	2	0.29592	1
601	2	2	21	"m"	"r"	820	3	3	3	0.39103	1
601	2	2	21	"m"	"r"	821	1	1	1	0.87441	1
601	2	2	21	"m"	"r"	822	2	2	2	0.29597	1
601	2	2	21	"m"	"r"	823	33	1	1	0.43807	1
601	2	2	21	"m"	"r"	824	22	3	3	0.37692	1
601	2	2	21	"m"	"r"	825	1	1	1	0.50788	1
601	2	2	21	"m"	"r"	826	2	2	2	0.80387	1
601	2	2	21	"m"	"r"	827	3	3	3	0.34418	1
601	2	2	21	"m"	"r"	828	11	2	2	0.41566	1
601	2	2	21	"m"	"r"	829	3	3	3	0.45664	1
601	2	2	21	"m"	"r"	830	1	1	1	0.49393	1
601	2	2	21	"m"	"r"	831	2	2	2	0.42574	1
601	2	2	21	"m"	"r"	832	3	3	3	0.41181	1
601	2	2	21	"m"	"r"	833	1	1	1	0.78968	1
601	2	2	21	"m"	"r"	834	2	2	2	0.27639	1
601	2	2	21	"m"	"r"	835	3	3	3	0.29677	1
601	2	2	21	"m"	"r"	836	11	2	2	0.34294	1
601	2	2	21	"m"	"r"	837	33	1	1	0.34495	1
601	2	2	21	"m"	"r"	838	2	2	2	1.2892	1
601	2	2	21	"m"	"r"	839	3	3	3	0.27804	1
601	2	2	21	"m"	"r"	840	1	1	1	0.2968	1
601	2	2	21	"m"	"r"	841	22	3	3	0.39273	1
601	2	2	21	"m"	"r"	842	1	1	1	0.44051	1
601	2	2	21	"m"	"r"	843	2	2	2	0.48047	1
601	2	2	21	"m"	"r"	844	3	3	3	0.3332	1
601	2	2	21	"m"	"r"	845	1	1	1	0.32847	1
601	2	2	21	"m"	"r"	846	2	2	2	0.28774	1
601	2	2	21	"m"	"r"	847	33	1	1	0.57525	1
601	2	2	21	"m"	"r"	848	2	2	2	0.37688	1
601	2	2	21	"m"	"r"	849	3	3	3	0.47239	1
601	2	2	21	"m"	"r"	850	1	1	1	0.38395	1
601	2	2	21	"m"	"r"	851	22	3	3	0.37558	1
601	2	2	21	"m"	"r"	852	11	2	2	0.28789	1
601	2	2	21	"m"	"r"	853	3	3	3	0.35189	1
601	2	2	21	"m"	"r"	854	1	1	1	1.1697	1
601	2	2	21	"m"	"r"	855	2	2	2	0.31364	1
601	2	2	21	"m"	"r"	856	3	3	3	0.30305	1
601	2	2	21	"m"	"r"	857	11	2	2	0.39287	1
601	2	2	21	"m"	"r"	858	3	3	3	0.5138	1
601	2	2	21	"m"	"r"	859	1	1	1	0.99134	1
601	2	2	21	"m"	"r"	860	22	3	3	0.3435	1
601	2	2	21	"m"	"r"	861	1	1	1	0.36027	1
601	2	2	21	"m"	"r"	862	2	2	2	0.33017	1
601	2	2	21	"m"	"r"	863	33	1	1	0.42223	1
601	2	2	21	"m"	"r"	864	2	2	2	0.94178	1
601	2	2	21	"m"	"r"	865	3	3	3	0.31894	1
601	2	2	21	"m"	"r"	866	1	1	1	0.3453	1
601	2	2	21	"m"	"r"	867	2	2	2	0.33975	1
601	2	2	21	"m"	"r"	868	33	1	1	0.4177	1
601	2	2	21	"m"	"r"	869	2	2	2	0.92708	1
601	2	2	21	"m"	"r"	870	3	3	3	0.32628	1
601	2	2	21	"m"	"r"	871	11	2	2	0.32055	1
601	2	2	21	"m"	"r"	872	3	3	3	0.38468	1
601	2	2	21	"m"	"r"	873	1	1	1	0.49617	1
601	2	2	21	"m"	"r"	874	2	2	2	1.0726	1
601	2	2	21	"m"	"r"	875	3	3	3	0.26287	1
601	2	2	21	"m"	"r"	876	1	1	1	0.35214	1
601	2	2	21	"m"	"r"	877	3	3	3	0.37632	1
601	2	2	21	"m"	"r"	878	11	2	2	0.41578	1
601	2	2	21	"m"	"r"	879	33	1	2	0.58328	0
601	2	2	21	"m"	"r"	880	2	2	2	0.60899	1
601	2	2	21	"m"	"r"	881	3	3	3	0.29645	1
601	2	2	21	"m"	"r"	882	1	1	1	0.42396	1
601	2	2	21	"m"	"r"	883	2	2	2	0.29632	1
601	2	2	21	"m"	"r"	884	3	3	3	0.40483	1
601	2	2	21	"m"	"r"	885	1	1	1	1.2443	1
601	2	2	21	"m"	"r"	886	2	2	2	0.27329	1
601	2	2	21	"m"	"r"	887	3	3	3	0.32758	1
601	2	2	21	"m"	"r"	888	1	1	1	0.32878	1
601	2	2	21	"m"	"r"	889	22	3	3	0.43123	1
601	2	2	21	"m"	"r"	890	1	1	1	2.8353	1
601	2	2	21	"m"	"r"	891	22	3	3	0.44947	1
601	2	2	21	"m"	"r"	892	1	1	1	0.40713	1
601	2	2	21	"m"	"r"	893	2	2	2	0.29046	1
601	2	2	21	"m"	"r"	894	33	1	1	0.61435	1
601	2	2	21	"m"	"r"	895	2	2	2	1.3413	1
601	2	2	21	"m"	"r"	896	3	3	3	0.37636	1
601	2	2	21	"m"	"r"	897	1	1	1	0.28839	1
601	2	2	21	"m"	"r"	898	2	2	2	0.28148	1
601	2	2	21	"m"	"r"	899	3	3	3	0.38265	1
601	2	2	21	"m"	"r"	900	11	2	2	1.2816	1
601	2	2	21	"m"	"r"	901	3	3	3	0.30182	1
601	2	2	21	"m"	"r"	902	1	1	1	0.32061	1
601	2	2	21	"m"	"r"	903	22	3	3	0.47231	1
601	2	2	21	"m"	"r"	904	1	1	1	0.40112	1
601	2	2	21	"m"	"r"	905	2	2	2	0.39165	1
601	2	2	21	"m"	"r"	906	3	3	2	1.0474	0
601	2	2	21	"m"	"r"	907	11	2	2	0.67031	1
601	2	2	21	"m"	"r"	908	3	3	3	0.39996	1
601	2	2	21	"m"	"r"	909	1	1	1	0.35162	1
601	2	2	21	"m"	"r"	910	2	2	2	1.7511	1
601	2	2	21	"m"	"r"	911	33	1	1	0.6565	1
601	2	2	21	"m"	"r"	912	2	2	2	0.38401	1
601	2	2	21	"m"	"r"	913	3	3	3	0.35214	1
601	2	2	21	"m"	"r"	914	1	1	1	0.46502	1
601	2	2	21	"m"	"r"	915	22	3	2	0.40772	0
601	2	2	21	"m"	"r"	916	1	1	1	0.36768	1
601	2	2	21	"m"	"r"	917	2	2	2	0.51442	1
601	2	2	21	"m"	"r"	918	3	3	3	0.31814	1
601	2	2	21	"m"	"r"	919	11	2	2	0.43054	1
601	2	2	21	"m"	"r"	920	3	3	3	0.80371	1
601	2	2	21	"m"	"r"	921	1	1	1	0.37136	1
601	2	2	21	"m"	"r"	922	2	2	2	0.28863	1
601	2	2	21	"m"	"r"	923	33	1	1	0.43232	1
601	2	2	21	"m"	"r"	924	2	2	2	0.28663	1
601	2	2	21	"m"	"r"	925	3	3	3	0.89639	1
601	2	2	21	"m"	"r"	926	1	1	1	0.5189	1
601	2	2	21	"m"	"r"	927	2	2	2	0.31385	1
601	2	2	21	"m"	"r"	928	3	3	3	0.3672	1
601	2	2	21	"m"	"r"	929	1	1	1	0.4799	1
601	2	2	21	"m"	"r"	930	22	3	3	0.46552	1
601	2	2	21	"m"	"r"	931	11	2	2	0.7684	1
601	2	2	21	"m"	"r"	932	3	3	3	0.29432	1
601	2	2	21	"m"	"r"	933	1	1	1	0.2732	1
601	2	2	21	"m"	"r"	934	2	2	2	0.32697	1
601	2	2	21	"m"	"r"	935	33	1	1	0.38369	1
601	2	2	21	"m"	"r"	936	2	2	2	1.1447	1
601	2	2	21	"m"	"r"	937	3	3	3	0.45628	1
601	2	2	21	"m"	"r"	938	11	2	2	0.39185	1
601	2	2	21	"m"	"r"	939	3	3	3	0.43991	1
601	2	2	21	"m"	"r"	940	1	1	1	0.46956	1
601	2	2	21	"m"	"r"	941	2	2	2	1.0669	1
601	2	2	21	"m"	"r"	942	3	3	3	0.31225	1
601	2	2	21	"m"	"r"	943	1	1	1	0.3352	1
601	2	2	21	"m"	"r"	944	2	2	2	0.24806	1
601	2	2	21	"m"	"r"	945	33	1	1	0.36181	1
601	2	2	21	"m"	"r"	946	2	2	2	1.3126	1
601	2	2	21	"m"	"r"	947	3	3	3	0.28095	1
601	2	2	21	"m"	"r"	948	1	1	1	0.25732	1
601	2	2	21	"m"	"r"	949	3	3	3	0.43999	1
601	2	2	21	"m"	"r"	950	1	1	1	0.36675	1
601	2	2	21	"m"	"r"	951	2	2	2	0.42609	1
601	2	2	21	"m"	"r"	952	3	3	3	0.6208	1
601	2	2	21	"m"	"r"	953	1	1	1	0.73499	1
601	2	2	21	"m"	"r"	954	22	3	3	0.36814	1
601	2	2	21	"m"	"r"	955	11	2	2	0.36837	1
601	2	2	21	"m"	"r"	956	3	3	3	1.2453	1
601	2	2	21	"m"	"r"	957	1	1	1	0.44706	1
601	2	2	21	"m"	"r"	958	2	2	2	0.25725	1
601	2	2	21	"m"	"r"	959	33	1	1	0.40764	1
601	2	2	21	"m"	"r"	960	2	2	2	0.41119	1
601	2	2	21	"m"	"r"	961	3	3	3	0.63581	1
601	2	2	21	"m"	"r"	962	1	1	1	0.49777	1
601	2	2	21	"m"	"r"	963	2	2	2	0.31132	1
601	2	2	21	"m"	"r"	964	33	1	1	0.78517	1
601	2	2	21	"m"	"r"	965	2	2	2	1.592	1
601	2	2	21	"m"	"r"	966	3	3	3	0.35051	1
601	2	2	21	"m"	"r"	967	1	1	1	0.26494	1
601	2	2	21	"m"	"r"	968	22	3	3	0.39248	1
601	2	2	21	"m"	"r"	969	1	1	1	0.48842	1
601	2	2	21	"m"	"r"	970	2	2	2	1.1673	1
601	2	2	21	"m"	"r"	971	3	3	3	0.308	1
601	2	2	21	"m"	"r"	972	11	2	1	0.20048	0
601	2	2	21	"m"	"r"	973	3	3	3	0.41677	1
601	2	2	21	"m"	"r"	974	11	2	2	0.55986	1
601	2	2	21	"m"	"r"	975	33	1	1	1.4401	1
601	2	2	21	"m"	"r"	976	2	2	2	0.35917	1
601	2	2	21	"m"	"r"	977	3	3	3	0.38331	1
601	2	2	21	"m"	"r"	978	1	1	1	0.35211	1
601	2	2	21	"m"	"r"	979	2	2	2	0.48895	1
601	2	2	21	"m"	"r"	980	3	3	3	1.1028	1
601	2	2	21	"m"	"r"	981	1	1	1	0.38738	1
601	2	2	21	"m"	"r"	982	2	2	2	0.27289	1
601	2	2	21	"m"	"r"	983	3	3	3	0.40767	1
601	2	2	21	"m"	"r"	984	1	1	1	0.4331	1
601	2	2	21	"m"	"r"	985	22	3	3	0.80824	1
601	2	2	21	"m"	"r"	986	1	1	1	0.38448	1
601	2	2	21	"m"	"r"	987	2	2	2	0.36763	1
601	2	2	21	"m"	"r"	988	3	3	3	0.31998	1
601	2	2	21	"m"	"r"	989	1	1	1	0.40138	1
601	2	2	21	"m"	"r"	990	2	2	2	1.5298	1
601	2	2	21	"m"	"r"	991	33	1	1	0.37004	1
601	2	2	21	"m"	"r"	992	2	2	2	0.43214	1
601	2	2	21	"m"	"r"	993	3	3	3	0.32753	1
601	2	2	21	"m"	"r"	994	11	2	2	0.56107	1
601	2	2	21	"m"	"r"	995	3	3	3	0.61168	1
601	2	2	21	"m"	"r"	996	1	1	1	0.36004	1
601	2	2	21	"m"	"r"	997	22	3	3	0.48937	1
601	2	2	21	"m"	"r"	998	11	2	2	0.31106	1
601	2	2	21	"m"	"r"	999	3	3	3	0.5745	1
601	2	2	21	"m"	"r"	1000	1	1	1	2.5184	1
601	2	2	21	"m"	"r"	1001	2	2	2	0.44263	1
601	2	2	21	"m"	"r"	1002	3	3	3	0.29556	1
601	2	2	21	"m"	"r"	1003	1	1	1	0.40836	1
601	2	2	21	"m"	"r"	1004	2	2	2	0.34551	1
601	2	2	21	"m"	"r"	1005	33	1	1	0.73367	1
601	2	2	21	"m"	"r"	1006	22	3	3	0.36062	1
601	2	2	21	"m"	"r"	1007	1	1	1	0.37609	1
601	2	2	21	"m"	"r"	1008	2	2	2	0.28824	1
601	2	2	21	"m"	"r"	1009	3	3	3	0.37538	1
601	2	2	21	"m"	"r"	1010	1	1	1	1.1923	1
601	2	2	21	"m"	"r"	1011	22	3	3	0.37667	1
601	2	2	21	"m"	"r"	1012	1	1	1	0.26379	1
601	2	2	21	"m"	"r"	1013	2	2	2	0.26462	1
601	2	2	21	"m"	"r"	1014	3	3	3	0.32916	1
601	2	2	21	"m"	"r"	1015	1	1	1	0.38424	1
601	2	2	21	"m"	"r"	1016	2	2	2	0.45491	1
601	2	2	21	"m"	"r"	1017	3	3	3	0.30405	1
601	2	2	21	"m"	"r"	1018	11	2	2	0.42632	1
601	2	2	21	"m"	"r"	1019	33	1	1	0.30984	1
601	2	2	21	"m"	"r"	1020	2	2	2	0.32545	1
601	2	2	21	"m"	"r"	1021	3	3	3	0.43613	1
601	2	2	21	"m"	"r"	1022	11	2	2	0.43888	1
601	2	2	21	"m"	"r"	1023	3	3	3	0.35123	1
601	2	2	21	"m"	"r"	1024	1	1	1	0.3603	1
601	2	2	21	"m"	"r"	1025	2	2	2	0.3131	1
601	2	2	21	"m"	"r"	1026	33	1	1	1.2221	1
601	2	2	21	"m"	"r"	1027	2	2	2	0.37017	1
601	2	2	21	"m"	"r"	1028	3	3	3	0.35331	1
601	2	2	21	"m"	"r"	1029	1	1	1	0.46389	1
601	2	2	21	"m"	"r"	1030	2	2	2	0.39522	1
601	2	2	21	"m"	"r"	1031	3	3	3	1.0848	1
601	2	2	21	"m"	"r"	1032	1	1	1	0.34512	1
601	2	2	21	"m"	"r"	1033	22	3	2	0.48932	0
601	2	2	21	"m"	"r"	1034	1	1	1	0.58178	1
601	2	2	21	"m"	"r"	1035	2	2	2	0.33103	1
601	2	2	21	"m"	"r"	1036	3	3	3	0.68576	1
601	2	2	21	"m"	"r"	1037	11	2	2	0.48322	1
601	2	2	21	"m"	"r"	1038	3	3	3	0.46436	1
601	2	2	21	"m"	"r"	1039	1	1	1	0.34382	1
601	2	2	21	"m"	"r"	1040	22	3	3	0.53651	1
601	2	2	21	"m"	"r"	1041	1	1	1	0.4161	1
601	2	2	21	"m"	"r"	1042	2	2	2	0.34141	1
601	2	2	21	"m"	"r"	1043	33	1	1	0.39895	1
601	2	2	21	"m"	"r"	1044	2	2	2	0.32715	1
601	2	2	21	"m"	"r"	1045	3	3	3	0.33001	1
601	2	2	21	"m"	"r"	1046	1	1	1	1.1998	1
601	2	2	21	"m"	"r"	1047	2	2	2	0.22787	1
601	2	2	21	"m"	"r"	1048	33	1	1	0.50595	1
601	2	2	21	"m"	"r"	1049	2	2	2	0.27214	1
601	2	2	21	"m"	"r"	1050	3	3	3	0.35982	1
601	2	2	21	"m"	"r"	1051	11	2	2	1.1432	1
601	2	2	21	"m"	"r"	1052	3	3	3	0.52023	1
601	2	2	21	"m"	"r"	1053	1	1	1	0.3279	1
601	2	2	21	"m"	"r"	1054	22	3	3	0.42482	1
601	2	2	21	"m"	"r"	1055	1	1	1	0.49681	1
601	2	2	21	"m"	"r"	1056	2	2	2	1.9624	1
601	2	2	21	"m"	"r"	1057	3	3	3	0.35325	1
601	2	2	21	"m"	"r"	1058	1	1	1	0.31972	1
601	2	2	21	"m"	"r"	1059	22	3	3	0.34373	1
601	2	2	21	"m"	"r"	1060	1	1	1	0.72155	1
601	2	2	21	"m"	"r"	1061	2	2	2	0.69607	1
601	2	2	21	"m"	"r"	1062	3	3	3	0.29515	1
601	2	2	21	"m"	"r"	1063	1	1	1	0.26375	1
601	2	2	21	"m"	"r"	1064	2	2	2	0.28115	1
601	2	2	21	"m"	"r"	1065	33	1	1	0.38188	1
601	2	2	21	"m"	"r"	1066	2	2	2	0.38533	1
601	2	2	21	"m"	"r"	1067	3	3	3	0.55125	1
601	2	2	21	"m"	"r"	1068	11	2	2	0.31251	1
601	2	2	21	"m"	"r"	1069	3	3	3	0.34284	1
601	2	2	21	"m"	"r"	1070	1	1	1	0.3918	1
601	2	2	21	"m"	"r"	1071	22	3	3	0.44131	1
601	2	2	21	"m"	"r"	1072	1	1	1	0.87485	1
601	2	2	21	"m"	"r"	1073	2	2	2	0.22671	1
601	2	2	21	"m"	"r"	1074	3	3	3	0.30239	1
601	2	2	21	"m"	"r"	1075	11	2	2	0.36854	1
601	2	2	21	"m"	"r"	1076	3	3	3	0.39112	1
601	2	2	21	"m"	"r"	1077	1	1	1	1.0004	1
601	2	2	21	"m"	"r"	1078	2	2	2	0.35313	1
601	2	2	21	"m"	"r"	1079	33	1	3	0.36632	0
601	2	2	21	"m"	"r"	1080	2	2	2	0.39964	1
601	2	2	21	"m"	"r"	1081	3	3	3	0.40981	1
601	2	2	21	"m"	"r"	1082	1	1	1	0.92733	1
601	2	2	21	"m"	"r"	1083	22	3	3	0.37181	1
601	2	2	21	"m"	"r"	1084	1	1	1	0.56863	1
601	2	2	21	"m"	"r"	1085	2	2	2	0.28993	1
601	2	2	21	"m"	"r"	1086	33	1	1	0.45498	1
601	2	2	21	"m"	"r"	1087	2	2	2	1.0652	1
601	2	2	21	"m"	"r"	1088	3	3	3	0.38267	1
601	2	2	21	"m"	"r"	1089	1	1	1	0.29517	1
601	2	2	21	"m"	"r"	1090	2	2	2	0.2743	1
601	2	2	21	"m"	"r"	1091	3	3	3	0.30268	1
601	2	2	21	"m"	"r"	1092	11	2	2	1.1337	1
601	2	2	21	"m"	"r"	1093	3	3	3	0.43178	1
601	2	2	21	"m"	"r"	1094	1	1	1	0.32085	1
601	2	2	21	"m"	"r"	1095	2	2	2	0.31085	1
601	2	2	21	"m"	"r"	1096	3	3	3	0.32923	1
601	2	2	21	"m"	"r"	1097	1	1	1	1.0243	1
601	2	2	21	"m"	"r"	1098	22	3	3	0.36064	1
601	2	2	21	"m"	"r"	1099	1	1	1	0.44694	1
601	2	2	21	"m"	"r"	1100	2	2	2	0.28868	1
601	2	2	21	"m"	"r"	1101	33	1	1	0.51294	1
601	2	2	21	"m"	"r"	1102	2	2	2	0.67127	1
601	2	2	21	"m"	"r"	1103	3	3	3	0.35145	1
601	2	2	21	"m"	"r"	1104	11	2	2	0.48141	1
601	2	2	21	"m"	"r"	1105	3	3	3	0.34236	1
601	2	2	21	"m"	"r"	1106	1	1	2	0.36026	0
601	2	2	21	"m"	"r"	1107	22	3	3	0.46564	1
601	2	2	21	"m"	"r"	1108	1	1	1	0.36474	1
601	2	2	21	"m"	"r"	1109	2	2	2	0.29182	1
601	2	2	21	"m"	"r"	1110	3	3	3	0.38393	1
601	2	2	21	"m"	"r"	1111	11	2	2	0.39113	1
601	2	2	21	"m"	"r"	1112	3	3	3	0.41541	1
601	2	2	21	"m"	"r"	1113	1	1	1	0.77403	1
601	2	2	21	"m"	"r"	1114	2	2	2	0.28017	1
601	2	2	21	"m"	"r"	1115	33	1	1	0.40674	1
601	2	2	21	"m"	"r"	1116	2	2	2	0.25657	1
601	2	2	21	"m"	"r"	1117	3	3	3	0.27849	1
601	2	2	21	"m"	"r"	1118	11	2	2	1.2499	1
601	2	2	21	"m"	"r"	1119	3	3	3	0.2946	1
601	2	2	21	"m"	"r"	1120	1	1	1	0.36875	1
601	2	2	21	"m"	"r"	1121	2	2	2	0.31934	1
602	3	1	19	"f"	"r"	1	0	3	3	1.1812	1
602	3	1	19	"f"	"r"	2	1	1	1	0.58795	1
602	3	1	19	"f"	"r"	3	2	2	2	0.58327	1
602	3	1	19	"f"	"r"	4	3	3	3	0.6166	1
602	3	1	19	"f"	"r"	5	1	1	1	0.40001	1
602	3	1	19	"f"	"r"	6	2	2	2	0.70856	1
602	3	1	19	"f"	"r"	7	3	3	3	0.87196	1
602	3	1	19	"f"	"r"	8	11	2	2	0.32082	1
602	3	1	19	"f"	"r"	9	33	1	1	0.4485	1
602	3	1	19	"f"	"r"	10	22	3	3	0.79172	1
602	3	1	19	"f"	"r"	11	1	1	1	0.51668	1
602	3	1	19	"f"	"r"	12	2	2	2	1.6666	1
602	3	1	19	"f"	"r"	13	3	3	3	0.38368	1
602	3	1	19	"f"	"r"	14	1	1	1	0.31413	1
602	3	1	19	"f"	"r"	15	22	3	3	0.56654	1
602	3	1	19	"f"	"r"	16	11	2	2	0.49755	1
602	3	1	19	"f"	"r"	17	33	1	1	0.69986	1
602	3	1	19	"f"	"r"	18	2	2	2	0.43326	1
602	3	1	19	"f"	"r"	19	3	3	3	0.45019	1
602	3	1	19	"f"	"r"	20	1	1	1	1.5713	1
602	3	1	19	"f"	"r"	21	2	2	2	0.38208	1
602	3	1	19	"f"	"r"	22	3	3	3	0.28823	1
602	3	1	19	"f"	"r"	23	1	1	1	0.44815	1
602	3	1	19	"f"	"r"	24	2	2	2	0.37612	1
602	3	1	19	"f"	"r"	25	3	3	3	1.1113	1
602	3	1	19	"f"	"r"	26	1	1	1	1.0007	1
602	3	1	19	"f"	"r"	27	22	3	3	0.84942	1
602	3	1	19	"f"	"r"	28	11	2	2	3.1602	1
602	3	1	19	"f"	"r"	29	3	3	3	0.31669	1
602	3	1	19	"f"	"r"	30	1	1	1	0.28333	1
602	3	1	19	"f"	"r"	31	2	2	2	0.48329	1
602	3	1	19	"f"	"r"	32	3	3	3	0.69773	1
602	3	1	19	"f"	"r"	33	1	1	1	0.33516	1
602	3	1	19	"f"	"r"	34	2	2	2	0.32824	1
602	3	1	19	"f"	"r"	35	33	1	1	0.86523	1
602	3	1	19	"f"	"r"	36	2	2	2	7.2478	1
602	3	1	19	"f"	"r"	37	3	3	3	0.33707	1
602	3	1	19	"f"	"r"	38	1	1	1	0.2719	1
602	3	1	19	"f"	"r"	39	2	2	2	0.52946	1
602	3	1	19	"f"	"r"	40	3	3	3	0.70889	1
602	3	1	19	"f"	"r"	41	11	2	1	0.35005	0
602	3	1	19	"f"	"r"	42	3	3	3	0.5166	1
602	3	1	19	"f"	"r"	43	1	1	1	0.36675	1
602	3	1	19	"f"	"r"	44	22	3	3	0.73383	1
602	3	1	19	"f"	"r"	45	1	1	1	0.58314	1
602	3	1	19	"f"	"r"	46	2	2	2	0.3532	1
602	3	1	19	"f"	"r"	47	33	1	1	0.88051	1
602	3	1	19	"f"	"r"	48	2	2	2	1.5992	1
602	3	1	19	"f"	"r"	49	3	3	3	0.35912	1
602	3	1	19	"f"	"r"	50	1	1	1	0.4178	1
602	3	1	19	"f"	"r"	51	2	2	2	0.47993	1
602	3	1	19	"f"	"r"	52	3	3	3	0.40906	1
602	3	1	19	"f"	"r"	53	11	2	2	0.83055	1
602	3	1	19	"f"	"r"	54	3	3	3	0.38548	1
602	3	1	19	"f"	"r"	55	1	1	1	0.32715	1
602	3	1	19	"f"	"r"	56	2	2	2	0.32172	1
602	3	1	19	"f"	"r"	57	33	1	1	0.51822	1
602	3	1	19	"f"	"r"	58	22	3	3	0.77598	1
602	3	1	19	"f"	"r"	59	1	1	1	0.43328	1
602	3	1	19	"f"	"r"	60	2	2	2	0.73339	1
602	3	1	19	"f"	"r"	61	3	3	3	0.36677	1
602	3	1	19	"f"	"r"	62	11	2	2	0.58311	1
602	3	1	19	"f"	"r"	63	33	1	1	0.41852	1
602	3	1	19	"f"	"r"	64	2	2	2	0.30486	1
602	3	1	19	"f"	"r"	65	3	3	3	0.3592	1
602	3	1	19	"f"	"r"	66	1	1	1	0.39116	1
602	3	1	19	"f"	"r"	67	2	2	2	0.48823	1
602	3	1	19	"f"	"r"	68	3	3	3	0.28798	1
602	3	1	19	"f"	"r"	69	1	1	1	0.32943	1
602	3	1	19	"f"	"r"	70	22	3	3	0.37524	1
602	3	1	19	"f"	"r"	71	1	1	1	0.70458	1
602	3	1	19	"f"	"r"	72	2	2	2	1.2474	1
602	3	1	19	"f"	"r"	73	3	3	3	0.32968	1
602	3	1	19	"f"	"r"	74	1	1	1	0.26337	1
602	3	1	19	"f"	"r"	75	2	2	2	0.33097	1
602	3	1	19	"f"	"r"	76	33	1	1	0.62554	1
602	3	1	19	"f"	"r"	77	2	2	2	0.61588	1
602	3	1	19	"f"	"r"	78	3	3	3	0.31198	1
602	3	1	19	"f"	"r"	79	1	1	1	0.28792	1
602	3	1	19	"f"	"r"	80	2	2	2	0.39966	1
602	3	1	19	"f"	"r"	81	3	3	3	0.43639	1
602	3	1	19	"f"	"r"	82	1	1	1	1.1911	1
602	3	1	19	"f"	"r"	83	22	3	2	0.27183	0
602	3	1	19	"f"	"r"	84	11	2	2	0.72083	1
602	3	1	19	"f"	"r"	85	3	3	3	0.31231	1
602	3	1	19	"f"	"r"	86	1	1	1	0.53306	1
602	3	1	19	"f"	"r"	87	2	2	2	0.71486	1
602	3	1	19	"f"	"r"	88	3	3	3	0.34236	1
602	3	1	19	"f"	"r"	89	1	1	1	0.35303	1
602	3	1	19	"f"	"r"	90	2	2	2	0.26477	1
602	3	1	19	"f"	"r"	91	3	3	3	0.29517	1
602	3	1	19	"f"	"r"	92	11	2	2	0.61608	1
602	3	1	19	"f"	"r"	93	33	1	1	0.40174	1
602	3	1	19	"f"	"r"	94	22	3	3	0.43909	1
602	3	1	19	"f"	"r"	95	1	1	1	0.46428	1
602	3	1	19	"f"	"r"	96	2	2	2	0.40225	1
602	3	1	19	"f"	"r"	97	3	3	3	0.51971	1
602	3	1	19	"f"	"r"	98	11	2	2	0.65467	1
602	3	1	19	"f"	"r"	99	3	3	3	0.43896	1
602	3	1	19	"f"	"r"	100	1	1	1	0.26557	1
602	3	1	19	"f"	"r"	101	2	2	2	0.29585	1
602	3	1	19	"f"	"r"	102	3	3	3	0.29672	1
602	3	1	19	"f"	"r"	103	1	1	1	0.27118	1
602	3	1	19	"f"	"r"	104	2	2	2	0.47894	1
602	3	1	19	"f"	"r"	105	33	1	1	0.56675	1
602	3	1	19	"f"	"r"	106	22	3	3	0.50357	1
602	3	1	19	"f"	"r"	107	1	1	1	0.43176	1
602	3	1	19	"f"	"r"	108	2	2	2	0.35956	1
602	3	1	19	"f"	"r"	109	3	3	3	0.43627	1
602	3	1	19	"f"	"r"	110	1	1	1	0.6555	1
602	3	1	19	"f"	"r"	111	2	2	2	0.30421	1
602	3	1	19	"f"	"r"	112	3	3	3	0.25504	1
602	3	1	19	"f"	"r"	113	1	1	1	0.54529	1
602	3	1	19	"f"	"r"	114	22	3	3	0.66401	1
602	3	1	19	"f"	"r"	115	11	2	2	0.47182	1
602	3	1	19	"f"	"r"	116	33	1	1	0.50374	1
602	3	1	19	"f"	"r"	117	2	2	2	0.35993	1
602	3	1	19	"f"	"r"	118	3	3	3	0.28781	1
602	3	1	19	"f"	"r"	119	1	1	1	0.42606	1
602	3	1	19	"f"	"r"	120	2	2	2	0.93449	1
602	3	1	19	"f"	"r"	121	3	3	3	0.41178	1
602	3	1	19	"f"	"r"	122	1	1	1	0.36121	1
602	3	1	19	"f"	"r"	123	2	2	2	0.27109	1
602	3	1	19	"f"	"r"	124	33	1	1	0.43214	1
602	3	1	19	"f"	"r"	125	2	2	2	0.30616	1
602	3	1	19	"f"	"r"	126	3	3	3	0.43704	1
602	3	1	19	"f"	"r"	127	11	2	1	1.1803	0
602	3	1	19	"f"	"r"	128	3	3	3	0.81528	1
602	3	1	19	"f"	"r"	129	1	1	1	0.39346	1
602	3	1	19	"f"	"r"	130	2	2	2	0.35177	1
602	3	1	19	"f"	"r"	131	3	3	3	1.0721	1
602	3	1	19	"f"	"r"	132	1	1	1	0.58482	1
602	3	1	19	"f"	"r"	133	22	3	3	0.55992	1
602	3	1	19	"f"	"r"	134	11	2	2	0.31958	1
602	3	1	19	"f"	"r"	135	3	3	3	0.41624	1
602	3	1	19	"f"	"r"	136	1	1	1	0.48573	1
602	3	1	19	"f"	"r"	137	2	2	2	1.6155	1
602	3	1	19	"f"	"r"	138	3	3	3	0.28771	1
602	3	1	19	"f"	"r"	139	1	1	1	0.31198	1
602	3	1	19	"f"	"r"	140	22	3	3	0.99901	1
602	3	1	19	"f"	"r"	141	1	1	1	2.7453	1
602	3	1	19	"f"	"r"	142	2	2	2	0.26453	1
602	3	1	19	"f"	"r"	143	33	1	1	0.35936	1
602	3	1	19	"f"	"r"	144	2	2	2	0.34602	1
602	3	1	19	"f"	"r"	145	3	3	3	0.82239	1
602	3	1	19	"f"	"r"	146	11	2	2	0.70409	1
602	3	1	19	"f"	"r"	147	3	3	3	0.32908	1
602	3	1	19	"f"	"r"	148	1	1	1	0.41495	1
602	3	1	19	"f"	"r"	149	2	2	2	1.4246	1
602	3	1	19	"f"	"r"	150	33	1	1	0.51288	1
602	3	1	19	"f"	"r"	151	22	3	3	0.30457	1
602	3	1	19	"f"	"r"	152	1	1	1	0.38459	1
602	3	1	19	"f"	"r"	153	2	2	2	0.39173	1
602	3	1	19	"f"	"r"	154	3	3	3	0.71915	1
602	3	1	19	"f"	"r"	155	1	1	1	0.35226	1
602	3	1	19	"f"	"r"	156	2	2	2	0.31954	1
602	3	1	19	"f"	"r"	157	3	3	3	0.27974	1
602	3	1	19	"f"	"r"	158	11	2	2	0.72041	1
602	3	1	19	"f"	"r"	159	33	1	1	0.64787	1
602	3	1	19	"f"	"r"	160	2	2	2	0.40003	1
602	3	1	19	"f"	"r"	161	3	3	3	0.30409	1
602	3	1	19	"f"	"r"	162	1	1	1	0.44142	1
602	3	1	19	"f"	"r"	163	22	3	3	1.7757	1
602	3	1	19	"f"	"r"	164	1	1	1	0.47233	1
602	3	1	19	"f"	"r"	165	2	2	2	0.28771	1
602	3	1	19	"f"	"r"	166	3	3	3	0.36959	1
602	3	1	19	"f"	"r"	167	1	1	1	0.82333	1
602	3	1	19	"f"	"r"	168	2	2	2	0.65718	1
602	3	1	19	"f"	"r"	169	3	3	3	0.32853	1
602	3	1	19	"f"	"r"	170	1	1	1	0.29501	1
602	3	1	19	"f"	"r"	171	2	2	2	0.47263	1
602	3	1	19	"f"	"r"	172	3	3	3	1.8638	1
602	3	1	19	"f"	"r"	173	11	2	2	0.62451	1
602	3	1	19	"f"	"r"	174	3	3	3	0.31067	1
602	3	1	19	"f"	"r"	175	1	1	1	0.48087	1
602	3	1	19	"f"	"r"	176	22	3	3	1.44	1
602	3	1	19	"f"	"r"	177	1	1	1	0.36822	1
602	3	1	19	"f"	"r"	178	2	2	2	0.41619	1
602	3	1	19	"f"	"r"	179	33	1	1	1.2154	1
602	3	1	19	"f"	"r"	180	2	2	2	0.55858	1
602	3	1	19	"f"	"r"	181	3	3	3	0.40944	1
602	3	1	19	"f"	"r"	182	1	1	1	0.46593	1
602	3	1	19	"f"	"r"	183	2	2	2	0.25513	1
602	3	1	19	"f"	"r"	184	33	1	1	2.7929	1
602	3	1	19	"f"	"r"	185	2	2	2	0.31206	1
602	3	1	19	"f"	"r"	186	3	3	3	0.25487	1
602	3	1	19	"f"	"r"	187	1	1	1	0.33632	1
602	3	1	19	"f"	"r"	188	22	3	3	0.49807	1
602	3	1	19	"f"	"r"	189	1	1	1	2.4304	1
602	3	1	19	"f"	"r"	190	2	2	2	0.28069	1
602	3	1	19	"f"	"r"	191	3	3	3	0.28135	1
602	3	1	19	"f"	"r"	192	11	2	2	0.87195	1
602	3	1	19	"f"	"r"	193	3	3	3	2.1273	1
602	3	1	19	"f"	"r"	194	1	1	1	0.44834	1
602	3	1	19	"f"	"r"	195	2	2	2	0.32076	1
602	3	1	19	"f"	"r"	196	33	1	1	0.47278	1
602	3	1	19	"f"	"r"	197	22	3	3	0.62374	1
602	3	1	19	"f"	"r"	198	11	2	2	0.64829	1
602	3	1	19	"f"	"r"	199	3	3	3	0.40744	1
602	3	1	19	"f"	"r"	200	1	1	1	0.28819	1
602	3	1	19	"f"	"r"	201	2	2	2	0.63259	1
602	3	1	19	"f"	"r"	202	3	3	3	1.601	1
602	3	1	19	"f"	"r"	203	1	1	1	0.29504	1
602	3	1	19	"f"	"r"	204	2	2	2	0.31218	1
602	3	1	19	"f"	"r"	205	3	3	3	0.43292	1
602	3	1	19	"f"	"r"	206	1	1	1	0.70511	1
602	3	1	19	"f"	"r"	207	2	2	2	0.51042	1
602	3	1	19	"f"	"r"	208	3	3	3	0.34488	1
602	3	1	19	"f"	"r"	209	1	1	1	0.31964	1
602	3	1	19	"f"	"r"	210	2	2	2	0.24937	1
602	3	1	19	"f"	"r"	211	3	3	3	0.27852	1
602	3	1	19	"f"	"r"	212	1	1	1	0.40113	1
602	3	1	19	"f"	"r"	213	2	2	2	0.78779	1
602	3	1	19	"f"	"r"	214	3	3	3	0.26412	1
602	3	1	19	"f"	"r"	215	11	2	1	0.25706	0
602	3	1	19	"f"	"r"	216	33	1	1	0.47838	1
602	3	1	19	"f"	"r"	217	3	3	3	0.58057	1
602	3	1	19	"f"	"r"	218	1	1	1	0.84797	1
602	3	1	19	"f"	"r"	219	22	3	2	0.38482	0
602	3	1	19	"f"	"r"	220	11	2	2	0.40026	1
602	3	1	19	"f"	"r"	221	3	3	3	0.45504	1
602	3	1	19	"f"	"r"	222	1	1	1	0.42278	1
602	3	1	19	"f"	"r"	223	2	2	2	0.45741	1
602	3	1	19	"f"	"r"	224	33	1	1	0.93336	1
602	3	1	19	"f"	"r"	225	2	2	2	0.54657	1
602	3	1	19	"f"	"r"	226	3	3	3	0.36878	1
602	3	1	19	"f"	"r"	227	1	1	1	0.5748	1
602	3	1	19	"f"	"r"	228	2	2	2	0.48973	1
602	3	1	19	"f"	"r"	229	22	3	3	0.39807	1
602	3	1	19	"f"	"r"	230	1	1	1	0.35403	1
602	3	1	19	"f"	"r"	231	2	2	2	0.29467	1
602	3	1	19	"f"	"r"	232	3	3	3	0.32787	1
602	3	1	19	"f"	"r"	233	1	1	1	0.87335	1
602	3	1	19	"f"	"r"	234	2	2	2	0.35231	1
602	3	1	19	"f"	"r"	235	33	1	1	0.47266	1
602	3	1	19	"f"	"r"	236	2	2	2	0.29521	1
602	3	1	19	"f"	"r"	237	3	3	3	0.36854	1
602	3	1	19	"f"	"r"	238	11	2	2	0.84748	1
602	3	1	19	"f"	"r"	239	3	3	3	0.29663	1
602	3	1	19	"f"	"r"	240	1	1	1	0.27267	1
602	3	1	19	"f"	"r"	241	22	3	3	0.44768	1
602	3	1	19	"f"	"r"	242	11	2	2	0.84192	1
602	3	1	19	"f"	"r"	243	3	3	3	0.55864	1
602	3	1	19	"f"	"r"	244	1	1	1	0.29677	1
602	3	1	19	"f"	"r"	245	2	2	2	0.40924	1
602	3	1	19	"f"	"r"	246	33	1	1	0.5029	1
602	3	1	19	"f"	"r"	247	22	3	3	0.91167	1
602	3	1	19	"f"	"r"	248	1	1	1	0.60056	1
602	3	1	19	"f"	"r"	249	2	2	2	0.52998	1
602	3	1	19	"f"	"r"	250	3	3	3	0.25413	1
602	3	1	19	"f"	"r"	251	1	1	1	0.57705	1
602	3	1	19	"f"	"r"	252	2	2	2	1.495	1
602	3	1	19	"f"	"r"	253	22	3	3	0.29675	1
602	3	1	19	"f"	"r"	254	11	2	1	0.36071	0
602	3	1	19	"f"	"r"	255	3	3	3	0.56094	1
602	3	1	19	"f"	"r"	256	1	1	1	0.99234	1
602	3	1	19	"f"	"r"	257	2	2	2	0.58474	1
602	3	1	19	"f"	"r"	258	33	1	1	0.51148	1
602	3	1	19	"f"	"r"	259	2	2	2	0.44674	1
602	3	1	19	"f"	"r"	260	3	3	3	0.47699	1
602	3	1	19	"f"	"r"	261	1	1	1	0.8367	1
602	3	1	19	"f"	"r"	262	22	3	3	0.47175	1
602	3	1	19	"f"	"r"	263	1	1	1	0.40928	1
602	3	1	19	"f"	"r"	264	2	2	2	0.3918	1
602	3	1	19	"f"	"r"	265	22	3	3	2.0909	1
602	3	1	19	"f"	"r"	266	1	1	1	0.37718	1
602	3	1	19	"f"	"r"	267	22	3	3	0.55929	1
602	3	1	19	"f"	"r"	268	1	1	1	0.42523	1
602	3	1	19	"f"	"r"	269	2	2	2	0.58366	1
602	3	1	19	"f"	"r"	270	3	3	3	0.51307	1
602	3	1	19	"f"	"r"	271	11	2	3	0.53658	0
602	3	1	19	"f"	"r"	272	3	3	3	0.335	1
602	3	1	19	"f"	"r"	273	1	1	1	0.4412	1
602	3	1	19	"f"	"r"	274	2	2	2	0.40665	1
602	3	1	19	"f"	"r"	275	33	1	1	0.56078	1
602	3	1	19	"f"	"r"	276	2	2	2	0.34269	1
602	3	1	19	"f"	"r"	277	3	3	3	0.29709	1
602	3	1	19	"f"	"r"	278	1	1	1	0.47223	1
602	3	1	19	"f"	"r"	279	2	2	2	1.0257	1
602	3	1	19	"f"	"r"	280	3	3	3	1.0024	1
602	3	1	19	"f"	"r"	281	11	2	2	0.33663	1
602	3	1	19	"f"	"r"	282	3	3	3	0.32848	1
602	3	1	19	"f"	"r"	283	1	1	1	0.63635	1
602	3	1	19	"f"	"r"	284	2	2	2	1.8363	1
602	3	1	19	"f"	"r"	285	3	3	3	0.31944	1
602	3	1	19	"f"	"r"	286	1	1	1	0.67297	1
602	3	1	19	"f"	"r"	287	2	2	2	1.5189	1
602	3	1	19	"f"	"r"	288	33	1	3	0.45554	0
602	3	1	19	"f"	"r"	289	22	3	3	0.30443	1
602	3	1	19	"f"	"r"	290	1	1	1	0.38487	1
602	3	1	19	"f"	"r"	291	22	3	3	0.79259	1
602	3	1	19	"f"	"r"	292	11	2	2	0.44831	1
602	3	1	19	"f"	"r"	293	3	3	3	0.3513	1
602	3	1	19	"f"	"r"	294	1	1	1	0.38487	1
602	3	1	19	"f"	"r"	295	2	2	2	0.38418	1
602	3	1	19	"f"	"r"	296	3	3	3	1.432	1
602	3	1	19	"f"	"r"	297	1	1	1	0.29578	1
602	3	1	19	"f"	"r"	298	2	2	2	0.35203	1
602	3	1	19	"f"	"r"	299	33	1	1	0.71155	1
602	3	1	19	"f"	"r"	300	2	2	2	1.2907	1
602	3	1	19	"f"	"r"	301	3	3	3	0.43816	1
602	3	1	19	"f"	"r"	302	1	1	1	0.29597	1
602	3	1	19	"f"	"r"	303	2	2	2	3.6986	1
602	3	1	19	"f"	"r"	304	33	1	1	0.38273	1
602	3	1	19	"f"	"r"	305	2	2	2	0.45497	1
602	3	1	19	"f"	"r"	306	3	3	3	2.1059	1
602	3	1	19	"f"	"r"	307	1	1	1	0.40697	1
602	3	1	19	"f"	"r"	308	22	3	3	0.53643	1
602	3	1	19	"f"	"r"	309	1	1	1	0.62409	1
602	3	1	19	"f"	"r"	310	2	2	2	0.99317	1
602	3	1	19	"f"	"r"	311	3	3	3	0.47843	1
602	3	1	19	"f"	"r"	312	11	2	2	0.44012	1
602	3	1	19	"f"	"r"	313	3	3	3	0.43151	1
602	3	1	19	"f"	"r"	314	11	2	2	2.24	1
602	3	1	19	"f"	"r"	315	3	3	3	0.39216	1
602	3	1	19	"f"	"r"	316	1	1	1	0.29635	1
602	3	1	19	"f"	"r"	317	2	2	2	0.44813	1
602	3	1	19	"f"	"r"	318	3	3	3	1.4886	1
602	3	1	19	"f"	"r"	319	1	1	1	0.47891	1
602	3	1	19	"f"	"r"	320	2	2	2	0.33822	1
602	3	1	19	"f"	"r"	321	33	1	1	2.43	1
602	3	1	19	"f"	"r"	322	22	3	3	0.40163	1
602	3	1	19	"f"	"r"	323	1	1	1	0.40802	1
602	3	1	19	"f"	"r"	324	2	2	2	0.88945	1
602	3	1	19	"f"	"r"	325	3	3	3	1.1272	1
602	3	1	19	"f"	"r"	326	1	1	1	0.40707	1
602	3	1	19	"f"	"r"	327	2	2	2	0.36234	1
602	3	1	19	"f"	"r"	328	3	3	3	0.49474	1
602	3	1	19	"f"	"r"	329	1	1	1	1.4082	1
602	3	1	19	"f"	"r"	330	22	3	3	0.37623	1
602	3	1	19	"f"	"r"	331	11	2	2	0.29653	1
602	3	1	19	"f"	"r"	332	3	3	3	4.6796	1
602	3	1	19	"f"	"r"	333	1	1	1	0.46266	1
602	3	1	19	"f"	"r"	334	2	2	2	0.28023	1
602	3	1	19	"f"	"r"	335	33	1	1	0.54748	1
602	3	1	19	"f"	"r"	336	2	2	2	0.59725	1
602	3	1	19	"f"	"r"	337	3	3	3	0.73263	1
602	3	1	19	"f"	"r"	338	1	1	1	0.44153	1
602	3	1	19	"f"	"r"	339	2	2	2	0.3042	1
602	3	1	19	"f"	"r"	340	33	1	1	2.0238	1
602	3	1	19	"f"	"r"	341	22	3	3	1.7607	1
602	3	1	19	"f"	"r"	342	1	1	1	0.28858	1
602	3	1	19	"f"	"r"	343	2	2	2	0.34506	1
602	3	1	19	"f"	"r"	344	3	3	3	0.62526	1
602	3	1	19	"f"	"r"	345	11	2	2	1.0545	1
602	3	1	19	"f"	"r"	346	3	3	3	0.31927	1
602	3	1	19	"f"	"r"	347	1	1	1	0.26443	1
602	3	1	19	"f"	"r"	348	2	2	2	0.28698	1
602	3	1	19	"f"	"r"	349	3	3	3	0.48699	1
602	3	1	19	"f"	"r"	350	1	1	1	1.7327	1
602	3	1	19	"f"	"r"	351	2	2	2	0.27465	1
602	3	1	19	"f"	"r"	352	33	1	1	0.51008	1
602	3	1	19	"f"	"r"	353	2	2	2	0.83913	1
602	3	1	19	"f"	"r"	354	3	3	3	0.74267	1
602	3	1	19	"f"	"r"	355	1	1	1	0.36894	1
602	3	1	19	"f"	"r"	356	2	2	2	0.31964	1
602	3	1	19	"f"	"r"	357	3	3	3	4.2277	1
602	3	1	19	"f"	"r"	358	1	1	1	0.34275	1
602	3	1	19	"f"	"r"	359	22	3	3	0.68064	1
602	3	1	19	"f"	"r"	360	11	2	2	1.4154	1
602	3	1	19	"f"	"r"	361	3	3	3	0.29794	1
602	3	1	19	"f"	"r"	362	1	1	1	0.27146	1
602	3	1	19	"f"	"r"	363	2	2	2	4.7218	1
602	3	1	19	"f"	"r"	364	3	3	3	0.40606	1
602	3	1	19	"f"	"r"	365	1	1	1	1.8316	1
602	3	1	19	"f"	"r"	366	2	2	2	0.26555	1
602	3	1	19	"f"	"r"	367	3	3	3	0.271	1
602	3	1	19	"f"	"r"	368	11	2	2	0.43287	1
602	3	1	19	"f"	"r"	369	33	1	1	0.42505	1
602	3	1	19	"f"	"r"	370	2	2	2	0.18834	1
602	3	1	19	"f"	"r"	371	3	3	3	0.45892	1
602	3	1	19	"f"	"r"	372	1	1	1	0.3132	1
602	3	1	19	"f"	"r"	373	22	3	3	0.43188	1
602	3	1	19	"f"	"r"	374	1	1	1	0.48917	1
602	3	1	19	"f"	"r"	375	22	3	3	1.2712	1
602	3	1	19	"f"	"r"	376	1	1	1	0.38414	1
602	3	1	19	"f"	"r"	377	2	2	2	0.35349	1
602	3	1	19	"f"	"r"	378	33	1	1	3.5504	1
602	3	1	19	"f"	"r"	379	2	2	2	0.28117	1
602	3	1	19	"f"	"r"	380	3	3	3	0.43197	1
602	3	1	19	"f"	"r"	381	1	1	1	0.68737	1
602	3	1	19	"f"	"r"	382	2	2	2	0.84183	1
602	3	1	19	"f"	"r"	383	3	3	3	0.25358	1
602	3	1	19	"f"	"r"	384	11	2	1	0.32882	0
602	3	1	19	"f"	"r"	385	3	3	3	0.34432	1
602	3	1	19	"f"	"r"	386	1	1	1	0.77711	1
602	3	1	19	"f"	"r"	387	22	3	2	1.9371	0
602	3	1	19	"f"	"r"	388	1	1	1	0.55104	1
602	3	1	19	"f"	"r"	389	2	2	2	0.31235	1
602	3	1	19	"f"	"r"	390	3	3	3	0.34913	1
602	3	1	19	"f"	"r"	391	11	2	2	0.46079	1
602	3	1	19	"f"	"r"	392	3	3	3	2.521	1
602	3	1	19	"f"	"r"	393	1	1	1	0.26493	1
602	3	1	19	"f"	"r"	394	2	2	2	0.28103	1
602	3	1	19	"f"	"r"	395	33	1	1	0.6551	1
602	3	1	19	"f"	"r"	396	2	2	2	0.74401	1
602	3	1	19	"f"	"r"	397	22	3	3	0.35134	1
602	3	1	19	"f"	"r"	398	1	1	1	0.26394	1
602	3	1	19	"f"	"r"	399	2	2	2	0.40858	1
602	3	1	19	"f"	"r"	400	3	3	3	1.6571	1
602	3	1	19	"f"	"r"	401	1	1	1	0.35102	1
602	3	1	19	"f"	"r"	402	2	2	2	0.24032	1
602	3	1	19	"f"	"r"	403	3	3	3	0.56089	1
602	3	1	19	"f"	"r"	404	1	1	1	0.37521	1
602	3	1	19	"f"	"r"	405	2	2	2	0.6661	1
602	3	1	19	"f"	"r"	406	33	1	1	0.50241	1
602	3	1	19	"f"	"r"	407	22	3	3	0.38472	1
602	3	1	19	"f"	"r"	408	11	2	2	0.29739	1
602	3	1	19	"f"	"r"	409	3	3	3	0.53397	1
602	3	1	19	"f"	"r"	410	1	1	1	0.86445	1
602	3	1	19	"f"	"r"	411	22	3	3	0.40033	1
602	3	1	19	"f"	"r"	412	11	2	2	0.23934	1
602	3	1	19	"f"	"r"	413	3	3	3	0.34441	1
602	3	1	19	"f"	"r"	414	1	1	1	0.88021	1
602	3	1	19	"f"	"r"	415	2	2	2	0.49817	1
602	3	1	19	"f"	"r"	416	3	3	3	0.31041	1
602	3	1	19	"f"	"r"	417	1	1	1	0.26517	1
602	3	1	19	"f"	"r"	418	2	2	2	0.26323	1
602	3	1	19	"f"	"r"	419	33	1	1	0.67336	1
602	3	1	19	"f"	"r"	420	2	2	2	0.56709	1
602	3	1	19	"f"	"r"	421	3	3	3	0.30477	1
602	3	1	19	"f"	"r"	422	1	1	1	0.31155	1
602	3	1	19	"f"	"r"	423	2	2	2	0.24901	1
602	3	1	19	"f"	"r"	424	3	3	3	0.31082	1
602	3	1	19	"f"	"r"	425	11	2	1	0.41661	0
602	3	1	19	"f"	"r"	426	3	3	3	0.52566	1
602	3	1	19	"f"	"r"	427	1	1	1	0.2081	1
602	3	1	19	"f"	"r"	428	2	2	2	0.25816	1
602	3	1	19	"f"	"r"	429	33	1	1	0.40582	1
602	3	1	19	"f"	"r"	430	22	3	3	0.4814	1
602	3	1	19	"f"	"r"	431	1	1	1	0.5917	1
602	3	1	19	"f"	"r"	432	2	2	2	0.35928	1
602	3	1	19	"f"	"r"	433	3	3	3	0.29638	1
602	3	1	19	"f"	"r"	434	1	1	1	0.47956	1
602	3	1	19	"f"	"r"	435	2	2	2	0.34436	1
602	3	1	19	"f"	"r"	436	33	1	1	0.42629	1
602	3	1	19	"f"	"r"	437	2	2	2	0.48833	1
602	3	1	19	"f"	"r"	438	3	3	3	0.37451	1
602	3	1	19	"f"	"r"	439	11	2	2	0.52802	1
602	3	1	19	"f"	"r"	440	3	3	3	1.3524	1
602	3	1	19	"f"	"r"	441	1	1	1	0.80935	1
602	3	1	19	"f"	"r"	442	22	3	3	0.43938	1
602	3	1	19	"f"	"r"	443	1	1	1	0.38485	1
602	3	1	19	"f"	"r"	444	2	2	2	0.29639	1
602	3	1	19	"f"	"r"	445	3	3	3	0.43945	1
602	3	1	19	"f"	"r"	446	1	1	1	0.87339	1
602	3	1	19	"f"	"r"	447	2	2	2	0.39146	1
602	3	1	19	"f"	"r"	448	3	3	3	0.28029	1
602	3	1	19	"f"	"r"	449	11	2	2	0.41734	1
602	3	1	19	"f"	"r"	450	3	3	3	0.83009	1
602	3	1	19	"f"	"r"	451	1	1	1	0.44794	1
602	3	1	19	"f"	"r"	452	2	2	2	0.35335	1
602	3	1	19	"f"	"r"	453	33	1	1	0.47096	1
602	3	1	19	"f"	"r"	454	2	2	2	0.43422	1
602	3	1	19	"f"	"r"	455	3	3	3	0.51031	1
602	3	1	19	"f"	"r"	456	1	1	1	0.60755	1
602	3	1	19	"f"	"r"	457	22	3	2	0.35343	0
602	3	1	19	"f"	"r"	458	1	1	1	0.53517	1
602	3	1	19	"f"	"r"	459	2	2	2	0.30449	1
602	3	1	19	"f"	"r"	460	3	3	3	0.61865	1
602	3	1	19	"f"	"r"	461	1	1	1	0.42892	1
602	3	1	19	"f"	"r"	462	22	3	3	0.40907	1
602	3	1	19	"f"	"r"	463	11	2	2	0.31956	1
602	3	1	19	"f"	"r"	464	3	3	3	0.48796	1
602	3	1	19	"f"	"r"	465	1	1	1	0.5861	1
602	3	1	19	"f"	"r"	466	2	2	2	0.58785	1
602	3	1	19	"f"	"r"	467	33	1	1	0.48851	1
602	3	1	19	"f"	"r"	468	2	2	2	0.2795	1
602	3	1	19	"f"	"r"	469	3	3	3	0.32156	1
602	3	1	19	"f"	"r"	470	11	2	2	0.43882	1
602	3	1	19	"f"	"r"	471	3	3	3	0.69637	1
602	3	1	19	"f"	"r"	472	1	1	1	0.3204	1
602	3	1	19	"f"	"r"	473	22	3	3	0.36862	1
602	3	1	19	"f"	"r"	474	1	1	1	0.43176	1
602	3	1	19	"f"	"r"	475	2	2	2	0.56169	1
602	3	1	19	"f"	"r"	476	33	1	1	1.6714	1
602	3	1	19	"f"	"r"	477	2	2	2	0.45581	1
602	3	1	19	"f"	"r"	478	3	3	3	0.24838	1
602	3	1	19	"f"	"r"	479	1	1	1	0.37472	1
602	3	1	19	"f"	"r"	480	2	2	2	0.64044	1
602	3	1	19	"f"	"r"	481	3	3	3	1.2732	1
602	3	1	19	"f"	"r"	482	1	1	1	0.30508	1
602	3	1	19	"f"	"r"	483	2	2	2	0.19942	1
602	3	1	19	"f"	"r"	484	33	1	1	0.54426	1
602	3	1	19	"f"	"r"	485	2	2	2	0.6875	1
602	3	1	19	"f"	"r"	486	3	3	3	0.53282	1
602	3	1	19	"f"	"r"	487	1	1	1	0.36733	1
602	3	1	19	"f"	"r"	488	2	2	2	0.3286	1
602	3	1	19	"f"	"r"	489	3	3	3	0.31183	1
602	3	1	19	"f"	"r"	490	11	2	2	0.50358	1
602	3	1	19	"f"	"r"	491	3	3	3	0.58385	1
602	3	1	19	"f"	"r"	492	1	1	1	0.33742	1
602	3	1	19	"f"	"r"	493	22	3	3	0.32735	1
602	3	1	19	"f"	"r"	494	1	1	1	0.39229	1
602	3	1	19	"f"	"r"	495	2	2	2	2.4181	1
602	3	1	19	"f"	"r"	496	3	3	3	0.3501	1
602	3	1	19	"f"	"r"	497	1	1	1	0.30052	1
602	3	1	19	"f"	"r"	498	22	3	3	0.53542	1
602	3	1	19	"f"	"r"	499	1	1	1	1.112	1
602	3	1	19	"f"	"r"	500	2	2	2	0.33592	1
602	3	1	19	"f"	"r"	501	33	1	1	0.36879	1
602	3	1	19	"f"	"r"	502	2	2	2	0.39174	1
602	3	1	19	"f"	"r"	503	3	3	3	1.5838	1
602	3	1	19	"f"	"r"	504	11	2	2	0.44123	1
602	3	1	19	"f"	"r"	505	3	3	3	0.31999	1
602	3	1	19	"f"	"r"	506	11	2	2	0.37525	1
602	3	1	19	"f"	"r"	507	3	3	3	2.6323	1
602	3	1	19	"f"	"r"	508	1	1	1	0.35108	1
602	3	1	19	"f"	"r"	509	2	2	2	0.24845	1
602	3	1	19	"f"	"r"	510	33	1	1	1.0999	1
602	3	1	19	"f"	"r"	511	22	3	2	0.61688	0
602	3	1	19	"f"	"r"	512	1	1	1	2.0313	1
602	3	1	19	"f"	"r"	513	2	2	2	0.30416	1
602	3	1	19	"f"	"r"	514	3	3	3	0.34679	1
602	3	1	19	"f"	"r"	515	1	1	1	0.43995	1
602	3	1	19	"f"	"r"	516	2	2	2	0.56214	1
602	3	1	19	"f"	"r"	517	3	3	3	0.29496	1
602	3	1	19	"f"	"r"	518	11	2	2	0.39171	1
602	3	1	19	"f"	"r"	519	3	3	3	0.33528	1
602	3	1	19	"f"	"r"	520	1	1	1	0.64137	1
602	3	1	19	"f"	"r"	521	2	2	2	0.37513	1
602	3	1	19	"f"	"r"	522	3	3	3	0.21673	1
602	3	1	19	"f"	"r"	523	1	1	1	0.43541	1
602	3	1	19	"f"	"r"	524	22	3	2	0.20002	0
602	3	1	19	"f"	"r"	525	1	1	1	0.43199	1
602	3	1	19	"f"	"r"	526	2	2	2	0.30398	1
602	3	1	19	"f"	"r"	527	33	1	1	0.40087	1
602	3	1	19	"f"	"r"	528	2	2	2	0.77705	1
602	3	1	19	"f"	"r"	529	3	3	3	0.25538	1
602	3	1	19	"f"	"r"	530	1	1	1	0.35997	1
602	3	1	19	"f"	"r"	531	2	2	2	0.34552	1
602	3	1	19	"f"	"r"	532	33	1	1	0.67088	1
602	3	1	19	"f"	"r"	533	2	2	2	0.48275	1
602	3	1	19	"f"	"r"	534	3	3	3	0.32711	1
602	3	1	19	"f"	"r"	535	11	2	2	0.40127	1
602	3	1	19	"f"	"r"	536	3	3	3	0.39974	1
602	3	1	19	"f"	"r"	537	1	1	1	0.48638	1
602	3	1	19	"f"	"r"	538	22	3	3	2.7044	1
602	3	1	19	"f"	"r"	539	1	1	1	0.3842	1
602	3	1	19	"f"	"r"	540	2	2	2	0.30466	1
602	3	1	19	"f"	"r"	541	3	3	3	0.48063	1
602	3	1	19	"f"	"r"	542	1	1	1	0.57511	1
602	3	1	19	"f"	"r"	543	2	2	2	0.32047	1
602	3	1	19	"f"	"r"	544	3	3	3	0.27981	1
602	3	1	19	"f"	"r"	545	1	1	1	0.33669	1
602	3	1	19	"f"	"r"	546	2	2	2	0.49531	1
602	3	1	19	"f"	"r"	547	33	1	1	0.76072	1
602	3	1	19	"f"	"r"	548	22	3	3	0.51996	1
602	3	1	19	"f"	"r"	549	11	2	2	0.28791	1
602	3	1	19	"f"	"r"	550	3	3	3	2.7607	1
602	3	1	19	"f"	"r"	551	1	1	1	0.24963	1
602	3	1	19	"f"	"r"	552	2	2	2	0.21461	1
602	3	1	19	"f"	"r"	553	3	3	3	0.32931	1
602	3	1	19	"f"	"r"	554	1	1	1	0.32469	1
602	3	1	19	"f"	"r"	555	2	2	2	0.51969	1
602	3	1	19	"f"	"r"	556	33	1	3	0.39412	0
602	3	1	19	"f"	"r"	557	2	2	2	0.49608	1
602	3	1	19	"f"	"r"	558	3	3	3	0.31536	1
602	3	1	19	"f"	"r"	559	1	1	1	0.33442	1
602	3	1	19	"f"	"r"	560	22	3	3	0.80813	1
602	3	1	19	"f"	"r"	561	11	2	2	0.38439	1
602	3	1	19	"f"	"r"	562	3	3	3	0.31238	1
602	3	1	19	"f"	"r"	563	1	1	1	0.31965	1
602	3	1	19	"f"	"r"	564	2	2	2	0.35244	1
602	3	1	19	"f"	"r"	565	3	3	3	0.8472	1
602	3	1	19	"f"	"r"	566	1	1	1	0.33735	1
602	3	1	19	"f"	"r"	567	2	2	2	0.2892	1
602	3	1	19	"f"	"r"	568	3	3	3	0.31819	1
602	3	1	19	"f"	"r"	569	11	2	2	0.43809	1
602	3	1	19	"f"	"r"	570	3	3	3	0.95489	1
602	3	1	19	"f"	"r"	571	1	1	1	0.30386	1
602	3	1	19	"f"	"r"	572	2	2	2	0.23239	1
602	3	1	19	"f"	"r"	573	3	3	3	0.42454	1
602	3	1	19	"f"	"r"	574	1	1	1	1.7043	1
602	3	1	19	"f"	"r"	575	2	2	2	0.30536	1
602	3	1	19	"f"	"r"	576	33	1	1	0.58247	1
602	3	1	19	"f"	"r"	577	22	3	3	0.88879	1
602	3	1	19	"f"	"r"	578	1	1	1	0.90475	1
602	3	1	19	"f"	"r"	579	22	3	2	0.33702	0
602	3	1	19	"f"	"r"	580	11	2	2	0.31932	1
602	3	1	19	"f"	"r"	581	3	3	3	0.44551	1
602	3	1	19	"f"	"r"	582	1	1	1	1.7452	1
602	3	1	19	"f"	"r"	583	2	2	2	0.38443	1
602	3	1	19	"f"	"r"	584	3	3	3	0.31999	1
602	3	1	19	"f"	"r"	585	1	1	1	0.47216	1
602	3	1	19	"f"	"r"	586	2	2	2	0.38565	1
602	3	1	19	"f"	"r"	587	33	1	1	0.97425	1
602	3	1	19	"f"	"r"	588	2	2	2	0.44651	1
602	3	1	19	"f"	"r"	589	3	3	3	0.33466	1
602	3	1	19	"f"	"r"	590	1	1	1	0.46467	1
602	3	1	19	"f"	"r"	591	2	2	2	1.4324	1
602	3	1	19	"f"	"r"	592	33	1	1	0.51166	1
602	3	1	19	"f"	"r"	593	2	2	2	0.25797	1
602	3	1	19	"f"	"r"	594	3	3	3	0.35039	1
602	3	1	19	"f"	"r"	595	11	2	2	0.38603	1
602	3	1	19	"f"	"r"	596	3	3	3	0.65336	1
602	3	1	19	"f"	"r"	597	1	1	1	0.35347	1
602	3	1	19	"f"	"r"	598	2	2	2	0.28925	1
602	3	1	19	"f"	"r"	599	3	3	3	0.3029	1
602	3	1	19	"f"	"r"	600	1	1	1	1.0325	1
602	3	1	19	"f"	"r"	601	3	3	3	0.73634	1
602	3	1	19	"f"	"r"	602	11	2	2	0.36844	1
602	3	1	19	"f"	"r"	603	3	3	3	0.4065	1
602	3	1	19	"f"	"r"	604	1	1	1	0.39228	1
602	3	1	19	"f"	"r"	605	2	2	2	0.62305	1
602	3	1	19	"f"	"r"	606	3	3	3	0.33579	1
602	3	1	19	"f"	"r"	607	1	1	1	0.38439	1
602	3	1	19	"f"	"r"	608	2	2	2	0.24118	1
602	3	1	19	"f"	"r"	609	33	1	1	0.51086	1
602	3	1	19	"f"	"r"	610	2	2	2	0.80087	1
602	3	1	19	"f"	"r"	611	3	3	3	1.0511	1
602	3	1	19	"f"	"r"	612	1	1	1	0.28005	1
602	3	1	19	"f"	"r"	613	22	3	3	0.50467	1
602	3	1	19	"f"	"r"	614	1	1	1	1.8714	1
602	3	1	19	"f"	"r"	615	2	2	2	0.26563	1
602	3	1	19	"f"	"r"	616	3	3	3	0.32569	1
602	3	1	19	"f"	"r"	617	11	2	2	0.36016	1
602	3	1	19	"f"	"r"	618	3	3	3	1.0258	1
602	3	1	19	"f"	"r"	619	1	1	1	1.3431	1
602	3	1	19	"f"	"r"	620	22	3	3	0.50521	1
602	3	1	19	"f"	"r"	621	1	1	1	0.4639	1
602	3	1	19	"f"	"r"	622	2	2	2	0.41669	1
602	3	1	19	"f"	"r"	623	33	1	1	0.9753	1
602	3	1	19	"f"	"r"	624	2	2	2	0.41659	1
602	3	1	19	"f"	"r"	625	3	3	3	0.36875	1
602	3	1	19	"f"	"r"	626	11	2	2	0.30394	1
602	3	1	19	"f"	"r"	627	33	1	1	0.48843	1
602	3	1	19	"f"	"r"	628	22	3	3	0.99076	1
602	3	1	19	"f"	"r"	629	1	1	1	0.52667	1
602	3	1	19	"f"	"r"	630	2	2	2	0.27459	1
602	3	1	19	"f"	"r"	631	3	3	3	0.59771	1
602	3	1	19	"f"	"r"	632	1	1	1	0.3059	1
602	3	1	19	"f"	"r"	633	2	2	2	0.31566	1
602	3	1	19	"f"	"r"	634	3	3	3	0.24671	1
602	3	1	19	"f"	"r"	635	1	1	1	0.43412	1
602	3	1	19	"f"	"r"	636	2	2	2	0.27177	1
602	3	1	19	"f"	"r"	637	3	3	3	0.25599	1
602	3	1	19	"f"	"r"	638	11	2	1	0.21526	0
602	3	1	19	"f"	"r"	639	3	3	3	0.93573	1
602	3	1	19	"f"	"r"	640	1	1	1	0.39055	1
602	3	1	19	"f"	"r"	641	22	3	3	1.074	1
602	3	1	19	"f"	"r"	642	1	1	1	0.51118	1
602	3	1	19	"f"	"r"	643	2	2	2	0.37581	1
602	3	1	19	"f"	"r"	644	33	1	1	0.48137	1
602	3	1	19	"f"	"r"	645	2	2	2	0.31997	1
602	3	1	19	"f"	"r"	646	3	3	3	0.36899	1
602	3	1	19	"f"	"r"	647	1	1	1	0.35174	1
602	3	1	19	"f"	"r"	648	2	2	2	0.27146	1
602	3	1	19	"f"	"r"	649	3	3	3	0.3126	1
602	3	1	19	"f"	"r"	650	11	2	2	0.6237	1
602	3	1	19	"f"	"r"	651	33	1	1	0.26427	1
602	3	1	19	"f"	"r"	652	2	2	2	0.32995	1
602	3	1	19	"f"	"r"	653	3	3	3	0.39846	1
602	3	1	19	"f"	"r"	654	1	1	1	0.46498	1
602	3	1	19	"f"	"r"	655	2	2	2	0.35267	1
602	3	1	19	"f"	"r"	656	3	3	3	0.27824	1
602	3	1	19	"f"	"r"	657	1	1	1	0.4707	1
602	3	1	19	"f"	"r"	658	22	3	3	0.90219	1
602	3	1	19	"f"	"r"	659	1	1	2	0.21215	0
602	3	1	19	"f"	"r"	660	2	2	2	0.65675	1
602	3	1	19	"f"	"r"	661	3	3	3	0.24001	1
602	3	1	19	"f"	"r"	662	1	1	1	0.43205	1
602	3	1	19	"f"	"r"	663	2	2	2	0.38498	1
602	3	1	19	"f"	"r"	664	3	3	3	0.53646	1
602	3	1	19	"f"	"r"	665	11	2	2	0.92117	1
602	3	1	19	"f"	"r"	666	33	1	1	0.37026	1
602	3	1	19	"f"	"r"	667	2	2	2	0.3521	1
602	3	1	19	"f"	"r"	668	3	3	3	1.1841	1
602	3	1	19	"f"	"r"	669	1	1	1	0.35473	1
602	3	1	19	"f"	"r"	670	2	2	2	0.28803	1
602	3	1	19	"f"	"r"	671	3	3	3	0.26437	1
602	3	1	19	"f"	"r"	672	1	1	1	0.4086	1
602	3	1	19	"f"	"r"	673	22	3	2	0.45634	0
602	3	1	19	"f"	"r"	674	1	1	1	0.70453	1
602	3	1	19	"f"	"r"	675	2	2	2	0.3354	1
602	3	1	19	"f"	"r"	676	33	1	1	0.39146	1
602	3	1	19	"f"	"r"	677	2	2	2	0.3843	1
602	3	1	19	"f"	"r"	678	3	3	3	0.32784	1
602	3	1	19	"f"	"r"	679	1	1	1	1.1197	1
602	3	1	19	"f"	"r"	680	2	2	2	0.29481	1
602	3	1	19	"f"	"r"	681	3	3	3	0.29439	1
602	3	1	19	"f"	"r"	682	11	2	1	0.28077	0
602	3	1	19	"f"	"r"	683	3	3	3	0.73427	1
602	3	1	19	"f"	"r"	684	1	1	1	0.43302	1
602	3	1	19	"f"	"r"	685	22	3	2	0.40859	0
602	3	1	19	"f"	"r"	686	1	1	1	0.48774	1
602	3	1	19	"f"	"r"	687	22	3	3	0.39262	1
602	3	1	19	"f"	"r"	688	1	1	2	0.39059	0
602	3	1	19	"f"	"r"	689	2	2	2	2.0592	1
602	3	1	19	"f"	"r"	690	33	1	1	0.43928	1
602	3	1	19	"f"	"r"	691	2	2	2	0.51937	1
602	3	1	19	"f"	"r"	692	3	3	3	1.2488	1
602	3	1	19	"f"	"r"	693	1	1	1	0.32393	1
602	3	1	19	"f"	"r"	694	2	2	2	0.40915	1
602	3	1	19	"f"	"r"	695	3	3	3	0.40836	1
602	3	1	19	"f"	"r"	696	11	2	2	1.2237	1
602	3	1	19	"f"	"r"	697	3	3	3	0.3492	1
602	3	1	19	"f"	"r"	698	1	1	1	0.26374	1
602	3	1	19	"f"	"r"	699	2	2	2	0.27417	1
602	3	1	19	"f"	"r"	700	3	3	3	0.23002	1
602	3	1	19	"f"	"r"	701	1	1	1	0.39309	1
602	3	1	19	"f"	"r"	702	2	2	2	0.48884	1
602	3	1	19	"f"	"r"	703	3	3	3	0.5034	1
602	3	1	19	"f"	"r"	704	11	2	1	0.15191	0
602	3	1	19	"f"	"r"	705	3	3	3	0.50518	1
602	3	1	19	"f"	"r"	706	1	1	1	0.38289	1
602	3	1	19	"f"	"r"	707	2	2	2	0.38658	1
602	3	1	19	"f"	"r"	708	33	1	1	0.45514	1
602	3	1	19	"f"	"r"	709	22	3	3	0.34418	1
602	3	1	19	"f"	"r"	710	11	2	2	0.63158	1
602	3	1	19	"f"	"r"	711	33	1	1	0.38495	1
602	3	1	19	"f"	"r"	712	22	3	3	0.77763	1
602	3	1	19	"f"	"r"	713	1	1	1	0.40342	1
602	3	1	19	"f"	"r"	714	2	2	2	0.25634	1
602	3	1	19	"f"	"r"	715	3	3	3	0.27011	1
602	3	1	19	"f"	"r"	716	1	1	1	0.27218	1
602	3	1	19	"f"	"r"	717	2	2	2	0.28082	1
602	3	1	19	"f"	"r"	718	3	3	3	0.11234	1
602	3	1	19	"f"	"r"	719	1	1	1	0.27807	1
602	3	1	19	"f"	"r"	720	2	2	2	0.29003	1
602	3	1	19	"f"	"r"	721	3	3	3	0.26315	1
602	3	1	19	"f"	"r"	722	1	1	1	0.37545	1
602	3	1	19	"f"	"r"	723	22	3	3	0.44021	1
602	3	1	19	"f"	"r"	724	11	2	2	0.99314	1
602	3	1	19	"f"	"r"	725	33	1	1	0.3911	1
602	3	1	19	"f"	"r"	726	2	2	2	0.28903	1
602	3	1	19	"f"	"r"	727	3	3	3	0.39878	1
602	3	1	19	"f"	"r"	728	1	1	1	0.60155	1
602	3	1	19	"f"	"r"	729	2	2	2	0.448	1
602	3	1	19	"f"	"r"	730	3	3	3	0.35144	1
602	3	1	19	"f"	"r"	731	1	1	1	0.35998	1
602	3	1	19	"f"	"r"	732	2	2	2	0.33855	1
602	3	1	19	"f"	"r"	733	3	3	3	0.43031	1
602	3	1	19	"f"	"r"	734	1	1	1	0.66518	1
602	3	1	19	"f"	"r"	735	2	2	2	0.32719	1
602	3	1	19	"f"	"r"	736	3	3	3	0.25649	1
602	3	1	19	"f"	"r"	737	1	1	1	0.27971	1
602	3	1	19	"f"	"r"	738	22	3	3	0.55147	1
602	3	1	19	"f"	"r"	739	11	2	2	1.057	1
602	3	1	19	"f"	"r"	740	3	3	3	0.56705	1
602	3	1	19	"f"	"r"	741	1	1	1	0.88091	1
602	3	1	19	"f"	"r"	742	2	2	2	0.29566	1
602	3	1	19	"f"	"r"	743	33	1	3	0.25676	0
602	3	1	19	"f"	"r"	744	2	2	2	0.78241	1
602	3	1	19	"f"	"r"	745	3	3	3	0.36871	1
602	3	1	19	"f"	"r"	746	1	1	1	0.31158	1
602	3	1	19	"f"	"r"	747	2	2	2	0.32948	1
602	3	1	19	"f"	"r"	748	3	3	3	0.40355	1
602	3	1	19	"f"	"r"	749	1	1	1	0.77644	1
602	3	1	19	"f"	"r"	750	2	2	2	0.24167	1
602	3	1	19	"f"	"r"	751	3	3	3	0.34375	1
602	3	1	19	"f"	"r"	752	1	1	1	0.48698	1
602	3	1	19	"f"	"r"	753	22	3	2	0.39793	0
602	3	1	19	"f"	"r"	754	11	2	2	0.51443	1
602	3	1	19	"f"	"r"	755	33	1	1	0.3806	1
602	3	1	19	"f"	"r"	756	2	2	2	0.38361	1
602	3	1	19	"f"	"r"	757	22	3	3	0.32067	1
602	3	1	19	"f"	"r"	758	11	2	2	0.68415	1
602	3	1	19	"f"	"r"	759	3	3	3	0.47396	1
602	3	1	19	"f"	"r"	760	1	1	1	0.36036	1
602	3	1	19	"f"	"r"	761	2	2	2	0.28728	1
602	3	1	19	"f"	"r"	762	33	1	1	0.52822	1
602	3	1	19	"f"	"r"	763	2	2	2	0.34402	1
602	3	1	19	"f"	"r"	764	3	3	3	0.52827	1
602	3	1	19	"f"	"r"	765	1	1	1	0.35956	1
602	3	1	19	"f"	"r"	766	2	2	2	0.60823	1
602	3	1	19	"f"	"r"	767	3	3	3	0.45731	1
602	3	1	19	"f"	"r"	768	1	1	1	0.78421	1
602	3	1	19	"f"	"r"	769	22	3	3	0.50337	1
602	3	1	19	"f"	"r"	770	11	2	2	0.3768	1
602	3	1	19	"f"	"r"	771	3	3	3	0.46264	1
602	3	1	19	"f"	"r"	772	1	1	1	0.58414	1
602	3	1	19	"f"	"r"	773	2	2	2	0.86385	1
602	3	1	19	"f"	"r"	774	33	1	1	0.77612	1
602	3	1	19	"f"	"r"	775	22	3	3	0.39389	1
602	3	1	19	"f"	"r"	776	1	1	1	0.73708	1
602	3	1	19	"f"	"r"	777	2	2	2	0.4301	1
602	3	1	19	"f"	"r"	778	3	3	3	0.46912	1
602	3	1	19	"f"	"r"	779	1	1	1	0.41524	1
602	3	1	19	"f"	"r"	780	2	2	2	0.28244	1
602	3	1	19	"f"	"r"	781	3	3	3	0.43737	1
602	3	1	19	"f"	"r"	782	1	1	1	0.58536	1
602	3	1	19	"f"	"r"	783	2	2	2	0.33532	1
602	3	1	19	"f"	"r"	784	33	1	1	0.51373	1
602	3	1	19	"f"	"r"	785	2	2	2	0.35282	1
602	3	1	19	"f"	"r"	786	3	3	3	0.62961	1
602	3	1	19	"f"	"r"	787	1	1	1	0.27527	1
602	3	1	19	"f"	"r"	788	22	3	2	0.45485	0
602	3	1	19	"f"	"r"	789	11	2	2	0.25637	1
602	3	1	19	"f"	"r"	790	3	3	3	0.82975	1
602	3	1	19	"f"	"r"	791	1	1	1	1.1121	1
602	3	1	19	"f"	"r"	792	2	2	2	0.43218	1
602	3	1	19	"f"	"r"	793	3	3	3	0.30566	1
602	3	1	19	"f"	"r"	794	1	1	1	0.31913	1
602	3	1	19	"f"	"r"	795	2	2	2	0.41646	1
602	3	1	19	"f"	"r"	796	3	3	3	0.7997	1
602	3	1	19	"f"	"r"	797	1	1	1	0.66624	1
602	3	1	19	"f"	"r"	798	2	2	2	0.24078	1
602	3	1	19	"f"	"r"	799	3	3	3	0.24731	1
602	3	1	19	"f"	"r"	800	11	2	2	0.71957	1
602	3	1	19	"f"	"r"	801	3	3	3	0.53462	1
602	3	1	19	"f"	"r"	802	1	1	1	0.62015	1
602	3	1	19	"f"	"r"	803	2	2	2	0.27209	1
602	3	1	19	"f"	"r"	804	33	1	1	0.48036	1
602	3	1	19	"f"	"r"	805	22	3	3	0.60976	1
602	3	1	19	"f"	"r"	806	1	1	1	0.38361	1
602	3	1	19	"f"	"r"	807	2	2	2	0.47223	1
602	3	1	19	"f"	"r"	808	3	3	3	0.29582	1
602	3	1	19	"f"	"r"	809	1	1	1	0.33567	1
602	3	1	19	"f"	"r"	810	22	3	3	0.88973	1
602	3	1	19	"f"	"r"	811	1	1	1	0.87197	1
602	3	1	19	"f"	"r"	812	2	2	2	0.2727	1
602	3	1	19	"f"	"r"	813	33	1	3	0.18999	0
602	3	1	19	"f"	"r"	814	2	2	2	0.60875	1
602	3	1	19	"f"	"r"	815	3	3	3	0.43334	1
602	3	1	19	"f"	"r"	816	11	2	2	0.53567	1
602	3	1	19	"f"	"r"	817	3	3	3	0.32845	1
602	3	1	19	"f"	"r"	818	1	1	1	0.56874	1
602	3	1	19	"f"	"r"	819	2	2	2	0.40811	1
602	3	1	19	"f"	"r"	820	3	3	3	1.7194	1
602	3	1	19	"f"	"r"	821	1	1	1	0.35979	1
602	3	1	19	"f"	"r"	822	2	2	2	0.27219	1
602	3	1	19	"f"	"r"	823	3	3	3	0.51257	1
602	3	1	19	"f"	"r"	824	1	1	1	0.76776	1
602	3	1	19	"f"	"r"	825	22	3	3	0.66629	1
602	3	1	19	"f"	"r"	826	11	2	1	0.23985	0
602	3	1	19	"f"	"r"	827	33	1	2	0.018979	0
602	3	1	19	"f"	"r"	828	2	2	2	0.42337	1
602	3	1	19	"f"	"r"	829	3	3	3	0.35957	1
602	3	1	19	"f"	"r"	830	11	2	2	0.82237	1
602	3	1	19	"f"	"r"	831	3	3	3	0.36806	1
602	3	1	19	"f"	"r"	832	1	1	1	0.60914	1
602	3	1	19	"f"	"r"	833	2	2	2	0.3439	1
602	3	1	19	"f"	"r"	834	3	3	3	0.52056	1
602	3	1	19	"f"	"r"	835	1	1	1	0.59055	1
602	3	1	19	"f"	"r"	836	22	3	3	0.60872	1
602	3	1	19	"f"	"r"	837	1	1	1	0.46462	1
602	3	1	19	"f"	"r"	838	2	2	2	0.31973	1
602	3	1	19	"f"	"r"	839	33	1	1	1.2847	1
602	3	1	19	"f"	"r"	840	2	2	2	0.57342	1
602	3	1	19	"f"	"r"	841	3	3	3	0.34481	1
602	3	1	19	"f"	"r"	842	1	1	1	0.4962	1
602	3	1	19	"f"	"r"	843	2	2	2	0.33517	1
602	3	1	19	"f"	"r"	844	3	3	3	0.55121	1
602	3	1	19	"f"	"r"	845	1	1	1	0.39066	1
602	3	1	19	"f"	"r"	846	2	2	2	0.29553	1
602	3	1	19	"f"	"r"	847	3	3	3	0.24826	1
602	3	1	19	"f"	"r"	848	1	1	1	0.42402	1
602	3	1	19	"f"	"r"	849	2	2	2	0.36	1
602	3	1	19	"f"	"r"	850	3	3	3	0.23304	1
602	3	1	19	"f"	"r"	851	11	2	1	0.31988	0
602	3	1	19	"f"	"r"	852	33	1	2	0.32083	0
602	3	1	19	"f"	"r"	853	22	3	3	0.53459	1
602	3	1	19	"f"	"r"	854	1	1	1	0.42003	1
602	3	1	19	"f"	"r"	855	22	3	2	0.26084	0
602	3	1	19	"f"	"r"	856	1	1	3	0.60908	0
602	3	1	19	"f"	"r"	857	2	2	2	0.53568	1
602	3	1	19	"f"	"r"	858	3	3	3	0.25717	1
602	3	1	19	"f"	"r"	859	11	2	2	0.44947	1
602	3	1	19	"f"	"r"	860	33	1	1	0.49507	1
602	3	1	19	"f"	"r"	861	2	2	2	0.73665	1
602	3	1	19	"f"	"r"	862	3	3	3	0.35927	1
602	3	1	19	"f"	"r"	863	1	1	1	0.26346	1
602	3	1	19	"f"	"r"	864	2	2	2	0.33606	1
602	3	1	19	"f"	"r"	865	3	3	3	0.40818	1
602	3	1	19	"f"	"r"	866	11	2	1	0.36824	0
602	3	1	19	"f"	"r"	867	3	3	2	0.32163	0
602	3	1	19	"f"	"r"	868	1	1	1	1.2946	1
602	3	1	19	"f"	"r"	869	2	2	2	0.37709	1
602	3	1	19	"f"	"r"	870	33	1	1	0.67842	1
602	3	1	19	"f"	"r"	871	2	2	2	0.51299	1
602	3	1	19	"f"	"r"	872	3	3	3	0.27103	1
602	3	1	19	"f"	"r"	873	1	1	1	0.24136	1
602	3	1	19	"f"	"r"	874	2	2	2	0.25665	1
602	3	1	19	"f"	"r"	875	3	3	3	0.25543	1
602	3	1	19	"f"	"r"	876	1	1	1	0.88734	1
602	3	1	19	"f"	"r"	877	22	3	3	0.40108	1
602	3	1	19	"f"	"r"	878	1	1	1	0.36766	1
602	3	1	19	"f"	"r"	879	2	2	2	0.36105	1
602	3	1	19	"f"	"r"	880	3	3	3	0.47273	1
602	3	1	19	"f"	"r"	881	1	1	1	0.62826	1
602	3	1	19	"f"	"r"	882	22	3	3	0.44327	1
602	3	1	19	"f"	"r"	883	1	1	1	0.51184	1
602	3	1	19	"f"	"r"	884	2	2	2	0.46357	1
602	3	1	19	"f"	"r"	885	3	3	3	0.98329	1
602	3	1	19	"f"	"r"	886	11	2	1	0.35997	0
602	3	1	19	"f"	"r"	887	33	1	1	0.71112	1
602	3	1	19	"f"	"r"	888	2	2	2	0.30519	1
602	3	1	19	"f"	"r"	889	3	3	3	0.48712	1
602	3	1	19	"f"	"r"	890	1	1	1	0.73669	1
602	3	1	19	"f"	"r"	891	2	2	2	0.30513	1
602	3	1	19	"f"	"r"	892	3	3	3	0.22237	1
602	3	1	19	"f"	"r"	893	1	1	1	0.42465	1
602	3	1	19	"f"	"r"	894	2	2	2	0.38416	1
602	3	1	19	"f"	"r"	895	3	3	3	0.31104	1
602	3	1	19	"f"	"r"	896	1	1	1	0.35985	1
602	3	1	19	"f"	"r"	897	22	3	3	0.36109	1
602	3	1	19	"f"	"r"	898	11	2	2	0.30472	1
602	3	1	19	"f"	"r"	899	33	1	1	0.44692	1
602	3	1	19	"f"	"r"	900	2	2	2	0.55651	1
602	3	1	19	"f"	"r"	901	3	3	3	0.26484	1
602	3	1	19	"f"	"r"	902	11	2	1	0.28828	0
602	3	1	19	"f"	"r"	903	3	3	3	0.54376	1
602	3	1	19	"f"	"r"	904	1	1	1	0.50699	1
602	3	1	19	"f"	"r"	905	22	3	2	0.18141	0
602	3	1	19	"f"	"r"	906	1	1	1	1.1931	1
602	3	1	19	"f"	"r"	907	2	2	2	0.25703	1
602	3	1	19	"f"	"r"	908	3	3	3	0.20568	1
602	3	1	19	"f"	"r"	909	1	1	1	0.45843	1
602	3	1	19	"f"	"r"	910	2	2	2	0.36569	1
602	3	1	19	"f"	"r"	911	33	1	1	1.1109	1
602	3	1	19	"f"	"r"	912	2	2	2	0.33822	1
602	3	1	19	"f"	"r"	913	3	3	3	0.23052	1
602	3	1	19	"f"	"r"	914	1	1	1	0.2711	1
602	3	1	19	"f"	"r"	915	2	2	2	0.41575	1
602	3	1	19	"f"	"r"	916	3	3	3	1.5129	1
602	3	1	19	"f"	"r"	917	1	1	1	0.30565	1
602	3	1	19	"f"	"r"	918	2	2	2	0.2788	1
602	3	1	19	"f"	"r"	919	3	3	3	0.35259	1
602	3	1	19	"f"	"r"	920	11	2	2	1.7281	1
602	3	1	19	"f"	"r"	921	33	1	1	0.37677	1
602	3	1	19	"f"	"r"	922	2	2	2	0.2717	1
602	3	1	19	"f"	"r"	923	3	3	3	0.52748	1
602	3	1	19	"f"	"r"	924	1	1	1	0.82525	1
602	3	1	19	"f"	"r"	925	22	3	3	0.65661	1
602	3	1	19	"f"	"r"	926	1	1	1	0.40674	1
602	3	1	19	"f"	"r"	927	22	3	3	0.50437	1
602	3	1	19	"f"	"r"	928	1	1	1	0.77583	1
602	3	1	19	"f"	"r"	929	2	2	2	0.32138	1
602	3	1	19	"f"	"r"	930	3	3	3	0.30259	1
602	3	1	19	"f"	"r"	931	1	1	1	0.42487	1
602	3	1	19	"f"	"r"	932	2	2	2	0.41634	1
602	3	1	19	"f"	"r"	933	3	3	3	1.0211	1
602	3	1	19	"f"	"r"	934	11	2	1	0.3284	0
602	3	1	19	"f"	"r"	935	33	1	1	0.36916	1
602	3	1	19	"f"	"r"	936	2	2	2	0.28098	1
602	3	1	19	"f"	"r"	937	3	3	3	0.31762	1
602	3	1	19	"f"	"r"	938	11	2	2	1.4078	1
602	3	1	19	"f"	"r"	939	3	3	3	0.39253	1
602	3	1	19	"f"	"r"	940	1	1	1	0.30369	1
602	3	1	19	"f"	"r"	941	22	3	3	0.68912	1
602	3	1	19	"f"	"r"	942	1	1	1	1.2886	1
602	3	1	19	"f"	"r"	943	2	2	2	0.47134	1
602	3	1	19	"f"	"r"	944	3	3	3	0.28791	1
602	3	1	19	"f"	"r"	945	1	1	1	0.45729	1
602	3	1	19	"f"	"r"	946	2	2	2	1.824	1
602	3	1	19	"f"	"r"	947	33	1	1	0.39991	1
602	3	1	19	"f"	"r"	948	2	2	2	0.35289	1
602	3	1	19	"f"	"r"	949	3	3	3	0.34848	1
602	3	1	19	"f"	"r"	950	11	2	2	0.68489	1
602	3	1	19	"f"	"r"	951	3	3	3	0.58412	1
602	3	1	19	"f"	"r"	952	1	1	1	0.41622	1
602	3	1	19	"f"	"r"	953	2	2	2	0.27281	1
602	3	1	19	"f"	"r"	954	3	3	3	0.32121	1
602	3	1	19	"f"	"r"	955	1	1	1	0.39095	1
602	3	1	19	"f"	"r"	956	2	2	2	0.27227	1
602	3	1	19	"f"	"r"	957	33	1	1	0.60422	1
602	3	1	19	"f"	"r"	958	2	2	2	0.31258	1
602	3	1	19	"f"	"r"	959	3	3	3	0.28588	1
602	3	1	19	"f"	"r"	960	1	1	1	0.37778	1
602	3	1	19	"f"	"r"	961	3	3	3	0.61533	1
602	3	1	19	"f"	"r"	962	1	1	1	0.58422	1
602	3	1	19	"f"	"r"	963	2	2	2	0.33809	1
602	3	1	19	"f"	"r"	964	33	1	1	0.49461	1
602	3	1	19	"f"	"r"	965	2	2	2	0.55249	1
602	3	1	19	"f"	"r"	966	3	3	3	0.45559	1
602	3	1	19	"f"	"r"	967	11	2	2	0.68895	1
602	3	1	19	"f"	"r"	968	3	3	3	0.31154	1
602	3	1	19	"f"	"r"	969	1	1	1	0.24721	1
602	3	1	19	"f"	"r"	970	2	2	2	0.28796	1
602	3	1	19	"f"	"r"	971	3	3	3	0.31257	1
602	3	1	19	"f"	"r"	972	1	1	1	0.67413	1
602	3	1	19	"f"	"r"	973	22	3	3	1.078	1
602	3	1	19	"f"	"r"	974	1	1	2	0.4094	0
602	3	1	19	"f"	"r"	975	2	2	2	0.31797	1
602	3	1	19	"f"	"r"	976	3	3	3	0.46575	1
602	3	1	19	"f"	"r"	977	1	1	1	0.43184	1
602	3	1	19	"f"	"r"	978	2	2	2	0.4471	1
602	3	1	19	"f"	"r"	979	33	1	1	0.40138	1
602	3	1	19	"f"	"r"	980	22	3	3	0.44008	1
602	3	1	19	"f"	"r"	981	1	1	1	0.9439	1
602	3	1	19	"f"	"r"	982	2	2	2	0.39201	1
602	3	1	19	"f"	"r"	983	3	3	3	0.32097	1
602	3	1	19	"f"	"r"	984	11	2	2	0.32063	1
602	3	1	19	"f"	"r"	985	3	3	3	0.42348	1
602	3	1	19	"f"	"r"	986	1	1	1	1.2569	1
602	3	1	19	"f"	"r"	987	2	2	2	0.34495	1
602	3	1	19	"f"	"r"	988	33	1	1	0.42296	1
602	3	1	19	"f"	"r"	989	2	2	2	0.33682	1
602	3	1	19	"f"	"r"	990	3	3	3	0.27948	1
602	3	1	19	"f"	"r"	991	11	2	2	1.0156	1
602	3	1	19	"f"	"r"	992	3	3	3	0.37548	1
602	3	1	19	"f"	"r"	993	1	1	1	0.26433	1
602	3	1	19	"f"	"r"	994	22	3	3	0.41658	1
602	3	1	19	"f"	"r"	995	1	1	1	0.72773	1
602	3	1	19	"f"	"r"	996	2	2	2	0.47358	1
602	3	1	19	"f"	"r"	997	3	3	3	0.062922	1
602	3	1	19	"f"	"r"	998	1	1	1	0.27213	1
602	3	1	19	"f"	"r"	999	2	2	2	0.35409	1
602	3	1	19	"f"	"r"	1000	33	1	1	1.0317	1
602	3	1	19	"f"	"r"	1001	22	3	3	0.93584	1
602	3	1	19	"f"	"r"	1002	1	1	1	0.28677	1
602	3	1	19	"f"	"r"	1003	2	2	2	0.2735	1
602	3	1	19	"f"	"r"	1004	3	3	3	0.367	1
602	3	1	19	"f"	"r"	1005	1	1	1	0.48185	1
602	3	1	19	"f"	"r"	1006	2	2	2	0.39084	1
602	3	1	19	"f"	"r"	1007	3	3	3	0.30416	1
602	3	1	19	"f"	"r"	1008	11	2	2	0.35941	1
602	3	1	19	"f"	"r"	1009	3	3	3	0.36158	1
602	3	1	19	"f"	"r"	1010	11	2	2	0.75862	1
602	3	1	19	"f"	"r"	1011	3	3	3	0.62518	1
602	3	1	19	"f"	"r"	1012	1	1	1	0.39973	1
602	3	1	19	"f"	"r"	1013	2	2	2	0.21831	1
602	3	1	19	"f"	"r"	1014	3	3	3	0.2461	1
602	3	1	19	"f"	"r"	1015	1	1	1	0.21624	1
602	3	1	19	"f"	"r"	1016	2	2	2	0.22414	1
602	3	1	19	"f"	"r"	1017	33	1	1	0.46385	1
602	3	1	19	"f"	"r"	1018	2	2	2	0.24938	1
602	3	1	19	"f"	"r"	1019	3	3	3	0.55124	1
602	3	1	19	"f"	"r"	1020	1	1	1	0.45545	1
602	3	1	19	"f"	"r"	1021	22	3	2	0.28061	0
602	3	1	19	"f"	"r"	1022	1	1	1	0.44709	1
602	3	1	19	"f"	"r"	1023	2	2	2	0.44122	1
602	3	1	19	"f"	"r"	1024	3	3	3	0.29562	1
602	3	1	19	"f"	"r"	1025	1	1	1	0.40117	1
602	3	1	19	"f"	"r"	1026	2	2	2	0.39918	1
602	3	1	19	"f"	"r"	1027	33	1	1	0.41777	1
602	3	1	19	"f"	"r"	1028	2	2	2	0.31889	1
602	3	1	19	"f"	"r"	1029	3	3	3	0.24972	1
602	3	1	19	"f"	"r"	1030	1	1	1	0.46403	1
602	3	1	19	"f"	"r"	1031	22	3	3	0.42457	1
602	3	1	19	"f"	"r"	1032	11	2	2	0.66466	1
602	3	1	19	"f"	"r"	1033	3	3	3	0.35079	1
602	3	1	19	"f"	"r"	1034	1	1	1	0.36927	1
603	3	2	18	"m"	"R"	1	0	1	1	0.92179	1
603	3	2	18	"m"	"R"	2	1	2	2	0.47945	1
603	3	2	18	"m"	"R"	3	2	3	3	0.35301	1
603	3	2	18	"m"	"R"	4	3	1	1	0.32965	1
603	3	2	18	"m"	"R"	5	1	2	2	0.31778	1
603	3	2	18	"m"	"R"	6	2	3	3	0.37644	1
603	3	2	18	"m"	"R"	7	3	1	1	0.42834	1
603	3	2	18	"m"	"R"	8	1	2	2	0.36079	1
603	3	2	18	"m"	"R"	9	2	3	3	0.28835	1
603	3	2	18	"m"	"R"	10	33	2	2	0.34368	1
603	3	2	18	"m"	"R"	11	22	1	1	0.32933	1
603	3	2	18	"m"	"R"	12	11	3	3	0.43501	1
603	3	2	18	"m"	"R"	13	3	1	1	0.24698	1
603	3	2	18	"m"	"R"	14	1	2	2	0.31497	1
603	3	2	18	"m"	"R"	15	2	3	3	0.30439	1
603	3	2	18	"m"	"R"	16	3	1	1	0.46427	1
603	3	2	18	"m"	"R"	17	1	2	2	0.32846	1
603	3	2	18	"m"	"R"	18	2	3	3	0.31924	1
603	3	2	18	"m"	"R"	19	3	1	1	0.36015	1
603	3	2	18	"m"	"R"	20	11	3	3	0.51987	1
603	3	2	18	"m"	"R"	21	3	1	1	0.35132	1
603	3	2	18	"m"	"R"	22	1	2	2	0.26549	1
603	3	2	18	"m"	"R"	23	2	3	3	0.27204	1
603	3	2	18	"m"	"R"	24	33	2	3	0.37589	0
603	3	2	18	"m"	"R"	25	3	1	1	0.2877	1
603	3	2	18	"m"	"R"	26	1	2	2	0.42435	1
603	3	2	18	"m"	"R"	27	2	3	3	0.5412	1
603	3	2	18	"m"	"R"	28	33	2	2	0.6117	1
603	3	2	18	"m"	"R"	29	22	1	1	38.0373	1
603	3	2	18	"m"	"R"	30	1	2	2	0.32937	1
603	3	2	18	"m"	"R"	31	2	3	3	0.27059	1
603	3	2	18	"m"	"R"	32	3	1	1	0.30598	1
603	3	2	18	"m"	"R"	33	11	3	2	0.27869	0
603	3	2	18	"m"	"R"	34	3	1	1	0.30307	1
603	3	2	18	"m"	"R"	35	1	2	2	0.24721	1
603	3	2	18	"m"	"R"	36	2	3	3	0.30453	1
603	3	2	18	"m"	"R"	37	22	1	1	0.38501	1
603	3	2	18	"m"	"R"	38	1	2	2	0.43409	1
603	3	2	18	"m"	"R"	39	2	3	3	0.27054	1
603	3	2	18	"m"	"R"	40	33	2	2	0.34198	1
603	3	2	18	"m"	"R"	41	2	3	3	0.40008	1
603	3	2	18	"m"	"R"	42	3	1	1	0.2823	1
603	3	2	18	"m"	"R"	43	1	2	2	0.3305	1
603	3	2	18	"m"	"R"	44	2	3	3	0.38976	1
603	3	2	18	"m"	"R"	45	3	1	1	0.27101	1
603	3	2	18	"m"	"R"	46	1	2	2	0.26603	1
603	3	2	18	"m"	"R"	47	22	1	1	0.29553	1
603	3	2	18	"m"	"R"	48	11	3	3	0.31927	1
603	3	2	18	"m"	"R"	49	3	1	1	0.33919	1
603	3	2	18	"m"	"R"	50	11	3	3	0.42334	1
603	3	2	18	"m"	"R"	51	3	1	1	0.47595	1
603	3	2	18	"m"	"R"	52	1	2	2	0.27241	1
603	3	2	18	"m"	"R"	53	2	3	3	0.23374	1
603	3	2	18	"m"	"R"	54	3	1	1	0.27848	1
603	3	2	18	"m"	"R"	55	1	2	2	0.37704	1
603	3	2	18	"m"	"R"	56	2	3	3	0.36177	1
603	3	2	18	"m"	"R"	57	3	1	1	0.27719	1
603	3	2	18	"m"	"R"	58	1	2	2	0.30364	1
603	3	2	18	"m"	"R"	59	2	3	3	0.24096	1
603	3	2	18	"m"	"R"	60	33	2	2	0.39144	1
603	3	2	18	"m"	"R"	61	22	1	1	0.34331	1
603	3	2	18	"m"	"R"	62	1	2	2	0.41038	1
603	3	2	18	"m"	"R"	63	2	3	3	0.1177	1
603	3	2	18	"m"	"R"	64	3	1	1	0.41573	1
603	3	2	18	"m"	"R"	65	1	2	2	0.2643	1
603	3	2	18	"m"	"R"	66	2	3	3	0.38511	1
603	3	2	18	"m"	"R"	67	3	1	1	0.28355	1
603	3	2	18	"m"	"R"	68	11	3	3	0.46741	1
603	3	2	18	"m"	"R"	69	3	1	2	0.37011	0
603	3	2	18	"m"	"R"	70	1	2	2	0.44893	1
603	3	2	18	"m"	"R"	71	2	3	3	0.29584	1
603	3	2	18	"m"	"R"	72	33	2	2	0.42484	1
603	3	2	18	"m"	"R"	73	22	1	1	0.28251	1
603	3	2	18	"m"	"R"	74	1	2	2	0.38646	1
603	3	2	18	"m"	"R"	75	22	1	1	0.36018	1
603	3	2	18	"m"	"R"	76	1	2	2	0.49419	1
603	3	2	18	"m"	"R"	77	2	3	3	0.37637	1
603	3	2	18	"m"	"R"	78	3	1	1	0.83823	1
603	3	2	18	"m"	"R"	79	11	3	2	0.42432	0
603	3	2	18	"m"	"R"	80	33	2	2	0.50518	1
603	3	2	18	"m"	"R"	81	2	3	3	0.51789	1
603	3	2	18	"m"	"R"	82	3	1	1	0.54608	1
603	3	2	18	"m"	"R"	83	1	2	2	0.38417	1
603	3	2	18	"m"	"R"	84	2	3	3	0.48619	1
603	3	2	18	"m"	"R"	85	3	1	1	0.29968	1
603	3	2	18	"m"	"R"	86	1	2	2	0.40277	1
603	3	2	18	"m"	"R"	87	2	3	3	0.47955	1
603	3	2	18	"m"	"R"	88	3	1	1	0.44712	1
603	3	2	18	"m"	"R"	89	1	2	2	0.44667	1
603	3	2	18	"m"	"R"	90	2	3	3	0.54463	1
603	3	2	18	"m"	"R"	91	3	1	1	0.2963	1
603	3	2	18	"m"	"R"	92	11	3	3	0.37678	1
603	3	2	18	"m"	"R"	93	33	2	2	0.52128	1
603	3	2	18	"m"	"R"	94	22	1	1	0.49532	1
603	3	2	18	"m"	"R"	95	1	2	2	0.59294	1
603	3	2	18	"m"	"R"	96	2	3	3	0.32075	1
603	3	2	18	"m"	"R"	97	3	1	1	0.31231	1
603	3	2	18	"m"	"R"	98	1	2	2	0.36783	1
603	3	2	18	"m"	"R"	99	22	1	1	0.45532	1
603	3	2	18	"m"	"R"	100	1	2	2	0.51764	1
603	3	2	18	"m"	"R"	101	2	3	3	0.41192	1
603	3	2	18	"m"	"R"	102	33	2	1	0.67766	0
603	3	2	18	"m"	"R"	103	2	3	2	0.31902	0
603	3	2	18	"m"	"R"	104	3	1	1	0.3759	1
603	3	2	18	"m"	"R"	105	11	3	3	0.32935	1
603	3	2	18	"m"	"R"	106	3	1	1	0.36396	1
603	3	2	18	"m"	"R"	107	1	2	2	0.56466	1
603	3	2	18	"m"	"R"	108	2	3	3	0.76472	1
603	3	2	18	"m"	"R"	109	3	1	1	0.17645	1
603	3	2	18	"m"	"R"	110	11	3	3	0.54887	1
603	3	2	18	"m"	"R"	111	3	1	1	0.3519	1
603	3	2	18	"m"	"R"	112	1	2	2	0.42347	1
603	3	2	18	"m"	"R"	113	2	3	3	0.34591	1
603	3	2	18	"m"	"R"	114	33	2	2	0.52796	1
603	3	2	18	"m"	"R"	115	22	1	1	0.67931	1
603	3	2	18	"m"	"R"	116	1	2	2	0.49611	1
603	3	2	18	"m"	"R"	117	2	3	3	0.59197	1
603	3	2	18	"m"	"R"	118	3	1	1	0.38364	1
603	3	2	18	"m"	"R"	119	1	2	2	0.337	1
603	3	2	18	"m"	"R"	120	2	3	3	0.52751	1
603	3	2	18	"m"	"R"	121	3	1	1	0.33728	1
603	3	2	18	"m"	"R"	122	11	3	3	0.4713	1
603	3	2	18	"m"	"R"	123	33	2	1	0.37707	0
603	3	2	18	"m"	"R"	124	2	3	3	0.75966	1
603	3	2	18	"m"	"R"	125	3	1	1	0.71237	1
603	3	2	18	"m"	"R"	126	1	2	2	0.5674	1
603	3	2	18	"m"	"R"	127	2	3	3	0.32031	1
603	3	2	18	"m"	"R"	128	3	1	1	0.48789	1
603	3	2	18	"m"	"R"	129	1	2	2	0.43255	1
603	3	2	18	"m"	"R"	130	2	3	3	0.50446	1
603	3	2	18	"m"	"R"	131	3	1	1	0.95291	1
603	3	2	18	"m"	"R"	132	1	2	2	0.33514	1
603	3	2	18	"m"	"R"	133	22	1	1	0.61585	1
603	3	2	18	"m"	"R"	134	1	2	2	0.85877	1
603	3	2	18	"m"	"R"	135	2	3	3	0.62625	1
603	3	2	18	"m"	"R"	136	33	2	2	0.70496	1
603	3	2	18	"m"	"R"	137	22	1	1	0.49613	1
603	3	2	18	"m"	"R"	138	11	3	3	1.1297	1
603	3	2	18	"m"	"R"	139	3	1	1	1.1774	1
603	3	2	18	"m"	"R"	140	1	2	2	0.27882	1
603	3	2	18	"m"	"R"	141	2	3	3	0.46435	1
603	3	2	18	"m"	"R"	142	3	1	1	0.3757	1
603	3	2	18	"m"	"R"	143	1	2	2	0.46255	1
603	3	2	18	"m"	"R"	144	2	3	3	0.73179	1
603	3	2	18	"m"	"R"	145	3	1	1	0.34409	1
603	3	2	18	"m"	"R"	146	11	3	2	0.31929	0
603	3	2	18	"m"	"R"	147	3	1	1	0.5447	1
603	3	2	18	"m"	"R"	148	1	2	2	2.1277	1
603	3	2	18	"m"	"R"	149	2	3	3	0.32899	1
603	3	2	18	"m"	"R"	150	3	1	1	0.56777	1
603	3	2	18	"m"	"R"	151	1	2	2	0.35188	1
603	3	2	18	"m"	"R"	152	22	1	1	0.46333	1
603	3	2	18	"m"	"R"	153	1	2	2	0.72092	1
603	3	2	18	"m"	"R"	154	2	3	3	0.391	1
603	3	2	18	"m"	"R"	155	33	2	2	0.4345	1
603	3	2	18	"m"	"R"	156	2	3	3	0.36596	1
603	3	2	18	"m"	"R"	157	3	1	1	0.43255	1
603	3	2	18	"m"	"R"	158	11	3	2	0.55347	0
603	3	2	18	"m"	"R"	159	33	2	2	0.9976	1
603	3	2	18	"m"	"R"	160	2	3	3	0.32819	1
603	3	2	18	"m"	"R"	161	3	1	1	0.82397	1
603	3	2	18	"m"	"R"	162	1	2	2	0.48135	1
603	3	2	18	"m"	"R"	163	2	3	3	0.75984	1
603	3	2	18	"m"	"R"	164	3	1	1	0.56784	1
603	3	2	18	"m"	"R"	165	1	2	2	0.43368	1
603	3	2	18	"m"	"R"	166	22	1	3	0.55896	0
603	3	2	18	"m"	"R"	167	1	2	2	0.38404	1
603	3	2	18	"m"	"R"	168	2	3	3	0.35958	1
603	3	2	18	"m"	"R"	169	3	1	1	0.38046	1
603	3	2	18	"m"	"R"	170	1	2	2	0.31996	1
603	3	2	18	"m"	"R"	171	22	1	1	0.83173	1
603	3	2	18	"m"	"R"	172	11	3	3	0.50412	1
603	3	2	18	"m"	"R"	173	33	2	2	0.39154	1
603	3	2	18	"m"	"R"	174	2	3	3	0.58804	1
603	3	2	18	"m"	"R"	175	3	1	1	0.48925	1
603	3	2	18	"m"	"R"	176	1	2	2	0.35116	1
603	3	2	18	"m"	"R"	177	2	3	3	0.58385	1
603	3	2	18	"m"	"R"	178	3	1	1	0.47175	1
603	3	2	18	"m"	"R"	179	1	2	2	1.1443	1
603	3	2	18	"m"	"R"	180	2	3	3	0.29788	1
603	3	2	18	"m"	"R"	181	3	1	1	0.5107	1
603	3	2	18	"m"	"R"	182	11	3	3	0.41735	1
603	3	2	18	"m"	"R"	183	3	1	1	0.72871	1
603	3	2	18	"m"	"R"	184	1	2	2	0.88269	1
603	3	2	18	"m"	"R"	185	2	3	3	0.61417	1
603	3	2	18	"m"	"R"	186	3	1	1	0.52859	1
603	3	2	18	"m"	"R"	187	1	2	2	0.43126	1
603	3	2	18	"m"	"R"	188	2	3	3	0.47976	1
603	3	2	18	"m"	"R"	189	3	1	1	0.86116	1
603	3	2	18	"m"	"R"	190	1	2	2	1.706	1
603	3	2	18	"m"	"R"	191	2	3	3	0.34381	1
603	3	2	18	"m"	"R"	192	33	2	1	0.60683	0
603	3	2	18	"m"	"R"	193	22	1	1	0.44204	1
603	3	2	18	"m"	"R"	194	1	2	2	0.37903	1
603	3	2	18	"m"	"R"	195	2	3	3	0.56492	1
603	3	2	18	"m"	"R"	196	3	1	1	0.50058	1
603	3	2	18	"m"	"R"	197	1	2	2	0.52827	1
603	3	2	18	"m"	"R"	198	2	3	3	0.72868	1
603	3	2	18	"m"	"R"	199	3	1	1	0.39889	1
603	3	2	18	"m"	"R"	200	11	3	3	2.1126	1
603	3	2	18	"m"	"R"	201	3	1	1	0.85709	1
603	3	2	18	"m"	"R"	202	1	2	2	0.49539	1
603	3	2	18	"m"	"R"	203	2	3	3	0.54487	1
603	3	2	18	"m"	"R"	204	33	2	1	1.3276	0
603	3	2	18	"m"	"R"	205	3	1	1	0.85745	1
603	3	2	18	"m"	"R"	206	1	2	2	0.64009	1
603	3	2	18	"m"	"R"	207	22	1	1	0.55617	1
603	3	2	18	"m"	"R"	208	1	2	2	19.3523	1
603	3	2	18	"m"	"R"	209	2	3	3	1.588	1
603	3	2	18	"m"	"R"	210	33	2	2	0.67559	1
603	3	2	18	"m"	"R"	211	2	3	3	0.38395	1
603	3	2	18	"m"	"R"	212	3	1	1	0.61703	1
603	3	2	18	"m"	"R"	213	11	3	3	2.8552	1
603	3	2	18	"m"	"R"	214	3	1	1	0.51194	1
603	3	2	18	"m"	"R"	215	1	2	2	0.51156	1
603	3	2	18	"m"	"R"	216	2	3	3	0.32184	1
603	3	2	18	"m"	"R"	217	3	1	1	0.3364	1
603	3	2	18	"m"	"R"	218	1	2	2	0.23204	1
603	3	2	18	"m"	"R"	219	2	3	3	1.9526	1
603	3	2	18	"m"	"R"	220	3	1	1	0.67161	1
603	3	2	18	"m"	"R"	221	11	3	3	0.44926	1
603	3	2	18	"m"	"R"	222	3	1	1	1.2053	1
603	3	2	18	"m"	"R"	223	1	2	2	1.2723	1
603	3	2	18	"m"	"R"	224	2	3	3	0.49568	1
603	3	2	18	"m"	"R"	225	33	2	2	0.62551	1
603	3	2	18	"m"	"R"	226	22	1	1	0.34377	1
603	3	2	18	"m"	"R"	227	1	2	2	0.54422	1
603	3	2	18	"m"	"R"	228	2	3	3	0.72764	1
603	3	2	18	"m"	"R"	229	3	1	1	0.49399	1
603	3	2	18	"m"	"R"	230	1	2	2	0.39169	1
603	3	2	18	"m"	"R"	231	22	1	1	0.51253	1
603	3	2	18	"m"	"R"	232	1	2	2	0.56013	1
603	3	2	18	"m"	"R"	233	2	3	3	1.7199	1
603	3	2	18	"m"	"R"	234	33	2	2	0.59216	1
603	3	2	18	"m"	"R"	235	2	3	3	0.70438	1
603	3	2	18	"m"	"R"	236	3	1	1	0.3927	1
603	3	2	18	"m"	"R"	237	1	2	2	0.96714	1
603	3	2	18	"m"	"R"	238	2	3	3	1.0821	1
603	3	2	18	"m"	"R"	239	3	1	1	0.46209	1
603	3	2	18	"m"	"R"	240	11	3	3	0.59173	1
603	3	2	18	"m"	"R"	241	3	1	1	0.53694	1
603	3	2	18	"m"	"R"	242	11	3	2	0.82505	0
603	3	2	18	"m"	"R"	243	33	2	2	0.5411	1
603	3	2	18	"m"	"R"	244	2	3	3	0.47932	1
603	3	2	18	"m"	"R"	245	3	1	1	0.51326	1
603	3	2	18	"m"	"R"	246	1	2	2	2.2644	1
603	3	2	18	"m"	"R"	247	2	3	3	1.2702	1
603	3	2	18	"m"	"R"	248	3	1	1	0.54464	1
603	3	2	18	"m"	"R"	249	1	2	2	0.32182	1
603	3	2	18	"m"	"R"	250	2	3	3	0.2943	1
603	3	2	18	"m"	"R"	251	3	1	1	0.58426	1
603	3	2	18	"m"	"R"	252	1	2	2	1.4075	1
603	3	2	18	"m"	"R"	253	22	1	1	1.0459	1
603	3	2	18	"m"	"R"	254	1	2	2	0.32872	1
603	3	2	18	"m"	"R"	255	2	3	3	0.42396	1
603	3	2	18	"m"	"R"	256	3	1	1	0.64184	1
603	3	2	18	"m"	"R"	257	1	2	2	1.2349	1
603	3	2	18	"m"	"R"	258	22	1	1	0.90981	1
603	3	2	18	"m"	"R"	259	1	2	2	0.72828	1
603	3	2	18	"m"	"R"	260	2	3	3	0.92102	1
603	3	2	18	"m"	"R"	261	33	2	2	2.2025	1
603	3	2	18	"m"	"R"	262	2	3	3	0.54669	1
603	3	2	18	"m"	"R"	263	3	1	1	0.33618	1
603	3	2	18	"m"	"R"	264	11	3	3	1.0319	1
603	3	2	18	"m"	"R"	265	3	1	1	5.0076	1
603	3	2	18	"m"	"R"	266	1	2	2	0.56866	1
603	3	2	18	"m"	"R"	267	2	3	3	0.33715	1
603	3	2	18	"m"	"R"	268	3	1	1	0.46444	1
603	3	2	18	"m"	"R"	269	1	2	2	0.76942	1
603	3	2	18	"m"	"R"	270	2	3	3	0.35161	1
603	3	2	18	"m"	"R"	271	3	1	1	0.32874	1
603	3	2	18	"m"	"R"	272	11	3	3	0.44809	1
603	3	2	18	"m"	"R"	273	33	2	2	0.38432	1
603	3	2	18	"m"	"R"	274	2	3	3	1.8339	1
603	3	2	18	"m"	"R"	275	3	1	1	0.39417	1
603	3	2	18	"m"	"R"	276	1	2	2	0.48819	1
603	3	2	18	"m"	"R"	277	22	1	1	0.52882	1
603	3	2	18	"m"	"R"	278	1	2	2	3.2883	1
603	3	2	18	"m"	"R"	279	2	3	3	0.43919	1
603	3	2	18	"m"	"R"	280	33	2	2	0.44817	1
603	3	2	18	"m"	"R"	281	2	3	3	0.50529	1
603	3	2	18	"m"	"R"	282	3	1	1	0.52824	1
603	3	2	18	"m"	"R"	283	11	3	3	0.794	1
603	3	2	18	"m"	"R"	284	3	1	1	0.49393	1
603	3	2	18	"m"	"R"	285	1	2	2	0.29605	1
603	3	2	18	"m"	"R"	286	22	1	1	0.79202	1
603	3	2	18	"m"	"R"	287	1	2	2	1.4411	1
603	3	2	18	"m"	"R"	288	2	3	3	2.1895	1
603	3	2	18	"m"	"R"	289	3	1	1	0.59248	1
603	3	2	18	"m"	"R"	290	1	2	2	0.74461	1
603	3	2	18	"m"	"R"	291	22	1	1	0.84885	1
603	3	2	18	"m"	"R"	292	11	3	3	1.0204	1
603	3	2	18	"m"	"R"	293	33	2	2	0.71153	1
603	3	2	18	"m"	"R"	294	2	3	3	0.72053	1
603	3	2	18	"m"	"R"	295	3	1	1	0.56463	1
603	3	2	18	"m"	"R"	296	1	2	2	0.49217	1
603	3	2	18	"m"	"R"	297	2	3	3	0.92869	1
603	3	2	18	"m"	"R"	298	3	1	1	0.86698	1
603	3	2	18	"m"	"R"	299	1	2	2	1.0925	1
603	3	2	18	"m"	"R"	300	2	3	3	0.35575	1
603	3	2	18	"m"	"R"	301	3	1	1	0.60057	1
603	3	2	18	"m"	"R"	302	11	3	3	0.60004	1
603	3	2	18	"m"	"R"	303	33	2	2	1.6602	1
603	3	2	18	"m"	"R"	304	22	1	1	0.65783	1
603	3	2	18	"m"	"R"	305	1	2	2	0.33583	1
603	3	2	18	"m"	"R"	306	2	3	3	0.28022	1
603	3	2	18	"m"	"R"	307	3	1	1	2.3439	1
603	3	2	18	"m"	"R"	308	1	2	2	0.38905	1
603	3	2	18	"m"	"R"	309	2	3	3	0.40767	1
603	3	2	18	"m"	"R"	310	3	1	1	0.38428	1
603	3	2	18	"m"	"R"	311	1	2	2	1.6496	1
603	3	2	18	"m"	"R"	312	2	3	3	0.46255	1
603	3	2	18	"m"	"R"	313	3	1	1	0.30492	1
603	3	2	18	"m"	"R"	314	11	3	3	0.37633	1
603	3	2	18	"m"	"R"	315	3	1	1	0.50905	1
603	3	2	18	"m"	"R"	316	1	2	2	0.75445	1
603	3	2	18	"m"	"R"	317	22	1	1	0.50464	1
603	3	2	18	"m"	"R"	318	1	2	2	0.30581	1
603	3	2	18	"m"	"R"	319	2	3	3	0.33545	1
603	3	2	18	"m"	"R"	320	33	2	2	0.43787	1
603	3	2	18	"m"	"R"	321	2	3	3	0.67035	1
603	3	2	18	"m"	"R"	322	3	1	1	0.45424	1
603	3	2	18	"m"	"R"	323	1	2	2	0.44753	1
603	3	2	18	"m"	"R"	324	2	3	3	0.27953	1
603	3	2	18	"m"	"R"	325	3	1	1	1.8885	1
603	3	2	18	"m"	"R"	326	11	3	3	0.584	1
603	3	2	18	"m"	"R"	327	3	1	1	0.32827	1
603	3	2	18	"m"	"R"	328	1	2	2	0.39302	1
603	3	2	18	"m"	"R"	329	2	3	3	1.7525	1
603	3	2	18	"m"	"R"	330	33	2	2	1.1993	1
603	3	2	18	"m"	"R"	331	2	3	3	0.36805	1
603	3	2	18	"m"	"R"	332	3	1	1	1.4163	1
603	3	2	18	"m"	"R"	333	1	2	2	0.89399	1
603	3	2	18	"m"	"R"	334	22	1	1	0.61279	1
603	3	2	18	"m"	"R"	335	1	2	2	0.44825	1
603	3	2	18	"m"	"R"	336	2	3	3	0.50477	1
603	3	2	18	"m"	"R"	337	3	1	1	0.69518	1
603	3	2	18	"m"	"R"	338	11	3	2	0.59986	0
603	3	2	18	"m"	"R"	339	3	1	1	0.96911	1
603	3	2	18	"m"	"R"	340	1	2	2	0.5066	1
603	3	2	18	"m"	"R"	341	2	3	3	0.35803	1
603	3	2	18	"m"	"R"	342	3	1	1	0.66427	1
603	3	2	18	"m"	"R"	343	1	2	2	0.37683	1
603	3	2	18	"m"	"R"	344	2	3	2	0.98395	0
603	3	2	18	"m"	"R"	345	3	1	1	0.45492	1
603	3	2	18	"m"	"R"	346	1	2	2	0.29613	1
603	3	2	18	"m"	"R"	347	2	3	3	0.54513	1
603	3	2	18	"m"	"R"	348	33	2	2	3.2632	1
603	3	2	18	"m"	"R"	349	22	1	1	0.50465	1
603	3	2	18	"m"	"R"	350	1	2	2	0.34438	1
603	3	2	18	"m"	"R"	351	2	3	3	0.31927	1
603	3	2	18	"m"	"R"	352	3	1	1	0.81008	1
603	3	2	18	"m"	"R"	353	1	2	2	0.56457	1
603	3	2	18	"m"	"R"	354	2	3	3	1.0938	1
603	3	2	18	"m"	"R"	355	3	1	1	0.26462	1
603	3	2	18	"m"	"R"	356	1	2	2	0.26378	1
603	3	2	18	"m"	"R"	357	22	1	1	0.52026	1
603	3	2	18	"m"	"R"	358	11	3	3	3.433	1
603	3	2	18	"m"	"R"	359	33	2	2	1.0484	1
603	3	2	18	"m"	"R"	360	2	3	3	0.37456	1
603	3	2	18	"m"	"R"	361	3	1	1	0.49688	1
603	3	2	18	"m"	"R"	362	1	2	2	1.8568	1
603	3	2	18	"m"	"R"	363	2	3	3	0.39056	1
603	3	2	18	"m"	"R"	364	33	2	2	0.64224	1
603	3	2	18	"m"	"R"	365	22	1	1	0.34976	1
603	3	2	18	"m"	"R"	366	11	3	3	1.0079	1
603	3	2	18	"m"	"R"	367	3	1	1	0.67242	1
603	3	2	18	"m"	"R"	368	1	2	2	0.39264	1
603	3	2	18	"m"	"R"	369	2	3	3	0.59887	1
603	3	2	18	"m"	"R"	370	3	1	1	0.38492	1
603	3	2	18	"m"	"R"	371	1	2	2	4.0427	1
603	3	2	18	"m"	"R"	372	2	3	3	0.61813	1
603	3	2	18	"m"	"R"	373	3	1	1	0.68183	1
603	3	2	18	"m"	"R"	374	11	3	3	0.66319	1
603	3	2	18	"m"	"R"	375	33	2	2	3.3923	1
603	3	2	18	"m"	"R"	376	2	3	3	0.744	1
603	3	2	18	"m"	"R"	377	3	1	1	0.74448	1
603	3	2	18	"m"	"R"	378	1	2	2	1.8018	1
603	3	2	18	"m"	"R"	379	22	1	1	1.5822	1
603	3	2	18	"m"	"R"	380	1	2	2	0.35213	1
603	3	2	18	"m"	"R"	381	2	3	3	0.43	1
603	3	2	18	"m"	"R"	382	3	1	1	1.0863	1
603	3	2	18	"m"	"R"	383	1	2	2	1.267	1
603	3	2	18	"m"	"R"	384	2	3	3	0.24907	1
603	3	2	18	"m"	"R"	385	3	1	1	0.31902	1
603	3	2	18	"m"	"R"	386	11	3	3	0.39949	1
603	3	2	18	"m"	"R"	387	3	1	1	0.53004	1
603	3	2	18	"m"	"R"	388	1	2	2	1.0155	1
603	3	2	18	"m"	"R"	389	22	1	1	0.51898	1
603	3	2	18	"m"	"R"	390	1	2	2	0.47419	1
603	3	2	18	"m"	"R"	391	2	3	3	0.31163	1
603	3	2	18	"m"	"R"	392	33	2	2	0.67096	1
603	3	2	18	"m"	"R"	393	2	3	1	0.41727	0
603	3	2	18	"m"	"R"	394	3	1	1	0.44724	1
603	3	2	18	"m"	"R"	395	1	2	2	0.2806	1
603	3	2	18	"m"	"R"	396	2	3	3	0.28764	1
603	3	2	18	"m"	"R"	397	22	1	1	0.35145	1
603	3	2	18	"m"	"R"	398	1	2	2	0.80133	1
603	3	2	18	"m"	"R"	399	2	3	3	0.30595	1
603	3	2	18	"m"	"R"	400	3	1	1	0.45463	1
603	3	2	18	"m"	"R"	401	1	2	2	0.25816	1
603	3	2	18	"m"	"R"	402	2	3	3	0.2789	1
603	3	2	18	"m"	"R"	403	33	2	2	0.52949	1
603	3	2	18	"m"	"R"	404	2	3	3	1.798	1
603	3	2	18	"m"	"R"	405	3	1	1	0.72005	1
603	3	2	18	"m"	"R"	406	1	2	2	0.44074	1
603	3	2	18	"m"	"R"	407	22	1	1	0.48039	1
