acc,accuracy,average_response_time,avg_rt,background,bidi,canvas_backend,clock_backend,color_backend,compensation,coordinates,correct,correct_facetest_response,correct_instructions,correct_sexrating_response,count_blank100,count_exemplarsequence,count_experiment,count_exposure,count_exposuresequence,count_faceexpose,count_facetest,count_facetest_response,count_instructions,count_logger,count_notes,count_sexrating,count_sexrating_response,count_test,count_testinstructions,datetime,description,disable_garbage_collection,experiment_file,experiment_path,faceno,fname,font_bold,font_family,font_italic,font_size,font_underline,foreground,form_clicks,fullscreen,height,keyboard_backend,live_row,live_row_exposure,logfile,mouse_backend,opensesame_codename,opensesame_version,phase,repeat_cycle,response,response_facetest_response,response_instructions,response_sexrating_response,response_testinstructions,response_time,response_time_facetest_response,response_time_instructions,response_time_sexrating_response,response_time_testinstructions,round_decimals,sampler_backend,shifttype,sound_buf_size,sound_channels,sound_freq,sound_sample_size,start,subject_nr,subject_parity,synth_backend,time_blank100,time_exemplarsequence,time_experiment,time_exposure,time_exposuresequence,time_faceexpose,time_facetest,time_facetest_response,time_instructions,time_logger,time_notes,time_sexrating,time_sexrating_response,time_test,time_testinstructions,title,total_correct,total_response_time,total_responses,transparent_variables,type,uniform_coordinates,width,xshift,yshift
undefined,undefined,864,864,white,no,legacy,legacy,legacy,0,relative,undefined,,undefined,undefined,0,,0,0,0,0,,,0,0,0,0,0,0,0,Wed 30 Oct 2019 11:28:06 GMT,,yes,facialproto_short.osexp,/home/andy/svn/rmip/docs/openseslib,6,0680.png,no,mono,no,18,no,black,no,no,1080,legacy,0,0,/home/andy/svn/rmip/docs/openseslib/subject-3.csv,legacy,Kafkaesque Koffka,3.2.7,exposure,0,6,,space,6,,864,,801,864,,2,legacy,horizontal,1024,2,48000,-16,experiment,3,odd,legacy,1499,,636,1442,1496,1614,,,641,3498,,2632,2634,,,Feature Shift Prototypes,0,864,1,no,,no,1920,8,0
undefined,undefined,749.5,749.5,white,no,legacy,legacy,legacy,0,relative,undefined,,undefined,undefined,1,,0,0,1,1,,,0,1,0,1,1,0,0,Wed 30 Oct 2019 11:28:06 GMT,,yes,facialproto_short.osexp,/home/andy/svn/rmip/docs/openseslib,1,010-8.png,no,mono,no,18,no,black,no,no,1080,legacy,1,1,/home/andy/svn/rmip/docs/openseslib/subject-3.csv,legacy,Kafkaesque Koffka,3.2.7,exposure,0,4,,space,4,,635,,801,635,,2,legacy,vertical,1024,2,48000,-16,experiment,3,odd,legacy,3620,,636,1442,3617,3723,,,641,5362,,4725,4726,,,Feature Shift Prototypes,0,1499,2,no,,no,1920,0,-8
undefined,undefined,720,720,white,no,legacy,legacy,legacy,0,relative,undefined,,undefined,undefined,2,,0,0,2,2,,,0,2,0,2,2,0,0,Wed 30 Oct 2019 11:28:06 GMT,,yes,facialproto_short.osexp,/home/andy/svn/rmip/docs/openseslib,3,0308.png,no,mono,no,18,no,black,no,no,1080,legacy,2,2,/home/andy/svn/rmip/docs/openseslib/subject-3.csv,legacy,Kafkaesque Koffka,3.2.7,exposure,0,5,,space,5,,661,,801,661,,2,legacy,vertical,1024,2,48000,-16,experiment,3,odd,legacy,5443,,636,1442,5440,5545,,,641,7210,,6548,6549,,,Feature Shift Prototypes,0,2160,3,no,,no,1920,0,8
undefined,undefined,767.5,767.5,white,no,legacy,legacy,legacy,0,relative,undefined,,undefined,undefined,3,,0,0,3,3,,,0,3,0,3,3,0,0,Wed 30 Oct 2019 11:28:06 GMT,,yes,facialproto_short.osexp,/home/andy/svn/rmip/docs/openseslib,4,04-80.png,no,mono,no,18,no,black,no,no,1080,legacy,3,3,/home/andy/svn/rmip/docs/openseslib/subject-3.csv,legacy,Kafkaesque Koffka,3.2.7,exposure,0,6,,space,6,,910,,801,910,,2,legacy,horizontal,1024,2,48000,-16,experiment,3,odd,legacy,7299,,636,1442,7296,7401,,,641,9314,,8403,8403,,,Feature Shift Prototypes,0,3070,4,no,,no,1920,-8,0
undefined,undefined,784,784,white,no,legacy,legacy,legacy,0,relative,undefined,,undefined,undefined,4,,0,0,4,4,,,0,4,0,4,4,0,0,Wed 30 Oct 2019 11:28:06 GMT,,yes,facialproto_short.osexp,/home/andy/svn/rmip/docs/openseslib,8,0880.png,no,mono,no,18,no,black,no,no,1080,legacy,4,4,/home/andy/svn/rmip/docs/openseslib/subject-3.csv,legacy,Kafkaesque Koffka,3.2.7,exposure,0,4,,space,4,,850,,801,850,,2,legacy,horizontal,1024,2,48000,-16,experiment,3,odd,legacy,9399,,636,1442,9396,9501,,,641,11354,,10503,10503,,,Feature Shift Prototypes,0,3920,5,no,,no,1920,8,0
undefined,undefined,804.5,804.5,white,no,legacy,legacy,legacy,0,relative,undefined,,undefined,undefined,5,,0,0,5,5,,,0,5,0,5,5,0,0,Wed 30 Oct 2019 11:28:06 GMT,,yes,facialproto_short.osexp,/home/andy/svn/rmip/docs/openseslib,6,06-80.png,no,mono,no,18,no,black,no,no,1080,legacy,5,5,/home/andy/svn/rmip/docs/openseslib/subject-3.csv,legacy,Kafkaesque Koffka,3.2.7,exposure,0,5,,space,5,,907,,801,907,,2,legacy,horizontal,1024,2,48000,-16,experiment,3,odd,legacy,11446,,636,1442,11443,11548,,,641,13458,,12550,12550,,,Feature Shift Prototypes,0,4827,6,no,,no,1920,-8,0
undefined,undefined,805.857142857,805.857142857,white,no,legacy,legacy,legacy,0,relative,undefined,,undefined,undefined,6,,0,0,6,6,,,0,6,0,6,6,0,0,Wed 30 Oct 2019 11:28:06 GMT,,yes,facialproto_short.osexp,/home/andy/svn/rmip/docs/openseslib,4,04-80.png,no,mono,no,18,no,black,no,no,1080,legacy,6,6,/home/andy/svn/rmip/docs/openseslib/subject-3.csv,legacy,Kafkaesque Koffka,3.2.7,exposure,0,6,,space,6,,814,,801,814,,2,legacy,horizontal,1024,2,48000,-16,experiment,3,odd,legacy,13545,,636,1442,13542,13647,,,641,15466,,14650,14651,,,Feature Shift Prototypes,0,5641,7,no,,no,1920,-8,0
undefined,undefined,805.375,805.375,white,no,legacy,legacy,legacy,0,relative,undefined,,undefined,undefined,7,,0,0,7,7,,,0,7,0,7,7,0,0,Wed 30 Oct 2019 11:28:06 GMT,,yes,facialproto_short.osexp,/home/andy/svn/rmip/docs/openseslib,4,0480.png,no,mono,no,18,no,black,no,no,1080,legacy,7,7,/home/andy/svn/rmip/docs/openseslib/subject-3.csv,legacy,Kafkaesque Koffka,3.2.7,exposure,0,4,,space,4,,802,,801,802,,2,legacy,horizontal,1024,2,48000,-16,experiment,3,odd,legacy,15582,,636,1442,15579,15684,,,641,17490,,16687,16687,,,Feature Shift Prototypes,0,6443,8,no,,no,1920,8,0
undefined,undefined,804.888888889,804.888888889,white,no,legacy,legacy,legacy,0,relative,undefined,,undefined,undefined,8,,0,0,8,8,,,0,8,0,8,8,0,0,Wed 30 Oct 2019 11:28:06 GMT,,yes,facialproto_short.osexp,/home/andy/svn/rmip/docs/openseslib,2,0280.png,no,mono,no,18,no,black,no,no,1080,legacy,8,8,/home/andy/svn/rmip/docs/openseslib/subject-3.csv,legacy,Kafkaesque Koffka,3.2.7,exposure,0,3,,space,3,,801,,801,801,,2,legacy,horizontal,1024,2,48000,-16,experiment,3,odd,legacy,17608,,636,1442,17605,17710,,,641,19514,,18712,18712,,,Feature Shift Prototypes,0,7244,9,no,,no,1920,8,0
undefined,undefined,813.3,813.3,white,no,legacy,legacy,legacy,0,relative,undefined,,undefined,undefined,9,,0,0,9,9,,,0,9,0,9,9,0,0,Wed 30 Oct 2019 11:28:06 GMT,,yes,facialproto_short.osexp,/home/andy/svn/rmip/docs/openseslib,5,0508.png,no,mono,no,18,no,black,no,no,1080,legacy,9,9,/home/andy/svn/rmip/docs/openseslib/subject-3.csv,legacy,Kafkaesque Koffka,3.2.7,exposure,0,5,,space,5,,889,,801,889,,2,legacy,vertical,1024,2,48000,-16,experiment,3,odd,legacy,19631,,636,1442,19628,19734,,,641,21626,,20736,20736,,,Feature Shift Prototypes,0,8133,10,no,,no,1920,0,8
undefined,undefined,822.454545455,822.454545455,white,no,legacy,legacy,legacy,0,relative,undefined,,undefined,undefined,10,,0,0,10,10,,,0,10,0,10,10,0,0,Wed 30 Oct 2019 11:28:06 GMT,,yes,facialproto_short.osexp,/home/andy/svn/rmip/docs/openseslib,7,070-8.png,no,mono,no,18,no,black,no,no,1080,legacy,10,10,/home/andy/svn/rmip/docs/openseslib/subject-3.csv,legacy,Kafkaesque Koffka,3.2.7,exposure,0,6,,space,6,,914,,801,914,,2,legacy,vertical,1024,2,48000,-16,experiment,3,odd,legacy,21718,,636,1442,21715,21821,,,641,23738,,22824,22824,,,Feature Shift Prototypes,0,9047,11,no,,no,1920,0,-8
undefined,undefined,827.833333333,827.833333333,white,no,legacy,legacy,legacy,0,relative,undefined,,undefined,undefined,11,,0,0,11,11,,,0,11,0,11,11,0,0,Wed 30 Oct 2019 11:28:06 GMT,,yes,facialproto_short.osexp,/home/andy/svn/rmip/docs/openseslib,6,0680.png,no,mono,no,18,no,black,no,no,1080,legacy,11,11,/home/andy/svn/rmip/docs/openseslib/subject-3.csv,legacy,Kafkaesque Koffka,3.2.7,exposure,0,5,,space,5,,887,,801,887,,2,legacy,horizontal,1024,2,48000,-16,experiment,3,odd,legacy,23843,,636,1442,23840,23945,,,641,25834,,24947,24947,,,Feature Shift Prototypes,0,9934,12,no,,no,1920,8,0
undefined,undefined,828.923076923,828.923076923,white,no,legacy,legacy,legacy,0,relative,undefined,,undefined,undefined,12,,0,0,12,12,,,0,12,0,12,12,0,0,Wed 30 Oct 2019 11:28:06 GMT,,yes,facialproto_short.osexp,/home/andy/svn/rmip/docs/openseslib,1,0108.png,no,mono,no,18,no,black,no,no,1080,legacy,12,12,/home/andy/svn/rmip/docs/openseslib/subject-3.csv,legacy,Kafkaesque Koffka,3.2.7,exposure,0,4,,space,4,,842,,801,842,,2,legacy,vertical,1024,2,48000,-16,experiment,3,odd,legacy,25919,,636,1442,25916,26021,,,641,27866,,27023,27024,,,Feature Shift Prototypes,0,10776,13,no,,no,1920,0,8
undefined,undefined,829.928571429,829.928571429,white,no,legacy,legacy,legacy,0,relative,undefined,,undefined,undefined,13,,0,0,13,13,,,0,13,0,13,13,0,0,Wed 30 Oct 2019 11:28:06 GMT,,yes,facialproto_short.osexp,/home/andy/svn/rmip/docs/openseslib,8,08-80.png,no,mono,no,18,no,black,no,no,1080,legacy,13,13,/home/andy/svn/rmip/docs/openseslib/subject-3.csv,legacy,Kafkaesque Koffka,3.2.7,exposure,0,6,,space,6,,843,,801,843,,2,legacy,horizontal,1024,2,48000,-16,experiment,3,odd,legacy,27966,,636,1442,27963,28068,,,641,29914,,29070,29071,,,Feature Shift Prototypes,0,11619,14,no,,no,1920,-8,0
undefined,undefined,847.133333333,847.133333333,white,no,legacy,legacy,legacy,0,relative,undefined,,undefined,undefined,14,,0,0,14,14,,,0,14,0,14,14,0,0,Wed 30 Oct 2019 11:28:06 GMT,,yes,facialproto_short.osexp,/home/andy/svn/rmip/docs/openseslib,8,08-80.png,no,mono,no,18,no,black,no,no,1080,legacy,14,14,/home/andy/svn/rmip/docs/openseslib/subject-3.csv,legacy,Kafkaesque Koffka,3.2.7,exposure,0,5,,space,5,,1088,,801,1088,,2,legacy,horizontal,1024,2,48000,-16,experiment,3,odd,legacy,30002,,636,1442,30000,30104,,,641,32196,,31106,31107,,,Feature Shift Prototypes,0,12707,15,no,,no,1920,-8,0
undefined,undefined,794.5,794.5,white,no,legacy,legacy,legacy,0,relative,undefined,,undefined,undefined,15,,0,0,15,15,,,0,15,0,15,15,0,0,Wed 30 Oct 2019 11:28:06 GMT,,yes,facialproto_short.osexp,/home/andy/svn/rmip/docs/openseslib,2,02-80.png,no,mono,no,18,no,black,no,no,1080,legacy,15,15,/home/andy/svn/rmip/docs/openseslib/subject-3.csv,legacy,Kafkaesque Koffka,3.2.7,exposure,0,5,,space,5,,5,,801,5,,2,legacy,horizontal,1024,2,48000,-16,experiment,3,odd,legacy,32277,,636,1442,32275,32379,,,641,33387,,33381,33381,,,Feature Shift Prototypes,0,12712,16,no,,no,1920,-8,0
undefined,undefined,801.882352941,801.882352941,white,no,legacy,legacy,legacy,0,relative,undefined,,undefined,undefined,16,,0,0,16,16,,,0,16,0,16,16,0,0,Wed 30 Oct 2019 11:28:06 GMT,,yes,facialproto_short.osexp,/home/andy/svn/rmip/docs/openseslib,6,06-80.png,no,mono,no,18,no,black,no,no,1080,legacy,16,16,/home/andy/svn/rmip/docs/openseslib/subject-3.csv,legacy,Kafkaesque Koffka,3.2.7,exposure,0,6,,space,6,,920,,801,920,,2,legacy,horizontal,1024,2,48000,-16,experiment,3,odd,legacy,33481,,636,1442,33478,33583,,,641,35505,,34585,34585,,,Feature Shift Prototypes,0,13632,17,no,,no,1920,-8,0
undefined,undefined,803.333333333,803.333333333,white,no,legacy,legacy,legacy,0,relative,undefined,,undefined,undefined,17,,0,0,17,17,,,0,17,0,17,17,0,0,Wed 30 Oct 2019 11:28:06 GMT,,yes,facialproto_short.osexp,/home/andy/svn/rmip/docs/openseslib,7,0708.png,no,mono,no,18,no,black,no,no,1080,legacy,17,17,/home/andy/svn/rmip/docs/openseslib/subject-3.csv,legacy,Kafkaesque Koffka,3.2.7,exposure,0,4,,space,4,,828,,801,828,,2,legacy,vertical,1024,2,48000,-16,experiment,3,odd,legacy,35587,,636,1442,35584,35689,,,641,37521,,36692,36693,,,Feature Shift Prototypes,0,14460,18,no,,no,1920,0,8
undefined,undefined,803,803,white,no,legacy,legacy,legacy,0,relative,undefined,,undefined,undefined,18,,0,0,18,18,,,0,18,0,18,18,0,0,Wed 30 Oct 2019 11:28:06 GMT,,yes,facialproto_short.osexp,/home/andy/svn/rmip/docs/openseslib,2,02-80.png,no,mono,no,18,no,black,no,no,1080,legacy,18,18,/home/andy/svn/rmip/docs/openseslib/subject-3.csv,legacy,Kafkaesque Koffka,3.2.7,exposure,0,6,,space,6,,797,,801,797,,2,legacy,horizontal,1024,2,48000,-16,experiment,3,odd,legacy,37603,,636,1442,37600,37705,,,641,39505,,38707,38708,,,Feature Shift Prototypes,0,15257,19,no,,no,1920,-8,0
undefined,undefined,802.25,802.25,white,no,legacy,legacy,legacy,0,relative,undefined,,undefined,undefined,19,,0,0,19,19,,,0,19,0,19,19,0,0,Wed 30 Oct 2019 11:28:06 GMT,,yes,facialproto_short.osexp,/home/andy/svn/rmip/docs/openseslib,3,030-8.png,no,mono,no,18,no,black,no,no,1080,legacy,19,19,/home/andy/svn/rmip/docs/openseslib/subject-3.csv,legacy,Kafkaesque Koffka,3.2.7,exposure,0,4,,space,4,,788,,801,788,,2,legacy,vertical,1024,2,48000,-16,experiment,3,odd,legacy,39604,,636,1442,39601,39706,,,641,41497,,40708,40709,,,Feature Shift Prototypes,0,16045,20,no,,no,1920,0,-8
undefined,undefined,799.761904762,799.761904762,white,no,legacy,legacy,legacy,0,relative,undefined,,undefined,undefined,20,,0,0,20,20,,,0,20,0,20,20,0,0,Wed 30 Oct 2019 11:28:06 GMT,,yes,facialproto_short.osexp,/home/andy/svn/rmip/docs/openseslib,2,0280.png,no,mono,no,18,no,black,no,no,1080,legacy,20,20,/home/andy/svn/rmip/docs/openseslib/subject-3.csv,legacy,Kafkaesque Koffka,3.2.7,exposure,0,6,,space,6,,750,,801,750,,2,legacy,horizontal,1024,2,48000,-16,experiment,3,odd,legacy,41603,,636,1442,41600,41705,,,641,43457,,42707,42707,,,Feature Shift Prototypes,0,16795,21,no,,no,1920,8,0
undefined,undefined,806.227272727,806.227272727,white,no,legacy,legacy,legacy,0,relative,undefined,,undefined,undefined,21,,0,0,21,21,,,0,21,0,21,21,0,0,Wed 30 Oct 2019 11:28:06 GMT,,yes,facialproto_short.osexp,/home/andy/svn/rmip/docs/openseslib,4,0480.png,no,mono,no,18,no,black,no,no,1080,legacy,21,21,/home/andy/svn/rmip/docs/openseslib/subject-3.csv,legacy,Kafkaesque Koffka,3.2.7,exposure,0,4,,space,4,,942,,801,942,,2,legacy,horizontal,1024,2,48000,-16,experiment,3,odd,legacy,43538,,636,1442,43535,43640,,,641,45585,,44642,44643,,,Feature Shift Prototypes,0,17737,22,no,,no,1920,8,0
undefined,undefined,803.434782609,803.434782609,white,no,legacy,legacy,legacy,0,relative,undefined,,undefined,undefined,22,,0,0,22,22,,,0,22,0,22,22,0,0,Wed 30 Oct 2019 11:28:06 GMT,,yes,facialproto_short.osexp,/home/andy/svn/rmip/docs/openseslib,1,0108.png,no,mono,no,18,no,black,no,no,1080,legacy,22,22,/home/andy/svn/rmip/docs/openseslib/subject-3.csv,legacy,Kafkaesque Koffka,3.2.7,exposure,0,6,,space,6,,742,,801,742,,2,legacy,vertical,1024,2,48000,-16,experiment,3,odd,legacy,45682,,636,1442,45679,45784,,,641,47529,,46787,46787,,,Feature Shift Prototypes,0,18479,23,no,,no,1920,0,8
undefined,undefined,803.708333333,803.708333333,white,no,legacy,legacy,legacy,0,relative,undefined,,undefined,undefined,23,,0,0,23,23,,,0,23,0,23,23,0,0,Wed 30 Oct 2019 11:28:06 GMT,,yes,facialproto_short.osexp,/home/andy/svn/rmip/docs/openseslib,3,030-8.png,no,mono,no,18,no,black,no,no,1080,legacy,23,23,/home/andy/svn/rmip/docs/openseslib/subject-3.csv,legacy,Kafkaesque Koffka,3.2.7,exposure,0,4,,space,4,,810,,801,810,,2,legacy,vertical,1024,2,48000,-16,experiment,3,odd,legacy,47623,,636,1442,47620,47725,,,641,49537,,48727,48727,,,Feature Shift Prototypes,0,19289,24,no,,no,1920,0,-8
undefined,undefined,802.12,802.12,white,no,legacy,legacy,legacy,0,relative,undefined,,undefined,undefined,24,,0,0,24,24,,,0,24,0,24,24,0,0,Wed 30 Oct 2019 11:28:06 GMT,,yes,facialproto_short.osexp,/home/andy/svn/rmip/docs/openseslib,1,010-8.png,no,mono,no,18,no,black,no,no,1080,legacy,24,24,/home/andy/svn/rmip/docs/openseslib/subject-3.csv,legacy,Kafkaesque Koffka,3.2.7,exposure,0,6,,space,6,,764,,801,764,,2,legacy,vertical,1024,2,48000,-16,experiment,3,odd,legacy,49619,,636,1442,49616,49721,,,641,51489,,50724,50724,,,Feature Shift Prototypes,0,20053,25,no,,no,1920,0,-8
undefined,undefined,797.769230769,797.769230769,white,no,legacy,legacy,legacy,0,relative,undefined,,undefined,undefined,25,,0,0,25,25,,,0,25,0,25,25,0,0,Wed 30 Oct 2019 11:28:06 GMT,,yes,facialproto_short.osexp,/home/andy/svn/rmip/docs/openseslib,8,0880.png,no,mono,no,18,no,black,no,no,1080,legacy,25,25,/home/andy/svn/rmip/docs/openseslib/subject-3.csv,legacy,Kafkaesque Koffka,3.2.7,exposure,0,4,,space,4,,689,,801,689,,2,legacy,horizontal,1024,2,48000,-16,experiment,3,odd,legacy,51588,,636,1442,51585,51701,,,641,53393,,52704,52704,,,Feature Shift Prototypes,0,20742,26,no,,no,1920,8,0
undefined,undefined,800.037037037,800.037037037,white,no,legacy,legacy,legacy,0,relative,undefined,,undefined,undefined,26,,0,0,26,26,,,0,26,0,26,26,0,0,Wed 30 Oct 2019 11:28:06 GMT,,yes,facialproto_short.osexp,/home/andy/svn/rmip/docs/openseslib,5,050-8.png,no,mono,no,18,no,black,no,no,1080,legacy,26,26,/home/andy/svn/rmip/docs/openseslib/subject-3.csv,legacy,Kafkaesque Koffka,3.2.7,exposure,0,6,,space,6,,859,,801,859,,2,legacy,vertical,1024,2,48000,-16,experiment,3,odd,legacy,53476,,636,1442,53473,53578,,,641,55441,,54580,54581,,,Feature Shift Prototypes,0,21601,27,no,,no,1920,0,-8
undefined,undefined,799.035714286,799.035714286,white,no,legacy,legacy,legacy,0,relative,undefined,,undefined,undefined,27,,0,0,27,27,,,0,27,0,27,27,0,0,Wed 30 Oct 2019 11:28:06 GMT,,yes,facialproto_short.osexp,/home/andy/svn/rmip/docs/openseslib,3,0308.png,no,mono,no,18,no,black,no,no,1080,legacy,27,27,/home/andy/svn/rmip/docs/openseslib/subject-3.csv,legacy,Kafkaesque Koffka,3.2.7,exposure,0,4,,space,4,,772,,801,772,,2,legacy,vertical,1024,2,48000,-16,experiment,3,odd,legacy,55523,,636,1442,55520,55625,,,641,57401,,56627,56628,,,Feature Shift Prototypes,0,22373,28,no,,no,1920,0,8
undefined,undefined,791.24137931,791.24137931,white,no,legacy,legacy,legacy,0,relative,undefined,,undefined,undefined,28,,0,0,28,28,,,0,28,0,28,28,0,0,Wed 30 Oct 2019 11:28:06 GMT,,yes,facialproto_short.osexp,/home/andy/svn/rmip/docs/openseslib,7,070-8.png,no,mono,no,18,no,black,no,no,1080,legacy,28,28,/home/andy/svn/rmip/docs/openseslib/subject-3.csv,legacy,Kafkaesque Koffka,3.2.7,exposure,0,5,,space,5,,573,,801,573,,2,legacy,vertical,1024,2,48000,-16,experiment,3,odd,legacy,57481,,636,1442,57479,57584,,,641,59159,,58586,58586,,,Feature Shift Prototypes,0,22946,29,no,,no,1920,0,-8
undefined,undefined,781.333333333,781.333333333,white,no,legacy,legacy,legacy,0,relative,undefined,,undefined,undefined,29,,0,0,29,29,,,0,29,0,29,29,0,0,Wed 30 Oct 2019 11:28:06 GMT,,yes,facialproto_short.osexp,/home/andy/svn/rmip/docs/openseslib,5,050-8.png,no,mono,no,18,no,black,no,no,1080,legacy,29,29,/home/andy/svn/rmip/docs/openseslib/subject-3.csv,legacy,Kafkaesque Koffka,3.2.7,exposure,0,3,,space,3,,494,,801,494,,2,legacy,vertical,1024,2,48000,-16,experiment,3,odd,legacy,59259,,636,1442,59256,59361,,,641,60858,,60363,60363,,,Feature Shift Prototypes,0,23440,30,no,,no,1920,0,-8
undefined,undefined,776.193548387,776.193548387,white,no,legacy,legacy,legacy,0,relative,undefined,,undefined,undefined,30,,0,0,30,30,,,0,30,0,30,30,0,0,Wed 30 Oct 2019 11:28:06 GMT,,yes,facialproto_short.osexp,/home/andy/svn/rmip/docs/openseslib,7,0708.png,no,mono,no,18,no,black,no,no,1080,legacy,30,30,/home/andy/svn/rmip/docs/openseslib/subject-3.csv,legacy,Kafkaesque Koffka,3.2.7,exposure,0,6,,space,6,,622,,801,622,,2,legacy,vertical,1024,2,48000,-16,experiment,3,odd,legacy,60938,,636,1442,60936,61040,,,641,62664,,62042,62042,,,Feature Shift Prototypes,0,24062,31,no,,no,1920,0,8
undefined,undefined,768.5,768.5,white,no,legacy,legacy,legacy,0,relative,undefined,,undefined,undefined,31,,0,0,31,31,,,0,31,0,31,31,0,0,Wed 30 Oct 2019 11:28:06 GMT,,yes,facialproto_short.osexp,/home/andy/svn/rmip/docs/openseslib,5,0508.png,no,mono,no,18,no,black,no,no,1080,legacy,31,31,/home/andy/svn/rmip/docs/openseslib/subject-3.csv,legacy,Kafkaesque Koffka,3.2.7,exposure,0,4,,space,4,,530,,801,530,,2,legacy,vertical,1024,2,48000,-16,experiment,3,odd,legacy,62758,,636,1442,62755,62860,,,641,64393,,63862,63862,,,Feature Shift Prototypes,0,24592,32,no,,no,1920,0,8
undefined,undefined,785.606060606,785.606060606,white,no,legacy,legacy,legacy,0,relative,undefined,undefined,undefined,undefined,32,0,0,0,31,31,0,0,0,32,0,31,31,0,0,Wed 30 Oct 2019 11:28:06 GMT,,yes,facialproto_short.osexp,/home/andy/svn/rmip/docs/openseslib,1,01012.png,no,mono,no,18,no,black,no,no,1080,legacy,0,31,/home/andy/svn/rmip/docs/openseslib/subject-3.csv,legacy,Kafkaesque Koffka,3.2.7,test,0,7,7,space,4,space,1333,1333,801,530,985,2,legacy,vertical,1024,2,48000,-16,experiment,3,odd,legacy,65461,65458,636,1442,62755,62860,65564,65564,641,66898,,63862,63862,65425,64439,Feature Shift Prototypes,0,25925,33,no,unseen,no,1920,0,12
undefined,undefined,778.852941176,778.852941176,white,no,legacy,legacy,legacy,0,relative,undefined,undefined,undefined,undefined,33,1,0,0,31,31,1,1,0,33,0,31,31,0,0,Wed 30 Oct 2019 11:28:06 GMT,,yes,facialproto_short.osexp,/home/andy/svn/rmip/docs/openseslib,3,0300.png,no,mono,no,18,no,black,no,no,1080,legacy,1,31,/home/andy/svn/rmip/docs/openseslib/subject-3.csv,legacy,Kafkaesque Koffka,3.2.7,test,0,3,3,space,4,space,556,556,801,530,985,2,legacy,vertical,1024,2,48000,-16,experiment,3,odd,legacy,66973,66971,636,1442,62755,62860,67076,67076,641,67633,,63862,63862,65425,64439,Feature Shift Prototypes,0,26481,34,no,prototype,no,1920,0,0
undefined,undefined,766.342857143,766.342857143,white,no,legacy,legacy,legacy,0,relative,undefined,undefined,undefined,undefined,34,2,0,0,31,31,2,2,0,34,0,31,31,0,0,Wed 30 Oct 2019 11:28:06 GMT,,yes,facialproto_short.osexp,/home/andy/svn/rmip/docs/openseslib,5,05012.png,no,mono,no,18,no,black,no,no,1080,legacy,2,31,/home/andy/svn/rmip/docs/openseslib/subject-3.csv,legacy,Kafkaesque Koffka,3.2.7,test,0,4,4,space,4,space,341,341,801,530,985,2,legacy,vertical,1024,2,48000,-16,experiment,3,odd,legacy,67733,67729,636,1442,62755,62860,67835,67835,641,68177,,63862,63862,65425,64439,Feature Shift Prototypes,0,26822,35,no,unseen,no,1920,0,12
undefined,undefined,751.861111111,751.861111111,white,no,legacy,legacy,legacy,0,relative,undefined,undefined,undefined,undefined,35,3,0,0,31,31,3,3,0,35,0,31,31,0,0,Wed 30 Oct 2019 11:28:06 GMT,,yes,facialproto_short.osexp,/home/andy/svn/rmip/docs/openseslib,2,02-80.png,no,mono,no,18,no,black,no,no,1080,legacy,3,31,/home/andy/svn/rmip/docs/openseslib/subject-3.csv,legacy,Kafkaesque Koffka,3.2.7,test,0,6,6,space,4,space,245,245,801,530,985,2,legacy,horizontal,1024,2,48000,-16,experiment,3,odd,legacy,68260,68257,636,1442,62755,62860,68362,68363,641,68608,,63862,63862,65425,64439,Feature Shift Prototypes,0,27067,36,no,seen,no,1920,-8,0
undefined,undefined,738.837837838,738.837837838,white,no,legacy,legacy,legacy,0,relative,undefined,undefined,undefined,undefined,36,4,0,0,31,31,4,4,0,36,0,31,31,0,0,Wed 30 Oct 2019 11:28:06 GMT,,yes,facialproto_short.osexp,/home/andy/svn/rmip/docs/openseslib,3,0308.png,no,mono,no,18,no,black,no,no,1080,legacy,4,31,/home/andy/svn/rmip/docs/openseslib/subject-3.csv,legacy,Kafkaesque Koffka,3.2.7,test,0,2,2,space,4,space,270,270,801,530,985,2,legacy,vertical,1024,2,48000,-16,experiment,3,odd,legacy,68683,68680,636,1442,62755,62860,68785,68786,641,69057,,63862,63862,65425,64439,Feature Shift Prototypes,0,27337,37,no,seen,no,1920,0,8
undefined,undefined,737.763157895,737.763157895,white,no,legacy,legacy,legacy,0,relative,undefined,undefined,undefined,undefined,37,5,0,0,31,31,5,5,0,37,0,31,31,0,0,Wed 30 Oct 2019 11:28:06 GMT,,yes,facialproto_short.osexp,/home/andy/svn/rmip/docs/openseslib,7,0700.png,no,mono,no,18,no,black,no,no,1080,legacy,5,31,/home/andy/svn/rmip/docs/openseslib/subject-3.csv,legacy,Kafkaesque Koffka,3.2.7,test,0,6,6,space,4,space,698,698,801,530,985,2,legacy,vertical,1024,2,48000,-16,experiment,3,odd,legacy,69128,69125,636,1442,62755,62860,69230,69230,641,69930,,63862,63862,65425,64439,Feature Shift Prototypes,0,28035,38,no,prototype,no,1920,0,0
undefined,undefined,736.461538462,736.461538462,white,no,legacy,legacy,legacy,0,relative,undefined,undefined,undefined,undefined,38,6,0,0,31,31,6,6,0,38,0,31,31,0,0,Wed 30 Oct 2019 11:28:06 GMT,,yes,facialproto_short.osexp,/home/andy/svn/rmip/docs/openseslib,8,0800.png,no,mono,no,18,no,black,no,no,1080,legacy,6,31,/home/andy/svn/rmip/docs/openseslib/subject-3.csv,legacy,Kafkaesque Koffka,3.2.7,test,0,3,3,space,4,space,687,687,801,530,985,2,legacy,horizontal,1024,2,48000,-16,experiment,3,odd,legacy,70011,70008,636,1442,62755,62860,70113,70114,641,70801,,63862,63862,65425,64439,Feature Shift Prototypes,0,28722,39,no,prototype,no,1920,0,0
undefined,undefined,736.225,736.225,white,no,legacy,legacy,legacy,0,relative,undefined,undefined,undefined,undefined,39,7,0,0,31,31,7,7,0,39,0,31,31,0,0,Wed 30 Oct 2019 11:28:06 GMT,,yes,facialproto_short.osexp,/home/andy/svn/rmip/docs/openseslib,7,070-12.png,no,mono,no,18,no,black,no,no,1080,legacy,7,31,/home/andy/svn/rmip/docs/openseslib/subject-3.csv,legacy,Kafkaesque Koffka,3.2.7,test,0,6,6,space,4,space,727,727,801,530,985,2,legacy,vertical,1024,2,48000,-16,experiment,3,odd,legacy,70891,70888,636,1442,62755,62860,70993,70993,641,71720,,63862,63862,65425,64439,Feature Shift Prototypes,0,29449,40,no,unseen,no,1920,0,-12
undefined,undefined,733.170731707,733.170731707,white,no,legacy,legacy,legacy,0,relative,undefined,undefined,undefined,undefined,40,8,0,0,31,31,8,8,0,40,0,31,31,0,0,Wed 30 Oct 2019 11:28:06 GMT,,yes,facialproto_short.osexp,/home/andy/svn/rmip/docs/openseslib,8,0880.png,no,mono,no,18,no,black,no,no,1080,legacy,8,31,/home/andy/svn/rmip/docs/openseslib/subject-3.csv,legacy,Kafkaesque Koffka,3.2.7,test,0,5,5,space,4,space,611,611,801,530,985,2,legacy,horizontal,1024,2,48000,-16,experiment,3,odd,legacy,71806,71803,636,1442,62755,62860,71909,71909,641,72520,,63862,63862,65425,64439,Feature Shift Prototypes,0,30060,41,no,seen,no,1920,8,0
undefined,undefined,735.047619048,735.047619048,white,no,legacy,legacy,legacy,0,relative,undefined,undefined,undefined,undefined,41,9,0,0,31,31,9,9,0,41,0,31,31,0,0,Wed 30 Oct 2019 11:28:06 GMT,,yes,facialproto_short.osexp,/home/andy/svn/rmip/docs/openseslib,4,0480.png,no,mono,no,18,no,black,no,no,1080,legacy,9,31,/home/andy/svn/rmip/docs/openseslib/subject-3.csv,legacy,Kafkaesque Koffka,3.2.7,test,0,3,3,space,4,space,812,812,801,530,985,2,legacy,horizontal,1024,2,48000,-16,experiment,3,odd,legacy,72596,72593,636,1442,62755,62860,72699,72700,641,73513,,63862,63862,65425,64439,Feature Shift Prototypes,0,30872,42,no,seen,no,1920,8,0
undefined,undefined,727.139534884,727.139534884,white,no,legacy,legacy,legacy,0,relative,undefined,undefined,undefined,undefined,42,10,0,0,31,31,10,10,0,42,0,31,31,0,0,Wed 30 Oct 2019 11:28:06 GMT,,yes,facialproto_short.osexp,/home/andy/svn/rmip/docs/openseslib,6,0600.png,no,mono,no,18,no,black,no,no,1080,legacy,10,31,/home/andy/svn/rmip/docs/openseslib/subject-3.csv,legacy,Kafkaesque Koffka,3.2.7,test,0,4,4,space,4,space,395,395,801,530,985,2,legacy,horizontal,1024,2,48000,-16,experiment,3,odd,legacy,73606,73603,636,1442,62755,62860,73708,73709,641,74105,,63862,63862,65425,64439,Feature Shift Prototypes,0,31267,43,no,prototype,no,1920,0,0
undefined,undefined,722.068181818,722.068181818,white,no,legacy,legacy,legacy,0,relative,undefined,undefined,undefined,undefined,43,11,0,0,31,31,11,11,0,43,0,31,31,0,0,Wed 30 Oct 2019 11:28:06 GMT,,yes,facialproto_short.osexp,/home/andy/svn/rmip/docs/openseslib,5,0500.png,no,mono,no,18,no,black,no,no,1080,legacy,11,31,/home/andy/svn/rmip/docs/openseslib/subject-3.csv,legacy,Kafkaesque Koffka,3.2.7,test,0,7,7,space,4,space,504,504,801,530,985,2,legacy,vertical,1024,2,48000,-16,experiment,3,odd,legacy,74195,74192,636,1442,62755,62860,74297,74297,641,74801,,63862,63862,65425,64439,Feature Shift Prototypes,0,31771,44,no,prototype,no,1920,0,0
undefined,undefined,714.711111111,714.711111111,white,no,legacy,legacy,legacy,0,relative,undefined,undefined,undefined,undefined,44,12,0,0,31,31,12,12,0,44,0,31,31,0,0,Wed 30 Oct 2019 11:28:06 GMT,,yes,facialproto_short.osexp,/home/andy/svn/rmip/docs/openseslib,3,030-12.png,no,mono,no,18,no,black,no,no,1080,legacy,12,31,/home/andy/svn/rmip/docs/openseslib/subject-3.csv,legacy,Kafkaesque Koffka,3.2.7,test,0,3,3,space,4,space,391,391,801,530,985,2,legacy,vertical,1024,2,48000,-16,experiment,3,odd,legacy,74874,74871,636,1442,62755,62860,74976,74977,641,75368,,63862,63862,65425,64439,Feature Shift Prototypes,0,32162,45,no,unseen,no,1920,0,-12
undefined,undefined,708.086956522,708.086956522,white,no,legacy,legacy,legacy,0,relative,undefined,undefined,undefined,undefined,45,13,0,0,31,31,13,13,0,45,0,31,31,0,0,Wed 30 Oct 2019 11:28:06 GMT,,yes,facialproto_short.osexp,/home/andy/svn/rmip/docs/openseslib,6,06-80.png,no,mono,no,18,no,black,no,no,1080,legacy,13,31,/home/andy/svn/rmip/docs/openseslib/subject-3.csv,legacy,Kafkaesque Koffka,3.2.7,test,0,5,5,space,4,space,410,410,801,530,985,2,legacy,horizontal,1024,2,48000,-16,experiment,3,odd,legacy,75441,75438,636,1442,62755,62860,75543,75543,641,75953,,63862,63862,65425,64439,Feature Shift Prototypes,0,32572,46,no,seen,no,1920,-8,0
undefined,undefined,705.808510638,705.808510638,white,no,legacy,legacy,legacy,0,relative,undefined,undefined,undefined,undefined,46,14,0,0,31,31,14,14,0,46,0,31,31,0,0,Wed 30 Oct 2019 11:28:06 GMT,,yes,facialproto_short.osexp,/home/andy/svn/rmip/docs/openseslib,1,010-8.png,no,mono,no,18,no,black,no,no,1080,legacy,14,31,/home/andy/svn/rmip/docs/openseslib/subject-3.csv,legacy,Kafkaesque Koffka,3.2.7,test,0,3,3,space,4,space,601,601,801,530,985,2,legacy,vertical,1024,2,48000,-16,experiment,3,odd,legacy,76024,76022,636,1442,62755,62860,76127,76127,641,76729,,63862,63862,65425,64439,Feature Shift Prototypes,0,33173,47,no,seen,no,1920,0,-8
undefined,undefined,703.479166667,703.479166667,white,no,legacy,legacy,legacy,0,relative,undefined,undefined,undefined,undefined,47,15,0,0,31,31,15,15,0,47,0,31,31,0,0,Wed 30 Oct 2019 11:28:06 GMT,,yes,facialproto_short.osexp,/home/andy/svn/rmip/docs/openseslib,4,04-120.png,no,mono,no,18,no,black,no,no,1080,legacy,15,31,/home/andy/svn/rmip/docs/openseslib/subject-3.csv,legacy,Kafkaesque Koffka,3.2.7,test,0,6,6,space,4,space,594,594,801,530,985,2,legacy,horizontal,1024,2,48000,-16,experiment,3,odd,legacy,76822,76820,636,1442,62755,62860,76926,76926,641,77520,,63862,63862,65425,64439,Feature Shift Prototypes,0,33767,48,no,unseen,no,1920,-12,0
undefined,undefined,696.306122449,696.306122449,white,no,legacy,legacy,legacy,0,relative,undefined,undefined,undefined,undefined,48,16,0,0,31,31,16,16,0,48,0,31,31,0,0,Wed 30 Oct 2019 11:28:06 GMT,,yes,facialproto_short.osexp,/home/andy/svn/rmip/docs/openseslib,4,0400.png,no,mono,no,18,no,black,no,no,1080,legacy,16,31,/home/andy/svn/rmip/docs/openseslib/subject-3.csv,legacy,Kafkaesque Koffka,3.2.7,test,0,5,5,space,4,space,352,352,801,530,985,2,legacy,horizontal,1024,2,48000,-16,experiment,3,odd,legacy,77593,77590,636,1442,62755,62860,77695,77696,641,78048,,63862,63862,65425,64439,Feature Shift Prototypes,0,34119,49,no,prototype,no,1920,0,0
undefined,undefined,691.68,691.68,white,no,legacy,legacy,legacy,0,relative,undefined,undefined,undefined,undefined,49,17,0,0,31,31,17,17,0,49,0,31,31,0,0,Wed 30 Oct 2019 11:28:06 GMT,,yes,facialproto_short.osexp,/home/andy/svn/rmip/docs/openseslib,5,050-8.png,no,mono,no,18,no,black,no,no,1080,legacy,17,31,/home/andy/svn/rmip/docs/openseslib/subject-3.csv,legacy,Kafkaesque Koffka,3.2.7,test,0,3,3,space,4,space,465,465,801,530,985,2,legacy,vertical,1024,2,48000,-16,experiment,3,odd,legacy,78121,78118,636,1442,62755,62860,78223,78223,641,78688,,63862,63862,65425,64439,Feature Shift Prototypes,0,34584,50,no,seen,no,1920,0,-8
undefined,undefined,686.784313725,686.784313725,white,no,legacy,legacy,legacy,0,relative,undefined,undefined,undefined,undefined,50,18,0,0,31,31,18,18,0,50,0,31,31,0,0,Wed 30 Oct 2019 11:28:06 GMT,,yes,facialproto_short.osexp,/home/andy/svn/rmip/docs/openseslib,2,0200.png,no,mono,no,18,no,black,no,no,1080,legacy,18,31,/home/andy/svn/rmip/docs/openseslib/subject-3.csv,legacy,Kafkaesque Koffka,3.2.7,test,0,4,4,space,4,space,442,442,801,530,985,2,legacy,horizontal,1024,2,48000,-16,experiment,3,odd,legacy,78767,78764,636,1442,62755,62860,78870,78870,641,79312,,63862,63862,65425,64439,Feature Shift Prototypes,0,35026,51,no,prototype,no,1920,0,0
undefined,undefined,679.903846154,679.903846154,white,no,legacy,legacy,legacy,0,relative,undefined,undefined,undefined,undefined,51,19,0,0,31,31,19,19,0,51,0,31,31,0,0,Wed 30 Oct 2019 11:28:06 GMT,,yes,facialproto_short.osexp,/home/andy/svn/rmip/docs/openseslib,8,08-120.png,no,mono,no,18,no,black,no,no,1080,legacy,19,31,/home/andy/svn/rmip/docs/openseslib/subject-3.csv,legacy,Kafkaesque Koffka,3.2.7,test,0,5,5,space,4,space,329,329,801,530,985,2,legacy,horizontal,1024,2,48000,-16,experiment,3,odd,legacy,79394,79391,636,1442,62755,62860,79496,79496,641,79825,,63862,63862,65425,64439,Feature Shift Prototypes,0,35355,52,no,unseen,no,1920,-12,0
undefined,undefined,674.169811321,674.169811321,white,no,legacy,legacy,legacy,0,relative,undefined,undefined,undefined,undefined,52,20,0,0,31,31,20,20,0,52,0,31,31,0,0,Wed 30 Oct 2019 11:28:06 GMT,,yes,facialproto_short.osexp,/home/andy/svn/rmip/docs/openseslib,1,0100.png,no,mono,no,18,no,black,no,no,1080,legacy,20,31,/home/andy/svn/rmip/docs/openseslib/subject-3.csv,legacy,Kafkaesque Koffka,3.2.7,test,0,6,6,space,4,space,376,376,801,530,985,2,legacy,vertical,1024,2,48000,-16,experiment,3,odd,legacy,79898,79895,636,1442,62755,62860,80000,80000,641,80377,,63862,63862,65425,64439,Feature Shift Prototypes,0,35731,53,no,prototype,no,1920,0,0
undefined,undefined,672.444444444,672.444444444,white,no,legacy,legacy,legacy,0,relative,undefined,undefined,undefined,undefined,53,21,0,0,31,31,21,21,0,53,0,31,31,0,0,Wed 30 Oct 2019 11:28:06 GMT,,yes,facialproto_short.osexp,/home/andy/svn/rmip/docs/openseslib,7,0708.png,no,mono,no,18,no,black,no,no,1080,legacy,21,31,/home/andy/svn/rmip/docs/openseslib/subject-3.csv,legacy,Kafkaesque Koffka,3.2.7,test,0,4,4,space,4,space,581,581,801,530,985,2,legacy,vertical,1024,2,48000,-16,experiment,3,odd,legacy,80461,80458,636,1442,62755,62860,80563,80563,641,81144,,63862,63862,65425,64439,Feature Shift Prototypes,0,36312,54,no,seen,no,1920,0,8
undefined,undefined,666.036363636,666.036363636,white,no,legacy,legacy,legacy,0,relative,undefined,undefined,undefined,undefined,54,22,0,0,31,31,22,22,0,54,0,31,31,0,0,Wed 30 Oct 2019 11:28:06 GMT,,yes,facialproto_short.osexp,/home/andy/svn/rmip/docs/openseslib,2,02120.png,no,mono,no,18,no,black,no,no,1080,legacy,22,31,/home/andy/svn/rmip/docs/openseslib/subject-3.csv,legacy,Kafkaesque Koffka,3.2.7,test,0,3,3,space,4,space,320,320,801,530,985,2,legacy,horizontal,1024,2,48000,-16,experiment,3,odd,legacy,81224,81221,636,1442,62755,62860,81327,81328,641,81649,,63862,63862,65425,64439,Feature Shift Prototypes,0,36632,55,no,unseen,no,1920,12,0
undefined,undefined,664.232142857,664.232142857,white,no,legacy,legacy,legacy,0,relative,undefined,undefined,undefined,undefined,55,23,0,0,31,31,23,23,0,55,0,31,31,0,0,Wed 30 Oct 2019 11:28:06 GMT,,yes,facialproto_short.osexp,/home/andy/svn/rmip/docs/openseslib,6,06120.png,no,mono,no,18,no,black,no,no,1080,legacy,23,31,/home/andy/svn/rmip/docs/openseslib/subject-3.csv,legacy,Kafkaesque Koffka,3.2.7,test,0,6,6,space,4,space,565,565,801,530,985,2,legacy,horizontal,1024,2,48000,-16,experiment,3,odd,legacy,81724,81722,636,1442,62755,62860,81827,81827,641,82392,,63862,63862,65425,64439,Feature Shift Prototypes,0,37197,56,no,unseen,no,1920,12,0
undefined,undefined,1295,1295,white,no,legacy,legacy,legacy,0,relative,undefined,,undefined,undefined,0,,0,0,0,0,,,0,0,0,0,0,0,0,Thu 31 Oct 2019 11:43:21 GMT,,yes,facialproto_short.osexp,/home/andy/svn/rmip/docs/openseslib,3,0308.png,no,mono,no,18,no,black,no,no,1080,legacy,0,0,/home/andy/svn/rmip/docs/openseslib/subject-12.csv,legacy,Kafkaesque Koffka,3.2.7,exposure,0,6,,space,6,,1295,,922,1295,,2,legacy,vertical,1024,2,48000,-16,experiment,12,even,legacy,1696,,686,1619,1693,1799,,,696,4098,,2801,2802,,,Feature Shift Prototypes,0,1295,1,no,,no,1920,0,8
undefined,undefined,648.5,648.5,white,no,legacy,legacy,legacy,0,relative,undefined,,undefined,undefined,1,,0,0,1,1,,,0,1,0,1,1,0,0,Thu 31 Oct 2019 11:43:21 GMT,,yes,facialproto_short.osexp,/home/andy/svn/rmip/docs/openseslib,6,06-80.png,no,mono,no,18,no,black,no,no,1080,legacy,1,1,/home/andy/svn/rmip/docs/openseslib/subject-12.csv,legacy,Kafkaesque Koffka,3.2.7,exposure,0,4,,space,4,,2,,922,2,,2,legacy,horizontal,1024,2,48000,-16,experiment,12,even,legacy,4250,,686,1619,4246,4354,,,696,5360,,5356,5357,,,Feature Shift Prototypes,0,1297,2,no,,no,1920,-8,0
undefined,undefined,617,617,white,no,legacy,legacy,legacy,0,relative,undefined,,undefined,undefined,2,,0,0,2,2,,,0,2,0,2,2,0,0,Thu 31 Oct 2019 11:43:21 GMT,,yes,facialproto_short.osexp,/home/andy/svn/rmip/docs/openseslib,7,070-8.png,no,mono,no,18,no,black,no,no,1080,legacy,2,2,/home/andy/svn/rmip/docs/openseslib/subject-12.csv,legacy,Kafkaesque Koffka,3.2.7,exposure,0,6,,space,6,,554,,922,554,,2,legacy,vertical,1024,2,48000,-16,experiment,12,even,legacy,5455,,686,1619,5452,5557,,,696,7113,,6559,6559,,,Feature Shift Prototypes,0,1851,3,no,,no,1920,0,-8
undefined,undefined,581.5,581.5,white,no,legacy,legacy,legacy,0,relative,undefined,,undefined,undefined,3,,0,0,3,3,,,0,3,0,3,3,0,0,Thu 31 Oct 2019 11:43:21 GMT,,yes,facialproto_short.osexp,/home/andy/svn/rmip/docs/openseslib,5,050-8.png,no,mono,no,18,no,black,no,no,1080,legacy,3,3,/home/andy/svn/rmip/docs/openseslib/subject-12.csv,legacy,Kafkaesque Koffka,3.2.7,exposure,0,4,,space,4,,475,,922,475,,2,legacy,vertical,1024,2,48000,-16,experiment,12,even,legacy,7196,,686,1619,7193,7300,,,696,8779,,8302,8303,,,Feature Shift Prototypes,0,2326,4,no,,no,1920,0,-8
undefined,undefined,544.2,544.2,white,no,legacy,legacy,legacy,0,relative,undefined,,undefined,undefined,4,,0,0,4,4,,,0,4,0,4,4,0,0,Thu 31 Oct 2019 11:43:21 GMT,,yes,facialproto_short.osexp,/home/andy/svn/rmip/docs/openseslib,1,0108.png,no,mono,no,18,no,black,no,no,1080,legacy,4,4,/home/andy/svn/rmip/docs/openseslib/subject-12.csv,legacy,Kafkaesque Koffka,3.2.7,exposure,0,7,,space,7,,395,,922,395,,2,legacy,vertical,1024,2,48000,-16,experiment,12,even,legacy,8860,,686,1619,8857,8964,,,696,10362,,9967,9967,,,Feature Shift Prototypes,0,2721,5,no,,no,1920,0,8
undefined,undefined,516.333333333,516.333333333,white,no,legacy,legacy,legacy,0,relative,undefined,,undefined,undefined,5,,0,0,5,5,,,0,5,0,5,5,0,0,Thu 31 Oct 2019 11:43:21 GMT,,yes,facialproto_short.osexp,/home/andy/svn/rmip/docs/openseslib,1,0108.png,no,mono,no,18,no,black,no,no,1080,legacy,5,5,/home/andy/svn/rmip/docs/openseslib/subject-12.csv,legacy,Kafkaesque Koffka,3.2.7,exposure,0,5,,space,5,,377,,922,377,,2,legacy,vertical,1024,2,48000,-16,experiment,12,even,legacy,10447,,686,1619,10444,10550,,,696,11931,,11552,11553,,,Feature Shift Prototypes,0,3098,6,no,,no,1920,0,8
undefined,undefined,512,512,white,no,legacy,legacy,legacy,0,relative,undefined,,undefined,undefined,6,,0,0,6,6,,,0,6,0,6,6,0,0,Thu 31 Oct 2019 11:43:21 GMT,,yes,facialproto_short.osexp,/home/andy/svn/rmip/docs/openseslib,5,050-8.png,no,mono,no,18,no,black,no,no,1080,legacy,6,6,/home/andy/svn/rmip/docs/openseslib/subject-12.csv,legacy,Kafkaesque Koffka,3.2.7,exposure,0,4,,space,4,,486,,922,486,,2,legacy,vertical,1024,2,48000,-16,experiment,12,even,legacy,12011,,686,1619,12008,12113,,,696,13603,,13115,13116,,,Feature Shift Prototypes,0,3584,7,no,,no,1920,0,-8
undefined,undefined,508.875,508.875,white,no,legacy,legacy,legacy,0,relative,undefined,,undefined,undefined,7,,0,0,7,7,,,0,7,0,7,7,0,0,Thu 31 Oct 2019 11:43:21 GMT,,yes,facialproto_short.osexp,/home/andy/svn/rmip/docs/openseslib,5,0508.png,no,mono,no,18,no,black,no,no,1080,legacy,7,7,/home/andy/svn/rmip/docs/openseslib/subject-12.csv,legacy,Kafkaesque Koffka,3.2.7,exposure,0,5,,space,5,,487,,922,487,,2,legacy,vertical,1024,2,48000,-16,experiment,12,even,legacy,13704,,686,1619,13701,13806,,,696,15298,,14809,14810,,,Feature Shift Prototypes,0,4071,8,no,,no,1920,0,8
undefined,undefined,502.555555556,502.555555556,white,no,legacy,legacy,legacy,0,relative,undefined,,undefined,undefined,8,,0,0,8,8,,,0,8,0,8,8,0,0,Thu 31 Oct 2019 11:43:21 GMT,,yes,facialproto_short.osexp,/home/andy/svn/rmip/docs/openseslib,6,06-80.png,no,mono,no,18,no,black,no,no,1080,legacy,8,8,/home/andy/svn/rmip/docs/openseslib/subject-12.csv,legacy,Kafkaesque Koffka,3.2.7,exposure,0,6,,space,6,,452,,922,452,,2,legacy,horizontal,1024,2,48000,-16,experiment,12,even,legacy,15412,,686,1619,15409,15514,,,696,16970,,16517,16518,,,Feature Shift Prototypes,0,4523,9,no,,no,1920,-8,0
undefined,undefined,496.1,496.1,white,no,legacy,legacy,legacy,0,relative,undefined,,undefined,undefined,9,,0,0,9,9,,,0,9,0,9,9,0,0,Thu 31 Oct 2019 11:43:21 GMT,,yes,facialproto_short.osexp,/home/andy/svn/rmip/docs/openseslib,6,0680.png,no,mono,no,18,no,black,no,no,1080,legacy,9,9,/home/andy/svn/rmip/docs/openseslib/subject-12.csv,legacy,Kafkaesque Koffka,3.2.7,exposure,0,7,,space,7,,438,,922,438,,2,legacy,horizontal,1024,2,48000,-16,experiment,12,even,legacy,17067,,686,1619,17064,17170,,,696,18611,,18172,18172,,,Feature Shift Prototypes,0,4961,10,no,,no,1920,8,0
undefined,undefined,488.727272727,488.727272727,white,no,legacy,legacy,legacy,0,relative,undefined,,undefined,undefined,10,,0,0,10,10,,,0,10,0,10,10,0,0,Thu 31 Oct 2019 11:43:21 GMT,,yes,facialproto_short.osexp,/home/andy/svn/rmip/docs/openseslib,8,0880.png,no,mono,no,18,no,black,no,no,1080,legacy,10,10,/home/andy/svn/rmip/docs/openseslib/subject-12.csv,legacy,Kafkaesque Koffka,3.2.7,exposure,0,5,,space,5,,415,,922,415,,2,legacy,horizontal,1024,2,48000,-16,experiment,12,even,legacy,18710,,686,1619,18707,18814,,,696,20233,,19817,19818,,,Feature Shift Prototypes,0,5376,11,no,,no,1920,8,0
undefined,undefined,495.166666667,495.166666667,white,no,legacy,legacy,legacy,0,relative,undefined,,undefined,undefined,11,,0,0,11,11,,,0,11,0,11,11,0,0,Thu 31 Oct 2019 11:43:21 GMT,,yes,facialproto_short.osexp,/home/andy/svn/rmip/docs/openseslib,8,0880.png,no,mono,no,18,no,black,no,no,1080,legacy,11,11,/home/andy/svn/rmip/docs/openseslib/subject-12.csv,legacy,Kafkaesque Koffka,3.2.7,exposure,0,4,,space,4,,566,,922,566,,2,legacy,horizontal,1024,2,48000,-16,experiment,12,even,legacy,20315,,686,1619,20312,20418,,,696,21987,,21420,21421,,,Feature Shift Prototypes,0,5942,12,no,,no,1920,8,0
undefined,undefined,490.692307692,490.692307692,white,no,legacy,legacy,legacy,0,relative,undefined,,undefined,undefined,12,,0,0,12,12,,,0,12,0,12,12,0,0,Thu 31 Oct 2019 11:43:21 GMT,,yes,facialproto_short.osexp,/home/andy/svn/rmip/docs/openseslib,7,0708.png,no,mono,no,18,no,black,no,no,1080,legacy,12,12,/home/andy/svn/rmip/docs/openseslib/subject-12.csv,legacy,Kafkaesque Koffka,3.2.7,exposure,0,7,,space,7,,437,,922,437,,2,legacy,vertical,1024,2,48000,-16,experiment,12,even,legacy,22090,,686,1619,22087,22194,,,696,23635,,23197,23197,,,Feature Shift Prototypes,0,6379,13,no,,no,1920,0,8
undefined,undefined,489.357142857,489.357142857,white,no,legacy,legacy,legacy,0,relative,undefined,,undefined,undefined,13,,0,0,13,13,,,0,13,0,13,13,0,0,Thu 31 Oct 2019 11:43:21 GMT,,yes,facialproto_short.osexp,/home/andy/svn/rmip/docs/openseslib,2,02-80.png,no,mono,no,18,no,black,no,no,1080,legacy,13,13,/home/andy/svn/rmip/docs/openseslib/subject-12.csv,legacy,Kafkaesque Koffka,3.2.7,exposure,0,6,,space,6,,472,,922,472,,2,legacy,horizontal,1024,2,48000,-16,experiment,12,even,legacy,23719,,686,1619,23716,23821,,,696,25298,,24825,24825,,,Feature Shift Prototypes,0,6851,14,no,,no,1920,-8,0
undefined,undefined,483.333333333,483.333333333,white,no,legacy,legacy,legacy,0,relative,undefined,,undefined,undefined,14,,0,0,14,14,,,0,14,0,14,14,0,0,Thu 31 Oct 2019 11:43:21 GMT,,yes,facialproto_short.osexp,/home/andy/svn/rmip/docs/openseslib,3,030-8.png,no,mono,no,18,no,black,no,no,1080,legacy,14,14,/home/andy/svn/rmip/docs/openseslib/subject-12.csv,legacy,Kafkaesque Koffka,3.2.7,exposure,0,4,,space,4,,399,,922,399,,2,legacy,vertical,1024,2,48000,-16,experiment,12,even,legacy,25385,,686,1619,25382,25487,,,696,26890,,26490,26491,,,Feature Shift Prototypes,0,7250,15,no,,no,1920,0,-8
undefined,undefined,480.875,480.875,white,no,legacy,legacy,legacy,0,relative,undefined,,undefined,undefined,15,,0,0,15,15,,,0,15,0,15,15,0,0,Thu 31 Oct 2019 11:43:21 GMT,,yes,facialproto_short.osexp,/home/andy/svn/rmip/docs/openseslib,2,02-80.png,no,mono,no,18,no,black,no,no,1080,legacy,15,15,/home/andy/svn/rmip/docs/openseslib/subject-12.csv,legacy,Kafkaesque Koffka,3.2.7,exposure,0,5,,space,5,,444,,922,444,,2,legacy,horizontal,1024,2,48000,-16,experiment,12,even,legacy,26972,,686,1619,26969,27075,,,696,28523,,28077,28078,,,Feature Shift Prototypes,0,7694,16,no,,no,1920,-8,0
undefined,undefined,478.882352941,478.882352941,white,no,legacy,legacy,legacy,0,relative,undefined,,undefined,undefined,16,,0,0,16,16,,,0,16,0,16,16,0,0,Thu 31 Oct 2019 11:43:21 GMT,,yes,facialproto_short.osexp,/home/andy/svn/rmip/docs/openseslib,4,04-80.png,no,mono,no,18,no,black,no,no,1080,legacy,16,16,/home/andy/svn/rmip/docs/openseslib/subject-12.csv,legacy,Kafkaesque Koffka,3.2.7,exposure,0,6,,space,6,,447,,922,447,,2,legacy,horizontal,1024,2,48000,-16,experiment,12,even,legacy,28616,,686,1619,28613,28719,,,696,30169,,29721,29722,,,Feature Shift Prototypes,0,8141,17,no,,no,1920,-8,0
undefined,undefined,473.833333333,473.833333333,white,no,legacy,legacy,legacy,0,relative,undefined,,undefined,undefined,17,,0,0,17,17,,,0,17,0,17,17,0,0,Thu 31 Oct 2019 11:43:21 GMT,,yes,facialproto_short.osexp,/home/andy/svn/rmip/docs/openseslib,7,070-8.png,no,mono,no,18,no,black,no,no,1080,legacy,17,17,/home/andy/svn/rmip/docs/openseslib/subject-12.csv,legacy,Kafkaesque Koffka,3.2.7,exposure,0,7,,space,7,,388,,922,388,,2,legacy,vertical,1024,2,48000,-16,experiment,12,even,legacy,30250,,686,1619,30247,30355,,,696,31746,,31357,31358,,,Feature Shift Prototypes,0,8529,18,no,,no,1920,0,-8
undefined,undefined,469.263157895,469.263157895,white,no,legacy,legacy,legacy,0,relative,undefined,,undefined,undefined,18,,0,0,18,18,,,0,18,0,18,18,0,0,Thu 31 Oct 2019 11:43:21 GMT,,yes,facialproto_short.osexp,/home/andy/svn/rmip/docs/openseslib,1,010-8.png,no,mono,no,18,no,black,no,no,1080,legacy,18,18,/home/andy/svn/rmip/docs/openseslib/subject-12.csv,legacy,Kafkaesque Koffka,3.2.7,exposure,0,4,,space,4,,387,,922,387,,2,legacy,vertical,1024,2,48000,-16,experiment,12,even,legacy,31829,,686,1619,31826,31931,,,696,33322,,32934,32934,,,Feature Shift Prototypes,0,8916,19,no,,no,1920,0,-8
undefined,undefined,468.9,468.9,white,no,legacy,legacy,legacy,0,relative,undefined,,undefined,undefined,19,,0,0,19,19,,,0,19,0,19,19,0,0,Thu 31 Oct 2019 11:43:21 GMT,,yes,facialproto_short.osexp,/home/andy/svn/rmip/docs/openseslib,4,0480.png,no,mono,no,18,no,black,no,no,1080,legacy,19,19,/home/andy/svn/rmip/docs/openseslib/subject-12.csv,legacy,Kafkaesque Koffka,3.2.7,exposure,0,5,,space,5,,462,,922,462,,2,legacy,horizontal,1024,2,48000,-16,experiment,12,even,legacy,33411,,686,1619,33408,33513,,,696,34979,,34515,34516,,,Feature Shift Prototypes,0,9378,20,no,,no,1920,8,0
undefined,undefined,467,467,white,no,legacy,legacy,legacy,0,relative,undefined,,undefined,undefined,20,,0,0,20,20,,,0,20,0,20,20,0,0,Thu 31 Oct 2019 11:43:21 GMT,,yes,facialproto_short.osexp,/home/andy/svn/rmip/docs/openseslib,5,0508.png,no,mono,no,18,no,black,no,no,1080,legacy,20,20,/home/andy/svn/rmip/docs/openseslib/subject-12.csv,legacy,Kafkaesque Koffka,3.2.7,exposure,0,7,,space,7,,429,,922,429,,2,legacy,vertical,1024,2,48000,-16,experiment,12,even,legacy,35083,,686,1619,35080,35185,,,696,36618,,36188,36189,,,Feature Shift Prototypes,0,9807,21,no,,no,1920,0,8
undefined,undefined,524.863636364,524.863636364,white,no,legacy,legacy,legacy,0,relative,undefined,,undefined,undefined,21,,0,0,21,21,,,0,21,0,21,21,0,0,Thu 31 Oct 2019 11:43:21 GMT,,yes,facialproto_short.osexp,/home/andy/svn/rmip/docs/openseslib,8,08-80.png,no,mono,no,18,no,black,no,no,1080,legacy,21,21,/home/andy/svn/rmip/docs/openseslib/subject-12.csv,legacy,Kafkaesque Koffka,3.2.7,exposure,0,4,,space,4,,1740,,922,1740,,2,legacy,horizontal,1024,2,48000,-16,experiment,12,even,legacy,36707,,686,1619,36704,36810,,,696,39554,,37813,37814,,,Feature Shift Prototypes,0,11547,22,no,,no,1920,-8,0
undefined,undefined,620.173913043,620.173913043,white,no,legacy,legacy,legacy,0,relative,undefined,,undefined,undefined,22,,0,0,22,22,,,0,22,0,22,22,0,0,Thu 31 Oct 2019 11:43:21 GMT,,yes,facialproto_short.osexp,/home/andy/svn/rmip/docs/openseslib,6,0680.png,no,mono,no,18,no,black,no,no,1080,legacy,22,22,/home/andy/svn/rmip/docs/openseslib/subject-12.csv,legacy,Kafkaesque Koffka,3.2.7,exposure,0,6,,space,6,,2717,,922,2717,,2,legacy,horizontal,1024,2,48000,-16,experiment,12,even,legacy,39636,,686,1619,39633,39738,,,696,43458,,40741,40741,,,Feature Shift Prototypes,0,14264,23,no,,no,1920,8,0
undefined,undefined,612.291666667,612.291666667,white,no,legacy,legacy,legacy,0,relative,undefined,,undefined,undefined,23,,0,0,23,23,,,0,23,0,23,23,0,0,Thu 31 Oct 2019 11:43:21 GMT,,yes,facialproto_short.osexp,/home/andy/svn/rmip/docs/openseslib,8,08-80.png,no,mono,no,18,no,black,no,no,1080,legacy,23,23,/home/andy/svn/rmip/docs/openseslib/subject-12.csv,legacy,Kafkaesque Koffka,3.2.7,exposure,0,5,,space,5,,431,,922,431,,2,legacy,horizontal,1024,2,48000,-16,experiment,12,even,legacy,43553,,686,1619,43550,43655,,,696,45089,,44657,44658,,,Feature Shift Prototypes,0,14695,24,no,,no,1920,-8,0
undefined,undefined,600.2,600.2,white,no,legacy,legacy,legacy,0,relative,undefined,,undefined,undefined,24,,0,0,24,24,,,0,24,0,24,24,0,0,Thu 31 Oct 2019 11:43:21 GMT,,yes,facialproto_short.osexp,/home/andy/svn/rmip/docs/openseslib,3,0308.png,no,mono,no,18,no,black,no,no,1080,legacy,24,24,/home/andy/svn/rmip/docs/openseslib/subject-12.csv,legacy,Kafkaesque Koffka,3.2.7,exposure,0,7,,space,7,,310,,922,310,,2,legacy,vertical,1024,2,48000,-16,experiment,12,even,legacy,45172,,686,1619,45169,45274,,,696,46586,,46276,46276,,,Feature Shift Prototypes,0,15005,25,no,,no,1920,0,8
undefined,undefined,591.769230769,591.769230769,white,no,legacy,legacy,legacy,0,relative,undefined,,undefined,undefined,25,,0,0,25,25,,,0,25,0,25,25,0,0,Thu 31 Oct 2019 11:43:21 GMT,,yes,facialproto_short.osexp,/home/andy/svn/rmip/docs/openseslib,7,0708.png,no,mono,no,18,no,black,no,no,1080,legacy,25,25,/home/andy/svn/rmip/docs/openseslib/subject-12.csv,legacy,Kafkaesque Koffka,3.2.7,exposure,0,4,,space,4,,381,,922,381,,2,legacy,vertical,1024,2,48000,-16,experiment,12,even,legacy,46667,,686,1619,46664,46769,,,696,48153,,47771,47772,,,Feature Shift Prototypes,0,15386,26,no,,no,1920,0,8
undefined,undefined,588.222222222,588.222222222,white,no,legacy,legacy,legacy,0,relative,undefined,,undefined,undefined,26,,0,0,26,26,,,0,26,0,26,26,0,0,Thu 31 Oct 2019 11:43:21 GMT,,yes,facialproto_short.osexp,/home/andy/svn/rmip/docs/openseslib,4,0480.png,no,mono,no,18,no,black,no,no,1080,legacy,26,26,/home/andy/svn/rmip/docs/openseslib/subject-12.csv,legacy,Kafkaesque Koffka,3.2.7,exposure,0,6,,space,6,,496,,922,496,,2,legacy,horizontal,1024,2,48000,-16,experiment,12,even,legacy,48235,,686,1619,48232,48337,,,696,49837,,49339,49340,,,Feature Shift Prototypes,0,15882,27,no,,no,1920,8,0
undefined,undefined,583.928571429,583.928571429,white,no,legacy,legacy,legacy,0,relative,undefined,,undefined,undefined,27,,0,0,27,27,,,0,27,0,27,27,0,0,Thu 31 Oct 2019 11:43:21 GMT,,yes,facialproto_short.osexp,/home/andy/svn/rmip/docs/openseslib,2,0280.png,no,mono,no,18,no,black,no,no,1080,legacy,27,27,/home/andy/svn/rmip/docs/openseslib/subject-12.csv,legacy,Kafkaesque Koffka,3.2.7,exposure,0,4,,space,4,,468,,922,468,,2,legacy,horizontal,1024,2,48000,-16,experiment,12,even,legacy,49932,,686,1619,49929,50035,,,696,51506,,51037,51038,,,Feature Shift Prototypes,0,16350,28,no,,no,1920,8,0
undefined,undefined,577.689655172,577.689655172,white,no,legacy,legacy,legacy,0,relative,undefined,,undefined,undefined,28,,0,0,28,28,,,0,28,0,28,28,0,0,Thu 31 Oct 2019 11:43:21 GMT,,yes,facialproto_short.osexp,/home/andy/svn/rmip/docs/openseslib,4,04-80.png,no,mono,no,18,no,black,no,no,1080,legacy,28,28,/home/andy/svn/rmip/docs/openseslib/subject-12.csv,legacy,Kafkaesque Koffka,3.2.7,exposure,0,7,,space,7,,403,,922,403,,2,legacy,horizontal,1024,2,48000,-16,experiment,12,even,legacy,51589,,686,1619,51586,51691,,,696,53097,,52694,52694,,,Feature Shift Prototypes,0,16753,29,no,,no,1920,-8,0
undefined,undefined,571.4,571.4,white,no,legacy,legacy,legacy,0,relative,undefined,,undefined,undefined,29,,0,0,29,29,,,0,29,0,29,29,0,0,Thu 31 Oct 2019 11:43:21 GMT,,yes,facialproto_short.osexp,/home/andy/svn/rmip/docs/openseslib,2,0280.png,no,mono,no,18,no,black,no,no,1080,legacy,29,29,/home/andy/svn/rmip/docs/openseslib/subject-12.csv,legacy,Kafkaesque Koffka,3.2.7,exposure,0,4,,space,4,,389,,922,389,,2,legacy,horizontal,1024,2,48000,-16,experiment,12,even,legacy,53179,,686,1619,53177,53282,,,696,54674,,54285,54285,,,Feature Shift Prototypes,0,17142,30,no,,no,1920,8,0
undefined,undefined,565.387096774,565.387096774,white,no,legacy,legacy,legacy,0,relative,undefined,,undefined,undefined,30,,0,0,30,30,,,0,30,0,30,30,0,0,Thu 31 Oct 2019 11:43:21 GMT,,yes,facialproto_short.osexp,/home/andy/svn/rmip/docs/openseslib,1,010-8.png,no,mono,no,18,no,black,no,no,1080,legacy,30,30,/home/andy/svn/rmip/docs/openseslib/subject-12.csv,legacy,Kafkaesque Koffka,3.2.7,exposure,0,7,,space,7,,385,,922,385,,2,legacy,vertical,1024,2,48000,-16,experiment,12,even,legacy,54767,,686,1619,54764,54869,,,696,56257,,55871,55872,,,Feature Shift Prototypes,0,17527,31,no,,no,1920,0,-8
undefined,undefined,563.8125,563.8125,white,no,legacy,legacy,legacy,0,relative,undefined,,undefined,undefined,31,,0,0,31,31,,,0,31,0,31,31,0,0,Thu 31 Oct 2019 11:43:21 GMT,,yes,facialproto_short.osexp,/home/andy/svn/rmip/docs/openseslib,3,030-8.png,no,mono,no,18,no,black,no,no,1080,legacy,31,31,/home/andy/svn/rmip/docs/openseslib/subject-12.csv,legacy,Kafkaesque Koffka,3.2.7,exposure,0,4,,space,4,,515,,922,515,,2,legacy,vertical,1024,2,48000,-16,experiment,12,even,legacy,56339,,686,1619,56336,56441,,,696,57959,,57443,57443,,,Feature Shift Prototypes,0,18042,32,no,,no,1920,0,-8
undefined,undefined,600.575757576,600.575757576,white,no,legacy,legacy,legacy,0,relative,undefined,undefined,undefined,undefined,32,0,0,0,31,31,0,0,0,32,0,31,31,0,0,Thu 31 Oct 2019 11:43:21 GMT,,yes,facialproto_short.osexp,/home/andy/svn/rmip/docs/openseslib,4,0400.png,no,mono,no,18,no,black,no,no,1080,legacy,0,31,/home/andy/svn/rmip/docs/openseslib/subject-12.csv,legacy,Kafkaesque Koffka,3.2.7,test,0,4,4,space,4,space,1777,1777,922,515,3567,2,legacy,horizontal,1024,2,48000,-16,experiment,12,even,legacy,61611,61608,686,1619,56336,56441,61728,61737,696,63514,,57443,57443,61578,58011,Feature Shift Prototypes,0,19819,33,no,prototype,no,1920,0,0
undefined,undefined,603.588235294,603.588235294,white,no,legacy,legacy,legacy,0,relative,undefined,undefined,undefined,undefined,33,1,0,0,31,31,1,1,0,33,0,31,31,0,0,Thu 31 Oct 2019 11:43:21 GMT,,yes,facialproto_short.osexp,/home/andy/svn/rmip/docs/openseslib,3,030-12.png,no,mono,no,18,no,black,no,no,1080,legacy,1,31,/home/andy/svn/rmip/docs/openseslib/subject-12.csv,legacy,Kafkaesque Koffka,3.2.7,test,0,6,6,space,4,space,703,703,922,515,3567,2,legacy,vertical,1024,2,48000,-16,experiment,12,even,legacy,63587,63584,686,1619,56336,56441,63689,63690,696,64393,,57443,57443,61578,58011,Feature Shift Prototypes,0,20522,34,no,unseen,no,1920,0,-12
undefined,undefined,602.8,602.8,white,no,legacy,legacy,legacy,0,relative,undefined,undefined,undefined,undefined,34,2,0,0,31,31,2,2,0,34,0,31,31,0,0,Thu 31 Oct 2019 11:43:21 GMT,,yes,facialproto_short.osexp,/home/andy/svn/rmip/docs/openseslib,6,0600.png,no,mono,no,18,no,black,no,no,1080,legacy,2,31,/home/andy/svn/rmip/docs/openseslib/subject-12.csv,legacy,Kafkaesque Koffka,3.2.7,test,0,3,3,space,4,space,576,576,922,515,3567,2,legacy,horizontal,1024,2,48000,-16,experiment,12,even,legacy,64467,64464,686,1619,56336,56441,64569,64569,696,65145,,57443,57443,61578,58011,Feature Shift Prototypes,0,21098,35,no,prototype,no,1920,0,0
undefined,undefined,603.027777778,603.027777778,white,no,legacy,legacy,legacy,0,relative,undefined,undefined,undefined,undefined,35,3,0,0,31,31,3,3,0,35,0,31,31,0,0,Thu 31 Oct 2019 11:43:21 GMT,,yes,facialproto_short.osexp,/home/andy/svn/rmip/docs/openseslib,1,01012.png,no,mono,no,18,no,black,no,no,1080,legacy,3,31,/home/andy/svn/rmip/docs/openseslib/subject-12.csv,legacy,Kafkaesque Koffka,3.2.7,test,0,6,6,space,4,space,611,611,922,515,3567,2,legacy,vertical,1024,2,48000,-16,experiment,12,even,legacy,65218,65215,686,1619,56336,56441,65321,65321,696,65935,,57443,57443,61578,58011,Feature Shift Prototypes,0,21709,36,no,unseen,no,1920,0,12
undefined,undefined,601.324324324,601.324324324,white,no,legacy,legacy,legacy,0,relative,undefined,undefined,undefined,undefined,36,4,0,0,31,31,4,4,0,36,0,31,31,0,0,Thu 31 Oct 2019 11:43:21 GMT,,yes,facialproto_short.osexp,/home/andy/svn/rmip/docs/openseslib,2,02120.png,no,mono,no,18,no,black,no,no,1080,legacy,4,31,/home/andy/svn/rmip/docs/openseslib/subject-12.csv,legacy,Kafkaesque Koffka,3.2.7,test,0,5,5,space,4,space,540,540,922,515,3567,2,legacy,horizontal,1024,2,48000,-16,experiment,12,even,legacy,66008,66005,686,1619,56336,56441,66110,66110,696,66650,,57443,57443,61578,58011,Feature Shift Prototypes,0,22249,37,no,unseen,no,1920,12,0
undefined,undefined,600.184210526,600.184210526,white,no,legacy,legacy,legacy,0,relative,undefined,undefined,undefined,undefined,37,5,0,0,31,31,5,5,0,37,0,31,31,0,0,Thu 31 Oct 2019 11:43:21 GMT,,yes,facialproto_short.osexp,/home/andy/svn/rmip/docs/openseslib,1,010-8.png,no,mono,no,18,no,black,no,no,1080,legacy,5,31,/home/andy/svn/rmip/docs/openseslib/subject-12.csv,legacy,Kafkaesque Koffka,3.2.7,test,0,3,3,space,4,space,558,558,922,515,3567,2,legacy,vertical,1024,2,48000,-16,experiment,12,even,legacy,66723,66720,686,1619,56336,56441,66826,66826,696,67385,,57443,57443,61578,58011,Feature Shift Prototypes,0,22807,38,no,seen,no,1920,0,-8
undefined,undefined,598.307692308,598.307692308,white,no,legacy,legacy,legacy,0,relative,undefined,undefined,undefined,undefined,38,6,0,0,31,31,6,6,0,38,0,31,31,0,0,Thu 31 Oct 2019 11:43:21 GMT,,yes,facialproto_short.osexp,/home/andy/svn/rmip/docs/openseslib,7,070-12.png,no,mono,no,18,no,black,no,no,1080,legacy,6,31,/home/andy/svn/rmip/docs/openseslib/subject-12.csv,legacy,Kafkaesque Koffka,3.2.7,test,0,6,6,space,4,space,527,527,922,515,3567,2,legacy,vertical,1024,2,48000,-16,experiment,12,even,legacy,67468,67465,686,1619,56336,56441,67570,67570,696,68097,,57443,57443,61578,58011,Feature Shift Prototypes,0,23334,39,no,unseen,no,1920,0,-12
undefined,undefined,598.175,598.175,white,no,legacy,legacy,legacy,0,relative,undefined,undefined,undefined,undefined,39,7,0,0,31,31,7,7,0,39,0,31,31,0,0,Thu 31 Oct 2019 11:43:21 GMT,,yes,facialproto_short.osexp,/home/andy/svn/rmip/docs/openseslib,7,0700.png,no,mono,no,18,no,black,no,no,1080,legacy,7,31,/home/andy/svn/rmip/docs/openseslib/subject-12.csv,legacy,Kafkaesque Koffka,3.2.7,test,0,7,7,space,4,space,593,593,922,515,3567,2,legacy,vertical,1024,2,48000,-16,experiment,12,even,legacy,68177,68174,686,1619,56336,56441,68280,68280,696,68874,,57443,57443,61578,58011,Feature Shift Prototypes,0,23927,40,no,prototype,no,1920,0,0
undefined,undefined,596.487804878,596.487804878,white,no,legacy,legacy,legacy,0,relative,undefined,undefined,undefined,undefined,40,8,0,0,31,31,8,8,0,40,0,31,31,0,0,Thu 31 Oct 2019 11:43:21 GMT,,yes,facialproto_short.osexp,/home/andy/svn/rmip/docs/openseslib,7,0708.png,no,mono,no,18,no,black,no,no,1080,legacy,8,31,/home/andy/svn/rmip/docs/openseslib/subject-12.csv,legacy,Kafkaesque Koffka,3.2.7,test,0,5,5,space,4,space,529,529,922,515,3567,2,legacy,vertical,1024,2,48000,-16,experiment,12,even,legacy,68946,68943,686,1619,56336,56441,69048,69049,696,69594,,57443,57443,61578,58011,Feature Shift Prototypes,0,24456,41,no,seen,no,1920,0,8
undefined,undefined,594.976190476,594.976190476,white,no,legacy,legacy,legacy,0,relative,undefined,undefined,undefined,undefined,41,9,0,0,31,31,9,9,0,41,0,31,31,0,0,Thu 31 Oct 2019 11:43:21 GMT,,yes,facialproto_short.osexp,/home/andy/svn/rmip/docs/openseslib,2,02-80.png,no,mono,no,18,no,black,no,no,1080,legacy,9,31,/home/andy/svn/rmip/docs/openseslib/subject-12.csv,legacy,Kafkaesque Koffka,3.2.7,test,0,4,4,space,4,space,533,533,922,515,3567,2,legacy,horizontal,1024,2,48000,-16,experiment,12,even,legacy,69669,69666,686,1619,56336,56441,69771,69772,696,70305,,57443,57443,61578,58011,Feature Shift Prototypes,0,24989,42,no,seen,no,1920,-8,0
undefined,undefined,594.186046512,594.186046512,white,no,legacy,legacy,legacy,0,relative,undefined,undefined,undefined,undefined,42,10,0,0,31,31,10,10,0,42,0,31,31,0,0,Thu 31 Oct 2019 11:43:21 GMT,,yes,facialproto_short.osexp,/home/andy/svn/rmip/docs/openseslib,8,08-120.png,no,mono,no,18,no,black,no,no,1080,legacy,10,31,/home/andy/svn/rmip/docs/openseslib/subject-12.csv,legacy,Kafkaesque Koffka,3.2.7,test,0,3,3,space,4,space,561,561,922,515,3567,2,legacy,horizontal,1024,2,48000,-16,experiment,12,even,legacy,70377,70374,686,1619,56336,56441,70479,70479,696,71041,,57443,57443,61578,58011,Feature Shift Prototypes,0,25550,43,no,unseen,no,1920,-12,0
undefined,undefined,592.545454545,592.545454545,white,no,legacy,legacy,legacy,0,relative,undefined,undefined,undefined,undefined,43,11,0,0,31,31,11,11,0,43,0,31,31,0,0,Thu 31 Oct 2019 11:43:21 GMT,,yes,facialproto_short.osexp,/home/andy/svn/rmip/docs/openseslib,5,050-8.png,no,mono,no,18,no,black,no,no,1080,legacy,11,31,/home/andy/svn/rmip/docs/openseslib/subject-12.csv,legacy,Kafkaesque Koffka,3.2.7,test,0,6,6,space,4,space,522,522,922,515,3567,2,legacy,vertical,1024,2,48000,-16,experiment,12,even,legacy,71121,71118,686,1619,56336,56441,71223,71224,696,71746,,57443,57443,61578,58011,Feature Shift Prototypes,0,26072,44,no,seen,no,1920,0,-8
undefined,undefined,591.955555556,591.955555556,white,no,legacy,legacy,legacy,0,relative,undefined,undefined,undefined,undefined,44,12,0,0,31,31,12,12,0,44,0,31,31,0,0,Thu 31 Oct 2019 11:43:21 GMT,,yes,facialproto_short.osexp,/home/andy/svn/rmip/docs/openseslib,8,0800.png,no,mono,no,18,no,black,no,no,1080,legacy,12,31,/home/andy/svn/rmip/docs/openseslib/subject-12.csv,legacy,Kafkaesque Koffka,3.2.7,test,0,5,5,space,4,space,566,566,922,515,3567,2,legacy,horizontal,1024,2,48000,-16,experiment,12,even,legacy,71820,71817,686,1619,56336,56441,71922,71923,696,72490,,57443,57443,61578,58011,Feature Shift Prototypes,0,26638,45,no,prototype,no,1920,0,0
undefined,undefined,589.826086957,589.826086957,white,no,legacy,legacy,legacy,0,relative,undefined,undefined,undefined,undefined,45,13,0,0,31,31,13,13,0,45,0,31,31,0,0,Thu 31 Oct 2019 11:43:21 GMT,,yes,facialproto_short.osexp,/home/andy/svn/rmip/docs/openseslib,2,0200.png,no,mono,no,18,no,black,no,no,1080,legacy,13,31,/home/andy/svn/rmip/docs/openseslib/subject-12.csv,legacy,Kafkaesque Koffka,3.2.7,test,0,7,7,space,4,space,494,494,922,515,3567,2,legacy,horizontal,1024,2,48000,-16,experiment,12,even,legacy,72572,72569,686,1619,56336,56441,72675,72675,696,73169,,57443,57443,61578,58011,Feature Shift Prototypes,0,27132,46,no,prototype,no,1920,0,0
undefined,undefined,590.404255319,590.404255319,white,no,legacy,legacy,legacy,0,relative,undefined,undefined,undefined,undefined,46,14,0,0,31,31,14,14,0,46,0,31,31,0,0,Thu 31 Oct 2019 11:43:21 GMT,,yes,facialproto_short.osexp,/home/andy/svn/rmip/docs/openseslib,4,04-120.png,no,mono,no,18,no,black,no,no,1080,legacy,14,31,/home/andy/svn/rmip/docs/openseslib/subject-12.csv,legacy,Kafkaesque Koffka,3.2.7,test,0,4,4,space,4,space,617,617,922,515,3567,2,legacy,horizontal,1024,2,48000,-16,experiment,12,even,legacy,73242,73239,686,1619,56336,56441,73345,73345,696,73962,,57443,57443,61578,58011,Feature Shift Prototypes,0,27749,47,no,unseen,no,1920,-12,0
undefined,undefined,589.625,589.625,white,no,legacy,legacy,legacy,0,relative,undefined,undefined,undefined,undefined,47,15,0,0,31,31,15,15,0,47,0,31,31,0,0,Thu 31 Oct 2019 11:43:21 GMT,,yes,facialproto_short.osexp,/home/andy/svn/rmip/docs/openseslib,3,0308.png,no,mono,no,18,no,black,no,no,1080,legacy,15,31,/home/andy/svn/rmip/docs/openseslib/subject-12.csv,legacy,Kafkaesque Koffka,3.2.7,test,0,5,5,space,4,space,553,553,922,515,3567,2,legacy,vertical,1024,2,48000,-16,experiment,12,even,legacy,74034,74031,686,1619,56336,56441,74136,74137,696,74690,,57443,57443,61578,58011,Feature Shift Prototypes,0,28302,48,no,seen,no,1920,0,8
undefined,undefined,587.918367347,587.918367347,white,no,legacy,legacy,legacy,0,relative,undefined,undefined,undefined,undefined,48,16,0,0,31,31,16,16,0,48,0,31,31,0,0,Thu 31 Oct 2019 11:43:21 GMT,,yes,facialproto_short.osexp,/home/andy/svn/rmip/docs/openseslib,4,0480.png,no,mono,no,18,no,black,no,no,1080,legacy,16,31,/home/andy/svn/rmip/docs/openseslib/subject-12.csv,legacy,Kafkaesque Koffka,3.2.7,test,0,6,6,space,4,space,506,506,922,515,3567,2,legacy,horizontal,1024,2,48000,-16,experiment,12,even,legacy,74768,74765,686,1619,56336,56441,74870,74871,696,75377,,57443,57443,61578,58011,Feature Shift Prototypes,0,28808,49,no,seen,no,1920,8,0
undefined,undefined,586.74,586.74,white,no,legacy,legacy,legacy,0,relative,undefined,undefined,undefined,undefined,49,17,0,0,31,31,17,17,0,49,0,31,31,0,0,Thu 31 Oct 2019 11:43:21 GMT,,yes,facialproto_short.osexp,/home/andy/svn/rmip/docs/openseslib,5,0500.png,no,mono,no,18,no,black,no,no,1080,legacy,17,31,/home/andy/svn/rmip/docs/openseslib/subject-12.csv,legacy,Kafkaesque Koffka,3.2.7,test,0,7,7,space,4,space,529,529,922,515,3567,2,legacy,vertical,1024,2,48000,-16,experiment,12,even,legacy,75450,75447,686,1619,56336,56441,75552,75552,696,76082,,57443,57443,61578,58011,Feature Shift Prototypes,0,29337,50,no,prototype,no,1920,0,0
undefined,undefined,584.647058824,584.647058824,white,no,legacy,legacy,legacy,0,relative,undefined,undefined,undefined,undefined,50,18,0,0,31,31,18,18,0,50,0,31,31,0,0,Thu 31 Oct 2019 11:43:21 GMT,,yes,facialproto_short.osexp,/home/andy/svn/rmip/docs/openseslib,8,0880.png,no,mono,no,18,no,black,no,no,1080,legacy,18,31,/home/andy/svn/rmip/docs/openseslib/subject-12.csv,legacy,Kafkaesque Koffka,3.2.7,test,0,4,4,space,4,space,480,480,922,515,3567,2,legacy,horizontal,1024,2,48000,-16,experiment,12,even,legacy,76162,76159,686,1619,56336,56441,76264,76265,696,76746,,57443,57443,61578,58011,Feature Shift Prototypes,0,29817,51,no,seen,no,1920,8,0
undefined,undefined,582.980769231,582.980769231,white,no,legacy,legacy,legacy,0,relative,undefined,undefined,undefined,undefined,51,19,0,0,31,31,19,19,0,51,0,31,31,0,0,Thu 31 Oct 2019 11:43:21 GMT,,yes,facialproto_short.osexp,/home/andy/svn/rmip/docs/openseslib,6,06-80.png,no,mono,no,18,no,black,no,no,1080,legacy,19,31,/home/andy/svn/rmip/docs/openseslib/subject-12.csv,legacy,Kafkaesque Koffka,3.2.7,test,0,5,5,space,4,space,498,498,922,515,3567,2,legacy,horizontal,1024,2,48000,-16,experiment,12,even,legacy,76831,76828,686,1619,56336,56441,76935,76935,696,77434,,57443,57443,61578,58011,Feature Shift Prototypes,0,30315,52,no,seen,no,1920,-8,0
undefined,undefined,582.075471698,582.075471698,white,no,legacy,legacy,legacy,0,relative,undefined,undefined,undefined,undefined,52,20,0,0,31,31,20,20,0,52,0,31,31,0,0,Thu 31 Oct 2019 11:43:21 GMT,,yes,facialproto_short.osexp,/home/andy/svn/rmip/docs/openseslib,5,05012.png,no,mono,no,18,no,black,no,no,1080,legacy,20,31,/home/andy/svn/rmip/docs/openseslib/subject-12.csv,legacy,Kafkaesque Koffka,3.2.7,test,0,6,6,space,4,space,535,535,922,515,3567,2,legacy,vertical,1024,2,48000,-16,experiment,12,even,legacy,77515,77512,686,1619,56336,56441,77617,77618,696,78153,,57443,57443,61578,58011,Feature Shift Prototypes,0,30850,53,no,unseen,no,1920,0,12
undefined,undefined,580.648148148,580.648148148,white,no,legacy,legacy,legacy,0,relative,undefined,undefined,undefined,undefined,53,21,0,0,31,31,21,21,0,53,0,31,31,0,0,Thu 31 Oct 2019 11:43:21 GMT,,yes,facialproto_short.osexp,/home/andy/svn/rmip/docs/openseslib,1,0100.png,no,mono,no,18,no,black,no,no,1080,legacy,21,31,/home/andy/svn/rmip/docs/openseslib/subject-12.csv,legacy,Kafkaesque Koffka,3.2.7,test,0,7,7,space,4,space,505,505,922,515,3567,2,legacy,vertical,1024,2,48000,-16,experiment,12,even,legacy,78226,78223,686,1619,56336,56441,78328,78329,696,78834,,57443,57443,61578,58011,Feature Shift Prototypes,0,31355,54,no,prototype,no,1920,0,0
undefined,undefined,579.418181818,579.418181818,white,no,legacy,legacy,legacy,0,relative,undefined,undefined,undefined,undefined,54,22,0,0,31,31,22,22,0,54,0,31,31,0,0,Thu 31 Oct 2019 11:43:21 GMT,,yes,facialproto_short.osexp,/home/andy/svn/rmip/docs/openseslib,3,0300.png,no,mono,no,18,no,black,no,no,1080,legacy,22,31,/home/andy/svn/rmip/docs/openseslib/subject-12.csv,legacy,Kafkaesque Koffka,3.2.7,test,0,4,4,space,4,space,513,513,922,515,3567,2,legacy,vertical,1024,2,48000,-16,experiment,12,even,legacy,78907,78904,686,1619,56336,56441,79009,79009,696,79522,,57443,57443,61578,58011,Feature Shift Prototypes,0,31868,55,no,prototype,no,1920,0,0
undefined,undefined,577.357142857,577.357142857,white,no,legacy,legacy,legacy,0,relative,undefined,undefined,undefined,undefined,55,23,0,0,31,31,23,23,0,55,0,31,31,0,0,Thu 31 Oct 2019 11:43:21 GMT,,yes,facialproto_short.osexp,/home/andy/svn/rmip/docs/openseslib,6,06120.png,no,mono,no,18,no,black,no,no,1080,legacy,23,31,/home/andy/svn/rmip/docs/openseslib/subject-12.csv,legacy,Kafkaesque Koffka,3.2.7,test,0,5,5,space,4,space,464,464,922,515,3567,2,legacy,horizontal,1024,2,48000,-16,experiment,12,even,legacy,79594,79591,686,1619,56336,56441,79696,79697,696,80161,,57443,57443,61578,58011,Feature Shift Prototypes,0,32332,56,no,unseen,no,1920,12,0
undefined,undefined,652,652,white,no,legacy,legacy,legacy,0,relative,undefined,,undefined,undefined,0,,0,0,0,0,,,0,0,0,0,0,0,0,Thu 31 Oct 2019 11:45:00 GMT,,yes,facialproto_short.osexp,/home/andy/svn/rmip/docs/openseslib,1,010-8.png,no,mono,no,18,no,black,no,no,1080,legacy,0,0,/home/andy/svn/rmip/docs/openseslib/subject-13.csv,legacy,Kafkaesque Koffka,3.2.7,exposure,0,5,,space,5,,652,,1401,652,,2,legacy,vertical,1024,2,48000,-16,experiment,13,odd,legacy,2113,,652,2060,2110,2215,,,659,3870,,3217,3218,,,Feature Shift Prototypes,0,652,1,no,,no,1920,0,-8
undefined,undefined,327,327,white,no,legacy,legacy,legacy,0,relative,undefined,,undefined,undefined,1,,0,0,1,1,,,0,1,0,1,1,0,0,Thu 31 Oct 2019 11:45:00 GMT,,yes,facialproto_short.osexp,/home/andy/svn/rmip/docs/openseslib,8,0880.png,no,mono,no,18,no,black,no,no,1080,legacy,1,1,/home/andy/svn/rmip/docs/openseslib/subject-13.csv,legacy,Kafkaesque Koffka,3.2.7,exposure,0,3,,space,3,,2,,1401,2,,2,legacy,horizontal,1024,2,48000,-16,experiment,13,odd,legacy,4010,,652,2060,4007,4113,,,659,5119,,5115,5116,,,Feature Shift Prototypes,0,654,2,no,,no,1920,8,0
undefined,undefined,218.666666667,218.666666667,white,no,legacy,legacy,legacy,0,relative,undefined,,undefined,undefined,2,,0,0,2,2,,,0,2,0,2,2,0,0,Thu 31 Oct 2019 11:45:00 GMT,,yes,facialproto_short.osexp,/home/andy/svn/rmip/docs/openseslib,2,02-80.png,no,mono,no,18,no,black,no,no,1080,legacy,2,2,/home/andy/svn/rmip/docs/openseslib/subject-13.csv,legacy,Kafkaesque Koffka,3.2.7,exposure,0,4,,space,4,,2,,1401,2,,2,legacy,horizontal,1024,2,48000,-16,experiment,13,odd,legacy,5213,,652,2060,5210,5315,,,659,6321,,6318,6319,,,Feature Shift Prototypes,0,656,3,no,,no,1920,-8,0
undefined,undefined,297.5,297.5,white,no,legacy,legacy,legacy,0,relative,undefined,,undefined,undefined,3,,0,0,3,3,,,0,3,0,3,3,0,0,Thu 31 Oct 2019 11:45:00 GMT,,yes,facialproto_short.osexp,/home/andy/svn/rmip/docs/openseslib,6,0680.png,no,mono,no,18,no,black,no,no,1080,legacy,3,3,/home/andy/svn/rmip/docs/openseslib/subject-13.csv,legacy,Kafkaesque Koffka,3.2.7,exposure,0,5,,space,5,,534,,1401,534,,2,legacy,horizontal,1024,2,48000,-16,experiment,13,odd,legacy,6412,,652,2060,6409,6514,,,659,8052,,7518,7518,,,Feature Shift Prototypes,0,1190,4,no,,no,1920,8,0
undefined,undefined,365.4,365.4,white,no,legacy,legacy,legacy,0,relative,undefined,,undefined,undefined,4,,0,0,4,4,,,0,4,0,4,4,0,0,Thu 31 Oct 2019 11:45:00 GMT,,yes,facialproto_short.osexp,/home/andy/svn/rmip/docs/openseslib,3,0308.png,no,mono,no,18,no,black,no,no,1080,legacy,4,4,/home/andy/svn/rmip/docs/openseslib/subject-13.csv,legacy,Kafkaesque Koffka,3.2.7,exposure,0,3,,space,3,,637,,1401,637,,2,legacy,vertical,1024,2,48000,-16,experiment,13,odd,legacy,8134,,652,2060,8131,8236,,,659,9877,,9239,9240,,,Feature Shift Prototypes,0,1827,5,no,,no,1920,0,8
undefined,undefined,392.666666667,392.666666667,white,no,legacy,legacy,legacy,0,relative,undefined,,undefined,undefined,5,,0,0,5,5,,,0,5,0,5,5,0,0,Thu 31 Oct 2019 11:45:00 GMT,,yes,facialproto_short.osexp,/home/andy/svn/rmip/docs/openseslib,7,0708.png,no,mono,no,18,no,black,no,no,1080,legacy,5,5,/home/andy/svn/rmip/docs/openseslib/subject-13.csv,legacy,Kafkaesque Koffka,3.2.7,exposure,0,5,,space,5,,529,,1401,529,,2,legacy,vertical,1024,2,48000,-16,experiment,13,odd,legacy,9979,,652,2060,9976,10081,,,659,11613,,11084,11084,,,Feature Shift Prototypes,0,2356,6,no,,no,1920,0,8
undefined,undefined,411.142857143,411.142857143,white,no,legacy,legacy,legacy,0,relative,undefined,,undefined,undefined,6,,0,0,6,6,,,0,6,0,6,6,0,0,Thu 31 Oct 2019 11:45:00 GMT,,yes,facialproto_short.osexp,/home/andy/svn/rmip/docs/openseslib,4,0480.png,no,mono,no,18,no,black,no,no,1080,legacy,6,6,/home/andy/svn/rmip/docs/openseslib/subject-13.csv,legacy,Kafkaesque Koffka,3.2.7,exposure,0,4,,space,4,,522,,1401,522,,2,legacy,horizontal,1024,2,48000,-16,experiment,13,odd,legacy,11695,,652,2060,11692,11797,,,659,13322,,12799,12800,,,Feature Shift Prototypes,0,2878,7,no,,no,1920,8,0
undefined,undefined,360,360,white,no,legacy,legacy,legacy,0,relative,undefined,,undefined,undefined,7,,0,0,7,7,,,0,7,0,7,7,0,0,Thu 31 Oct 2019 11:45:00 GMT,,yes,facialproto_short.osexp,/home/andy/svn/rmip/docs/openseslib,6,06-80.png,no,mono,no,18,no,black,no,no,1080,legacy,7,7,/home/andy/svn/rmip/docs/openseslib/subject-13.csv,legacy,Kafkaesque Koffka,3.2.7,exposure,0,3,,space,3,,2,,1401,2,,2,legacy,horizontal,1024,2,48000,-16,experiment,13,odd,legacy,13411,,652,2060,13408,13515,,,659,14520,,14517,14518,,,Feature Shift Prototypes,0,2880,8,no,,no,1920,-8,0
undefined,undefined,371.777777778,371.777777778,white,no,legacy,legacy,legacy,0,relative,undefined,,undefined,undefined,8,,0,0,8,8,,,0,8,0,8,8,0,0,Thu 31 Oct 2019 11:45:00 GMT,,yes,facialproto_short.osexp,/home/andy/svn/rmip/docs/openseslib,2,02-80.png,no,mono,no,18,no,black,no,no,1080,legacy,8,8,/home/andy/svn/rmip/docs/openseslib/subject-13.csv,legacy,Kafkaesque Koffka,3.2.7,exposure,0,5,,space,5,,466,,1401,466,,2,legacy,horizontal,1024,2,48000,-16,experiment,13,odd,legacy,14610,,652,2060,14607,14712,,,659,16181,,15714,15714,,,Feature Shift Prototypes,0,3346,9,no,,no,1920,-8,0
undefined,undefined,557.1,557.1,white,no,legacy,legacy,legacy,0,relative,undefined,,undefined,undefined,9,,0,0,9,9,,,0,9,0,9,9,0,0,Thu 31 Oct 2019 11:45:00 GMT,,yes,facialproto_short.osexp,/home/andy/svn/rmip/docs/openseslib,6,06-80.png,no,mono,no,18,no,black,no,no,1080,legacy,9,9,/home/andy/svn/rmip/docs/openseslib/subject-13.csv,legacy,Kafkaesque Koffka,3.2.7,exposure,0,3,,space,3,,2225,,1401,2225,,2,legacy,horizontal,1024,2,48000,-16,experiment,13,odd,legacy,16300,,652,2060,16297,16403,,,659,19631,,17405,17406,,,Feature Shift Prototypes,0,5571,10,no,,no,1920,-8,0
undefined,undefined,615,615,white,no,legacy,legacy,legacy,0,relative,undefined,,undefined,undefined,10,,0,0,10,10,,,0,10,0,10,10,0,0,Thu 31 Oct 2019 11:45:00 GMT,,yes,facialproto_short.osexp,/home/andy/svn/rmip/docs/openseslib,5,0508.png,no,mono,no,18,no,black,no,no,1080,legacy,10,10,/home/andy/svn/rmip/docs/openseslib/subject-13.csv,legacy,Kafkaesque Koffka,3.2.7,exposure,0,5,,space,5,,1194,,1401,1194,,2,legacy,vertical,1024,2,48000,-16,experiment,13,odd,legacy,19714,,652,2060,19711,19816,,,659,22012,,20818,20818,,,Feature Shift Prototypes,0,6765,11,no,,no,1920,0,8
undefined,undefined,637.5,637.5,white,no,legacy,legacy,legacy,0,relative,undefined,,undefined,undefined,11,,0,0,11,11,,,0,11,0,11,11,0,0,Thu 31 Oct 2019 11:45:00 GMT,,yes,facialproto_short.osexp,/home/andy/svn/rmip/docs/openseslib,7,070-8.png,no,mono,no,18,no,black,no,no,1080,legacy,11,11,/home/andy/svn/rmip/docs/openseslib/subject-13.csv,legacy,Kafkaesque Koffka,3.2.7,exposure,0,6,,space,6,,885,,1401,885,,2,legacy,vertical,1024,2,48000,-16,experiment,13,odd,legacy,22093,,652,2060,22090,22195,,,659,24084,,23198,23199,,,Feature Shift Prototypes,0,7650,12,no,,no,1920,0,-8
undefined,undefined,629.769230769,629.769230769,white,no,legacy,legacy,legacy,0,relative,undefined,,undefined,undefined,12,,0,0,12,12,,,0,12,0,12,12,0,0,Thu 31 Oct 2019 11:45:00 GMT,,yes,facialproto_short.osexp,/home/andy/svn/rmip/docs/openseslib,4,0480.png,no,mono,no,18,no,black,no,no,1080,legacy,12,12,/home/andy/svn/rmip/docs/openseslib/subject-13.csv,legacy,Kafkaesque Koffka,3.2.7,exposure,0,7,,space,7,,537,,1401,537,,2,legacy,horizontal,1024,2,48000,-16,experiment,13,odd,legacy,24175,,652,2060,24172,24277,,,659,25818,,25280,25280,,,Feature Shift Prototypes,0,8187,13,no,,no,1920,8,0
undefined,undefined,624.285714286,624.285714286,white,no,legacy,legacy,legacy,0,relative,undefined,,undefined,undefined,13,,0,0,13,13,,,0,13,0,13,13,0,0,Thu 31 Oct 2019 11:45:00 GMT,,yes,facialproto_short.osexp,/home/andy/svn/rmip/docs/openseslib,3,0308.png,no,mono,no,18,no,black,no,no,1080,legacy,13,13,/home/andy/svn/rmip/docs/openseslib/subject-13.csv,legacy,Kafkaesque Koffka,3.2.7,exposure,0,4,,space,4,,553,,1401,553,,2,legacy,vertical,1024,2,48000,-16,experiment,13,odd,legacy,25899,,652,2060,25897,26001,,,659,27557,,27003,27004,,,Feature Shift Prototypes,0,8740,14,no,,no,1920,0,8
undefined,undefined,618.133333333,618.133333333,white,no,legacy,legacy,legacy,0,relative,undefined,,undefined,undefined,14,,0,0,14,14,,,0,14,0,14,14,0,0,Thu 31 Oct 2019 11:45:00 GMT,,yes,facialproto_short.osexp,/home/andy/svn/rmip/docs/openseslib,1,010-8.png,no,mono,no,18,no,black,no,no,1080,legacy,14,14,/home/andy/svn/rmip/docs/openseslib/subject-13.csv,legacy,Kafkaesque Koffka,3.2.7,exposure,0,5,,space,5,,532,,1401,532,,2,legacy,vertical,1024,2,48000,-16,experiment,13,odd,legacy,27638,,652,2060,27635,27741,,,659,29277,,28743,28744,,,Feature Shift Prototypes,0,9272,15,no,,no,1920,0,-8
undefined,undefined,627.1875,627.1875,white,no,legacy,legacy,legacy,0,relative,undefined,,undefined,undefined,15,,0,0,15,15,,,0,15,0,15,15,0,0,Thu 31 Oct 2019 11:45:00 GMT,,yes,facialproto_short.osexp,/home/andy/svn/rmip/docs/openseslib,8,08-80.png,no,mono,no,18,no,black,no,no,1080,legacy,15,15,/home/andy/svn/rmip/docs/openseslib/subject-13.csv,legacy,Kafkaesque Koffka,3.2.7,exposure,0,6,,space,6,,763,,1401,763,,2,legacy,horizontal,1024,2,48000,-16,experiment,13,odd,legacy,29367,,652,2060,29365,29470,,,659,31236,,30473,30473,,,Feature Shift Prototypes,0,10035,16,no,,no,1920,-8,0
undefined,undefined,655.647058824,655.647058824,white,no,legacy,legacy,legacy,0,relative,undefined,,undefined,undefined,16,,0,0,16,16,,,0,16,0,16,16,0,0,Thu 31 Oct 2019 11:45:00 GMT,,yes,facialproto_short.osexp,/home/andy/svn/rmip/docs/openseslib,4,04-80.png,no,mono,no,18,no,black,no,no,1080,legacy,16,16,/home/andy/svn/rmip/docs/openseslib/subject-13.csv,legacy,Kafkaesque Koffka,3.2.7,exposure,0,3,,space,3,,1111,,1401,1111,,2,legacy,horizontal,1024,2,48000,-16,experiment,13,odd,legacy,31341,,652,2060,31338,31443,,,659,33557,,32445,32446,,,Feature Shift Prototypes,0,11146,17,no,,no,1920,-8,0
undefined,undefined,693.444444444,693.444444444,white,no,legacy,legacy,legacy,0,relative,undefined,,undefined,undefined,17,,0,0,17,17,,,0,17,0,17,17,0,0,Thu 31 Oct 2019 11:45:00 GMT,,yes,facialproto_short.osexp,/home/andy/svn/rmip/docs/openseslib,4,04-80.png,no,mono,no,18,no,black,no,no,1080,legacy,17,17,/home/andy/svn/rmip/docs/openseslib/subject-13.csv,legacy,Kafkaesque Koffka,3.2.7,exposure,0,6,,space,6,,1336,,1401,1336,,2,legacy,horizontal,1024,2,48000,-16,experiment,13,odd,legacy,33650,,652,2060,33647,33752,,,659,36092,,34755,34756,,,Feature Shift Prototypes,0,12482,18,no,,no,1920,-8,0
undefined,undefined,683.368421053,683.368421053,white,no,legacy,legacy,legacy,0,relative,undefined,,undefined,undefined,18,,0,0,18,18,,,0,18,0,18,18,0,0,Thu 31 Oct 2019 11:45:00 GMT,,yes,facialproto_short.osexp,/home/andy/svn/rmip/docs/openseslib,3,030-8.png,no,mono,no,18,no,black,no,no,1080,legacy,18,18,/home/andy/svn/rmip/docs/openseslib/subject-13.csv,legacy,Kafkaesque Koffka,3.2.7,exposure,0,5,,space,5,,502,,1401,502,,2,legacy,vertical,1024,2,48000,-16,experiment,13,odd,legacy,36174,,652,2060,36171,36276,,,659,37781,,37278,37279,,,Feature Shift Prototypes,0,12984,19,no,,no,1920,0,-8
undefined,undefined,671.8,671.8,white,no,legacy,legacy,legacy,0,relative,undefined,,undefined,undefined,19,,0,0,19,19,,,0,19,0,19,19,0,0,Thu 31 Oct 2019 11:45:00 GMT,,yes,facialproto_short.osexp,/home/andy/svn/rmip/docs/openseslib,2,0280.png,no,mono,no,18,no,black,no,no,1080,legacy,19,19,/home/andy/svn/rmip/docs/openseslib/subject-13.csv,legacy,Kafkaesque Koffka,3.2.7,exposure,0,4,,space,4,,452,,1401,452,,2,legacy,horizontal,1024,2,48000,-16,experiment,13,odd,legacy,37863,,652,2060,37860,37965,,,659,39420,,38967,38968,,,Feature Shift Prototypes,0,13436,20,no,,no,1920,8,0
undefined,undefined,664.666666667,664.666666667,white,no,legacy,legacy,legacy,0,relative,undefined,,undefined,undefined,20,,0,0,20,20,,,0,20,0,20,20,0,0,Thu 31 Oct 2019 11:45:00 GMT,,yes,facialproto_short.osexp,/home/andy/svn/rmip/docs/openseslib,2,0280.png,no,mono,no,18,no,black,no,no,1080,legacy,20,20,/home/andy/svn/rmip/docs/openseslib/subject-13.csv,legacy,Kafkaesque Koffka,3.2.7,exposure,0,6,,space,6,,522,,1401,522,,2,legacy,horizontal,1024,2,48000,-16,experiment,13,odd,legacy,39503,,652,2060,39500,39606,,,659,41132,,40609,40610,,,Feature Shift Prototypes,0,13958,21,no,,no,1920,8,0
undefined,undefined,718.545454545,718.545454545,white,no,legacy,legacy,legacy,0,relative,undefined,,undefined,undefined,21,,0,0,21,21,,,0,21,0,21,21,0,0,Thu 31 Oct 2019 11:45:00 GMT,,yes,facialproto_short.osexp,/home/andy/svn/rmip/docs/openseslib,6,0680.png,no,mono,no,18,no,black,no,no,1080,legacy,21,21,/home/andy/svn/rmip/docs/openseslib/subject-13.csv,legacy,Kafkaesque Koffka,3.2.7,exposure,0,7,,space,7,,1850,,1401,1850,,2,legacy,horizontal,1024,2,48000,-16,experiment,13,odd,legacy,41217,,652,2060,41213,41319,,,659,44172,,42321,42322,,,Feature Shift Prototypes,0,15808,22,no,,no,1920,8,0
undefined,undefined,707.47826087,707.47826087,white,no,legacy,legacy,legacy,0,relative,undefined,,undefined,undefined,22,,0,0,22,22,,,0,22,0,22,22,0,0,Thu 31 Oct 2019 11:45:00 GMT,,yes,facialproto_short.osexp,/home/andy/svn/rmip/docs/openseslib,3,030-8.png,no,mono,no,18,no,black,no,no,1080,legacy,22,22,/home/andy/svn/rmip/docs/openseslib/subject-13.csv,legacy,Kafkaesque Koffka,3.2.7,exposure,0,4,,space,4,,464,,1401,464,,2,legacy,vertical,1024,2,48000,-16,experiment,13,odd,legacy,44260,,652,2060,44257,44363,,,659,45829,,45365,45365,,,Feature Shift Prototypes,0,16272,23,no,,no,1920,0,-8
undefined,undefined,714,714,white,no,legacy,legacy,legacy,0,relative,undefined,,undefined,undefined,23,,0,0,23,23,,,0,23,0,23,23,0,0,Thu 31 Oct 2019 11:45:00 GMT,,yes,facialproto_short.osexp,/home/andy/svn/rmip/docs/openseslib,1,0108.png,no,mono,no,18,no,black,no,no,1080,legacy,23,23,/home/andy/svn/rmip/docs/openseslib/subject-13.csv,legacy,Kafkaesque Koffka,3.2.7,exposure,0,5,,space,5,,864,,1401,864,,2,legacy,vertical,1024,2,48000,-16,experiment,13,odd,legacy,45923,,652,2060,45920,46026,,,659,47893,,47028,47029,,,Feature Shift Prototypes,0,17136,24,no,,no,1920,0,8
undefined,undefined,712.8,712.8,white,no,legacy,legacy,legacy,0,relative,undefined,,undefined,undefined,24,,0,0,24,24,,,0,24,0,24,24,0,0,Thu 31 Oct 2019 11:45:00 GMT,,yes,facialproto_short.osexp,/home/andy/svn/rmip/docs/openseslib,1,0108.png,no,mono,no,18,no,black,no,no,1080,legacy,24,24,/home/andy/svn/rmip/docs/openseslib/subject-13.csv,legacy,Kafkaesque Koffka,3.2.7,exposure,0,3,,space,3,,684,,1401,684,,2,legacy,vertical,1024,2,48000,-16,experiment,13,odd,legacy,47975,,652,2060,47972,48077,,,659,49765,,49080,49081,,,Feature Shift Prototypes,0,17820,25,no,,no,1920,0,8
undefined,undefined,711.461538462,711.461538462,white,no,legacy,legacy,legacy,0,relative,undefined,,undefined,undefined,25,,0,0,25,25,,,0,25,0,25,25,0,0,Thu 31 Oct 2019 11:45:00 GMT,,yes,facialproto_short.osexp,/home/andy/svn/rmip/docs/openseslib,5,050-8.png,no,mono,no,18,no,black,no,no,1080,legacy,25,25,/home/andy/svn/rmip/docs/openseslib/subject-13.csv,legacy,Kafkaesque Koffka,3.2.7,exposure,0,6,,space,6,,678,,1401,678,,2,legacy,vertical,1024,2,48000,-16,experiment,13,odd,legacy,49853,,652,2060,49850,49955,,,659,51637,,50957,50958,,,Feature Shift Prototypes,0,18498,26,no,,no,1920,0,-8
undefined,undefined,711.111111111,711.111111111,white,no,legacy,legacy,legacy,0,relative,undefined,,undefined,undefined,26,,0,0,26,26,,,0,26,0,26,26,0,0,Thu 31 Oct 2019 11:45:00 GMT,,yes,facialproto_short.osexp,/home/andy/svn/rmip/docs/openseslib,8,08-80.png,no,mono,no,18,no,black,no,no,1080,legacy,26,26,/home/andy/svn/rmip/docs/openseslib/subject-13.csv,legacy,Kafkaesque Koffka,3.2.7,exposure,0,5,,space,5,,702,,1401,702,,2,legacy,horizontal,1024,2,48000,-16,experiment,13,odd,legacy,51718,,652,2060,51715,51820,,,659,53525,,52822,52823,,,Feature Shift Prototypes,0,19200,27,no,,no,1920,-8,0
undefined,undefined,704.714285714,704.714285714,white,no,legacy,legacy,legacy,0,relative,undefined,,undefined,undefined,27,,0,0,27,27,,,0,27,0,27,27,0,0,Thu 31 Oct 2019 11:45:00 GMT,,yes,facialproto_short.osexp,/home/andy/svn/rmip/docs/openseslib,5,050-8.png,no,mono,no,18,no,black,no,no,1080,legacy,27,27,/home/andy/svn/rmip/docs/openseslib/subject-13.csv,legacy,Kafkaesque Koffka,3.2.7,exposure,0,3,,space,3,,532,,1401,532,,2,legacy,vertical,1024,2,48000,-16,experiment,13,odd,legacy,53607,,652,2060,53604,53709,,,659,55244,,54711,54712,,,Feature Shift Prototypes,0,19732,28,no,,no,1920,0,-8
undefined,undefined,702.344827586,702.344827586,white,no,legacy,legacy,legacy,0,relative,undefined,,undefined,undefined,28,,0,0,28,28,,,0,28,0,28,28,0,0,Thu 31 Oct 2019 11:45:00 GMT,,yes,facialproto_short.osexp,/home/andy/svn/rmip/docs/openseslib,5,0508.png,no,mono,no,18,no,black,no,no,1080,legacy,28,28,/home/andy/svn/rmip/docs/openseslib/subject-13.csv,legacy,Kafkaesque Koffka,3.2.7,exposure,0,6,,space,6,,636,,1401,636,,2,legacy,vertical,1024,2,48000,-16,experiment,13,odd,legacy,55325,,652,2060,55323,55428,,,659,57073,,56431,56432,,,Feature Shift Prototypes,0,20368,29,no,,no,1920,0,8
undefined,undefined,717.733333333,717.733333333,white,no,legacy,legacy,legacy,0,relative,undefined,,undefined,undefined,29,,0,0,29,29,,,0,29,0,29,29,0,0,Thu 31 Oct 2019 11:45:00 GMT,,yes,facialproto_short.osexp,/home/andy/svn/rmip/docs/openseslib,7,070-8.png,no,mono,no,18,no,black,no,no,1080,legacy,29,29,/home/andy/svn/rmip/docs/openseslib/subject-13.csv,legacy,Kafkaesque Koffka,3.2.7,exposure,0,5,,space,5,,1164,,1401,1164,,2,legacy,vertical,1024,2,48000,-16,experiment,13,odd,legacy,57167,,652,2060,57164,57269,,,659,59438,,58272,58273,,,Feature Shift Prototypes,0,21532,30,no,,no,1920,0,-8
undefined,undefined,718.548387097,718.548387097,white,no,legacy,legacy,legacy,0,relative,undefined,,undefined,undefined,30,,0,0,30,30,,,0,30,0,30,30,0,0,Thu 31 Oct 2019 11:45:00 GMT,,yes,facialproto_short.osexp,/home/andy/svn/rmip/docs/openseslib,7,0708.png,no,mono,no,18,no,black,no,no,1080,legacy,30,30,/home/andy/svn/rmip/docs/openseslib/subject-13.csv,legacy,Kafkaesque Koffka,3.2.7,exposure,0,6,,space,6,,743,,1401,743,,2,legacy,vertical,1024,2,48000,-16,experiment,13,odd,legacy,59531,,652,2060,59528,59634,,,659,61380,,60636,60636,,,Feature Shift Prototypes,0,22275,31,no,,no,1920,0,8
undefined,undefined,740.40625,740.40625,white,no,legacy,legacy,legacy,0,relative,undefined,,undefined,undefined,31,,0,0,31,31,,,0,31,0,31,31,0,0,Thu 31 Oct 2019 11:45:00 GMT,,yes,facialproto_short.osexp,/home/andy/svn/rmip/docs/openseslib,8,0880.png,no,mono,no,18,no,black,no,no,1080,legacy,31,31,/home/andy/svn/rmip/docs/openseslib/subject-13.csv,legacy,Kafkaesque Koffka,3.2.7,exposure,0,3,,space,3,,1418,,1401,1418,,2,legacy,horizontal,1024,2,48000,-16,experiment,13,odd,legacy,61488,,652,2060,61485,61591,,,659,64012,,62593,62593,,,Feature Shift Prototypes,0,23693,32,no,,no,1920,8,0
undefined,undefined,733.424242424,733.424242424,white,no,legacy,legacy,legacy,0,relative,undefined,undefined,undefined,undefined,32,0,0,0,31,31,0,0,0,32,0,31,31,0,0,Thu 31 Oct 2019 11:45:00 GMT,,yes,facialproto_short.osexp,/home/andy/svn/rmip/docs/openseslib,7,070-12.png,no,mono,no,18,no,black,no,no,1080,legacy,0,31,/home/andy/svn/rmip/docs/openseslib/subject-13.csv,legacy,Kafkaesque Koffka,3.2.7,test,0,6,6,space,3,space,510,510,1401,1418,943,2,legacy,vertical,1024,2,48000,-16,experiment,13,odd,legacy,65048,65045,652,2060,61485,61591,65150,65150,659,65661,,62593,62593,65012,64069,Feature Shift Prototypes,0,24203,33,no,unseen,no,1920,0,-12
undefined,undefined,722.882352941,722.882352941,white,no,legacy,legacy,legacy,0,relative,undefined,undefined,undefined,undefined,33,1,0,0,31,31,1,1,0,33,0,31,31,0,0,Thu 31 Oct 2019 11:45:00 GMT,,yes,facialproto_short.osexp,/home/andy/svn/rmip/docs/openseslib,3,030-12.png,no,mono,no,18,no,black,no,no,1080,legacy,1,31,/home/andy/svn/rmip/docs/openseslib/subject-13.csv,legacy,Kafkaesque Koffka,3.2.7,test,0,3,3,space,3,space,375,375,1401,1418,943,2,legacy,vertical,1024,2,48000,-16,experiment,13,odd,legacy,65733,65730,652,2060,61485,61591,65835,65836,659,66212,,62593,62593,65012,64069,Feature Shift Prototypes,0,24578,34,no,unseen,no,1920,0,-12
undefined,undefined,711.6,711.6,white,no,legacy,legacy,legacy,0,relative,undefined,undefined,undefined,undefined,34,2,0,0,31,31,2,2,0,34,0,31,31,0,0,Thu 31 Oct 2019 11:45:00 GMT,,yes,facialproto_short.osexp,/home/andy/svn/rmip/docs/openseslib,1,0100.png,no,mono,no,18,no,black,no,no,1080,legacy,2,31,/home/andy/svn/rmip/docs/openseslib/subject-13.csv,legacy,Kafkaesque Koffka,3.2.7,test,0,4,4,space,3,space,328,328,1401,1418,943,2,legacy,vertical,1024,2,48000,-16,experiment,13,odd,legacy,66309,66306,652,2060,61485,61591,66411,66412,659,66741,,62593,62593,65012,64069,Feature Shift Prototypes,0,24906,35,no,prototype,no,1920,0,0
undefined,undefined,699.777777778,699.777777778,white,no,legacy,legacy,legacy,0,relative,undefined,undefined,undefined,undefined,35,3,0,0,31,31,3,3,0,35,0,31,31,0,0,Thu 31 Oct 2019 11:45:00 GMT,,yes,facialproto_short.osexp,/home/andy/svn/rmip/docs/openseslib,8,0880.png,no,mono,no,18,no,black,no,no,1080,legacy,3,31,/home/andy/svn/rmip/docs/openseslib/subject-13.csv,legacy,Kafkaesque Koffka,3.2.7,test,0,5,5,space,3,space,286,286,1401,1418,943,2,legacy,horizontal,1024,2,48000,-16,experiment,13,odd,legacy,66814,66811,652,2060,61485,61591,66917,66917,659,67204,,62593,62593,65012,64069,Feature Shift Prototypes,0,25192,36,no,seen,no,1920,8,0
undefined,undefined,690.864864865,690.864864865,white,no,legacy,legacy,legacy,0,relative,undefined,undefined,undefined,undefined,36,4,0,0,31,31,4,4,0,36,0,31,31,0,0,Thu 31 Oct 2019 11:45:00 GMT,,yes,facialproto_short.osexp,/home/andy/svn/rmip/docs/openseslib,2,02-80.png,no,mono,no,18,no,black,no,no,1080,legacy,4,31,/home/andy/svn/rmip/docs/openseslib/subject-13.csv,legacy,Kafkaesque Koffka,3.2.7,test,0,3,3,space,3,space,370,370,1401,1418,943,2,legacy,horizontal,1024,2,48000,-16,experiment,13,odd,legacy,67307,67301,652,2060,61485,61591,67410,67410,659,67781,,62593,62593,65012,64069,Feature Shift Prototypes,0,25562,37,no,seen,no,1920,-8,0
undefined,undefined,685.078947368,685.078947368,white,no,legacy,legacy,legacy,0,relative,undefined,undefined,undefined,undefined,37,5,0,0,31,31,5,5,0,37,0,31,31,0,0,Thu 31 Oct 2019 11:45:00 GMT,,yes,facialproto_short.osexp,/home/andy/svn/rmip/docs/openseslib,4,0400.png,no,mono,no,18,no,black,no,no,1080,legacy,5,31,/home/andy/svn/rmip/docs/openseslib/subject-13.csv,legacy,Kafkaesque Koffka,3.2.7,test,0,7,7,space,3,space,471,471,1401,1418,943,2,legacy,horizontal,1024,2,48000,-16,experiment,13,odd,legacy,67852,67850,652,2060,61485,61591,67956,67956,659,68428,,62593,62593,65012,64069,Feature Shift Prototypes,0,26033,38,no,prototype,no,1920,0,0
undefined,undefined,677.282051282,677.282051282,white,no,legacy,legacy,legacy,0,relative,undefined,undefined,undefined,undefined,38,6,0,0,31,31,6,6,0,38,0,31,31,0,0,Thu 31 Oct 2019 11:45:00 GMT,,yes,facialproto_short.osexp,/home/andy/svn/rmip/docs/openseslib,1,01012.png,no,mono,no,18,no,black,no,no,1080,legacy,6,31,/home/andy/svn/rmip/docs/openseslib/subject-13.csv,legacy,Kafkaesque Koffka,3.2.7,test,0,4,4,space,3,space,381,381,1401,1418,943,2,legacy,vertical,1024,2,48000,-16,experiment,13,odd,legacy,68504,68501,652,2060,61485,61591,68606,68607,659,68989,,62593,62593,65012,64069,Feature Shift Prototypes,0,26414,39,no,unseen,no,1920,0,12
undefined,undefined,673.55,673.55,white,no,legacy,legacy,legacy,0,relative,undefined,undefined,undefined,undefined,39,7,0,0,31,31,7,7,0,39,0,31,31,0,0,Thu 31 Oct 2019 11:45:00 GMT,,yes,facialproto_short.osexp,/home/andy/svn/rmip/docs/openseslib,8,08-120.png,no,mono,no,18,no,black,no,no,1080,legacy,7,31,/home/andy/svn/rmip/docs/openseslib/subject-13.csv,legacy,Kafkaesque Koffka,3.2.7,test,0,6,6,space,3,space,528,528,1401,1418,943,2,legacy,horizontal,1024,2,48000,-16,experiment,13,odd,legacy,69060,69057,652,2060,61485,61591,69164,69164,659,69693,,62593,62593,65012,64069,Feature Shift Prototypes,0,26942,40,no,unseen,no,1920,-12,0
undefined,undefined,665.268292683,665.268292683,white,no,legacy,legacy,legacy,0,relative,undefined,undefined,undefined,undefined,40,8,0,0,31,31,8,8,0,40,0,31,31,0,0,Thu 31 Oct 2019 11:45:00 GMT,,yes,facialproto_short.osexp,/home/andy/svn/rmip/docs/openseslib,2,02120.png,no,mono,no,18,no,black,no,no,1080,legacy,8,31,/home/andy/svn/rmip/docs/openseslib/subject-13.csv,legacy,Kafkaesque Koffka,3.2.7,test,0,3,3,space,3,space,334,334,1401,1418,943,2,legacy,horizontal,1024,2,48000,-16,experiment,13,odd,legacy,69766,69763,652,2060,61485,61591,69868,69869,659,70204,,62593,62593,65012,64069,Feature Shift Prototypes,0,27276,41,no,unseen,no,1920,12,0
undefined,undefined,658.428571429,658.428571429,white,no,legacy,legacy,legacy,0,relative,undefined,undefined,undefined,undefined,41,9,0,0,31,31,9,9,0,41,0,31,31,0,0,Thu 31 Oct 2019 11:45:00 GMT,,yes,facialproto_short.osexp,/home/andy/svn/rmip/docs/openseslib,4,04-120.png,no,mono,no,18,no,black,no,no,1080,legacy,9,31,/home/andy/svn/rmip/docs/openseslib/subject-13.csv,legacy,Kafkaesque Koffka,3.2.7,test,0,4,4,space,3,space,378,378,1401,1418,943,2,legacy,horizontal,1024,2,48000,-16,experiment,13,odd,legacy,70275,70272,652,2060,61485,61591,70377,70378,659,70757,,62593,62593,65012,64069,Feature Shift Prototypes,0,27654,42,no,unseen,no,1920,-12,0
undefined,undefined,650.348837209,650.348837209,white,no,legacy,legacy,legacy,0,relative,undefined,undefined,undefined,undefined,42,10,0,0,31,31,10,10,0,42,0,31,31,0,0,Thu 31 Oct 2019 11:45:00 GMT,,yes,facialproto_short.osexp,/home/andy/svn/rmip/docs/openseslib,6,06-80.png,no,mono,no,18,no,black,no,no,1080,legacy,10,31,/home/andy/svn/rmip/docs/openseslib/subject-13.csv,legacy,Kafkaesque Koffka,3.2.7,test,0,6,6,space,3,space,311,311,1401,1418,943,2,legacy,horizontal,1024,2,48000,-16,experiment,13,odd,legacy,70829,70826,652,2060,61485,61591,70931,70932,659,71244,,62593,62593,65012,64069,Feature Shift Prototypes,0,27965,43,no,seen,no,1920,-8,0
undefined,undefined,641.227272727,641.227272727,white,no,legacy,legacy,legacy,0,relative,undefined,undefined,undefined,undefined,43,11,0,0,31,31,11,11,0,43,0,31,31,0,0,Thu 31 Oct 2019 11:45:00 GMT,,yes,facialproto_short.osexp,/home/andy/svn/rmip/docs/openseslib,6,06120.png,no,mono,no,18,no,black,no,no,1080,legacy,11,31,/home/andy/svn/rmip/docs/openseslib/subject-13.csv,legacy,Kafkaesque Koffka,3.2.7,test,0,5,5,space,3,space,249,249,1401,1418,943,2,legacy,horizontal,1024,2,48000,-16,experiment,13,odd,legacy,71316,71313,652,2060,61485,61591,71420,71420,659,71669,,62593,62593,65012,64069,Feature Shift Prototypes,0,28214,44,no,unseen,no,1920,12,0
undefined,undefined,633.488888889,633.488888889,white,no,legacy,legacy,legacy,0,relative,undefined,undefined,undefined,undefined,44,12,0,0,31,31,12,12,0,44,0,31,31,0,0,Thu 31 Oct 2019 11:45:00 GMT,,yes,facialproto_short.osexp,/home/andy/svn/rmip/docs/openseslib,3,0300.png,no,mono,no,18,no,black,no,no,1080,legacy,12,31,/home/andy/svn/rmip/docs/openseslib/subject-13.csv,legacy,Kafkaesque Koffka,3.2.7,test,0,4,4,space,3,space,293,293,1401,1418,943,2,legacy,vertical,1024,2,48000,-16,experiment,13,odd,legacy,71751,71748,652,2060,61485,61591,71854,71854,659,72148,,62593,62593,65012,64069,Feature Shift Prototypes,0,28507,45,no,prototype,no,1920,0,0
undefined,undefined,625.065217391,625.065217391,white,no,legacy,legacy,legacy,0,relative,undefined,undefined,undefined,undefined,45,13,0,0,31,31,13,13,0,45,0,31,31,0,0,Thu 31 Oct 2019 11:45:00 GMT,,yes,facialproto_short.osexp,/home/andy/svn/rmip/docs/openseslib,1,010-8.png,no,mono,no,18,no,black,no,no,1080,legacy,13,31,/home/andy/svn/rmip/docs/openseslib/subject-13.csv,legacy,Kafkaesque Koffka,3.2.7,test,0,3,3,space,3,space,246,246,1401,1418,943,2,legacy,vertical,1024,2,48000,-16,experiment,13,odd,legacy,72231,72228,652,2060,61485,61591,72333,72334,659,72581,,62593,62593,65012,64069,Feature Shift Prototypes,0,28753,46,no,seen,no,1920,0,-8
undefined,undefined,616.808510638,616.808510638,white,no,legacy,legacy,legacy,0,relative,undefined,undefined,undefined,undefined,46,14,0,0,31,31,14,14,0,46,0,31,31,0,0,Thu 31 Oct 2019 11:45:00 GMT,,yes,facialproto_short.osexp,/home/andy/svn/rmip/docs/openseslib,4,0480.png,no,mono,no,18,no,black,no,no,1080,legacy,14,31,/home/andy/svn/rmip/docs/openseslib/subject-13.csv,legacy,Kafkaesque Koffka,3.2.7,test,0,4,4,space,3,space,237,237,1401,1418,943,2,legacy,horizontal,1024,2,48000,-16,experiment,13,odd,legacy,72670,72667,652,2060,61485,61591,72773,72774,659,73012,,62593,62593,65012,64069,Feature Shift Prototypes,0,28990,47,no,seen,no,1920,8,0
undefined,undefined,609.291666667,609.291666667,white,no,legacy,legacy,legacy,0,relative,undefined,undefined,undefined,undefined,47,15,0,0,31,31,15,15,0,47,0,31,31,0,0,Thu 31 Oct 2019 11:45:00 GMT,,yes,facialproto_short.osexp,/home/andy/svn/rmip/docs/openseslib,3,0308.png,no,mono,no,18,no,black,no,no,1080,legacy,15,31,/home/andy/svn/rmip/docs/openseslib/subject-13.csv,legacy,Kafkaesque Koffka,3.2.7,test,0,5,5,space,3,space,256,256,1401,1418,943,2,legacy,vertical,1024,2,48000,-16,experiment,13,odd,legacy,73085,73082,652,2060,61485,61591,73187,73187,659,73444,,62593,62593,65012,64069,Feature Shift Prototypes,0,29246,48,no,seen,no,1920,0,8
undefined,undefined,604.469387755,604.469387755,white,no,legacy,legacy,legacy,0,relative,undefined,undefined,undefined,undefined,48,16,0,0,31,31,16,16,0,48,0,31,31,0,0,Thu 31 Oct 2019 11:45:00 GMT,,yes,facialproto_short.osexp,/home/andy/svn/rmip/docs/openseslib,5,0500.png,no,mono,no,18,no,black,no,no,1080,legacy,16,31,/home/andy/svn/rmip/docs/openseslib/subject-13.csv,legacy,Kafkaesque Koffka,3.2.7,test,0,6,6,space,3,space,373,373,1401,1418,943,2,legacy,vertical,1024,2,48000,-16,experiment,13,odd,legacy,73520,73517,652,2060,61485,61591,73622,73623,659,73997,,62593,62593,65012,64069,Feature Shift Prototypes,0,29619,49,no,prototype,no,1920,0,0
undefined,undefined,597.8,597.8,white,no,legacy,legacy,legacy,0,relative,undefined,undefined,undefined,undefined,49,17,0,0,31,31,17,17,0,49,0,31,31,0,0,Thu 31 Oct 2019 11:45:00 GMT,,yes,facialproto_short.osexp,/home/andy/svn/rmip/docs/openseslib,7,0708.png,no,mono,no,18,no,black,no,no,1080,legacy,17,31,/home/andy/svn/rmip/docs/openseslib/subject-13.csv,legacy,Kafkaesque Koffka,3.2.7,test,0,3,3,space,3,space,271,271,1401,1418,943,2,legacy,vertical,1024,2,48000,-16,experiment,13,odd,legacy,74077,74074,652,2060,61485,61591,74179,74180,659,74452,,62593,62593,65012,64069,Feature Shift Prototypes,0,29890,50,no,seen,no,1920,0,8
