"date","subj","cbal","keyb","phase","block","trial","stim","vtft","ftpks","pk1acc","totpks","pos1rt","neg1rt"
2007-01-22,1,1,"right",1,1,1,"S2000",3,0,"+",1,46005,2684
2007-01-22,1,1,"right",1,1,2,"S1000",2,0,"+",1,695,3463
2007-01-22,1,1,"right",1,1,3,"S0010",2,1,"*",2,1289,571
2007-01-22,1,1,"right",1,1,4,"S0002",2,0,"*",1,2479,-1
2007-01-22,1,1,"right",1,1,5,"S0100",2,1,"*",2,2930,797
2007-01-22,1,1,"right",1,1,6,"S0020",2,0,"+",1,4530,674
2007-01-22,1,1,"right",1,1,7,"S0001",2,0,"+",1,735,5103
2007-01-22,1,1,"right",1,1,8,"S0200",3,0,"*",2,1432,-1
2007-01-22,1,1,"right",1,1,9,"S0001",3,0,"+",1,1004,3959
2007-01-22,1,1,"right",1,1,10,"S0200",2,0,"+",1,2232,674
2007-01-22,1,1,"right",1,1,11,"S0002",2,0,"*",2,1863,-1
2007-01-22,1,1,"right",1,1,12,"S1000",3,0,"*",3,3897,1638
2007-01-22,1,1,"right",1,1,13,"S0010",2,1,"*",3,-1,776
2007-01-22,1,1,"right",1,1,14,"S2000",3,2,"*",5,674,-1
2007-01-22,1,1,"right",1,1,15,"S0100",2,2,"*",4,-1,550
2007-01-22,1,1,"right",1,1,16,"S0020",2,0,"+",1,4223,654
2007-01-22,1,1,"right",1,1,17,"S0010",3,1,"*",4,2971,530
2007-01-22,1,1,"right",1,1,18,"S2000",3,1,"*",4,612,-1
2007-01-22,1,1,"right",1,1,19,"S0002",2,0,"*",2,1247,-1
2007-01-22,1,1,"right",1,1,20,"S1000",3,1,"*",4,-1,572
2007-01-22,1,1,"right",1,1,21,"S0001",3,0,"*",4,-1,1946
2007-01-22,1,1,"right",1,1,22,"S0020",3,0,"+",1,4939,1103
2007-01-22,1,1,"right",1,1,23,"S0200",2,1,"*",3,878,-1
2007-01-22,1,1,"right",1,1,24,"S0100",3,1,"*",6,-1,550
2007-01-22,1,1,"right",1,1,25,"S2000",3,1,"*",6,879,-1
2007-01-22,1,1,"right",1,1,26,"S0100",2,0,"*",4,-1,1350
2007-01-22,1,1,"right",1,1,27,"S0010",2,1,"*",4,-1,755
2007-01-22,1,1,"right",1,1,28,"S0020",3,0,"*",3,1883,-1
2007-01-22,1,1,"right",1,1,29,"S1000",3,1,"*",6,-1,612
2007-01-22,1,1,"right",1,1,30,"S0001",3,0,"*",4,-1,1329
2007-01-22,1,1,"right",1,1,31,"S0002",2,1,"*",4,529,-1
2007-01-22,1,1,"right",1,1,32,"S0200",3,1,"*",7,509,-1
2007-01-22,1,1,"right",1,1,33,"S1000",2,1,"*",5,-1,693
2007-01-22,1,1,"right",1,1,34,"S0002",2,2,"*",4,549,-1
2007-01-22,1,1,"right",1,1,35,"S0010",3,0,"*",8,-1,1042
2007-01-22,1,1,"right",1,1,36,"S0200",3,1,"*",5,632,-1
2007-01-22,1,1,"right",1,1,37,"S0001",2,0,"+",1,1576,6211
2007-01-22,1,1,"right",1,1,38,"S2000",3,1,"*",8,447,-1
2007-01-22,1,1,"right",1,1,39,"S0020",3,1,"*",6,754,-1
2007-01-22,1,1,"right",1,1,40,"S0100",3,1,"*",9,-1,918
2007-01-22,1,1,"right",1,1,41,"S0020",3,1,"*",7,857,-1
2007-01-22,1,1,"right",1,1,42,"S0001",2,2,"*",6,-1,610
2007-01-22,1,1,"right",1,1,43,"S1000",3,2,"*",5,-1,611
2007-01-22,1,1,"right",1,1,44,"S0002",2,2,"*",5,631,-1
2007-01-22,1,1,"right",1,1,45,"S0010",3,0,"+",3,528,2395
2007-01-22,1,1,"right",1,1,46,"S2000",3,2,"*",9,425,-1
2007-01-22,1,1,"right",1,1,47,"S0200",3,2,"*",9,652,-1
2007-01-22,1,1,"right",1,1,48,"S0100",3,1,"*",4,-1,713
2007-01-22,1,1,"right",1,1,49,"S0010",3,1,"*",6,-1,754
2007-01-22,1,1,"right",1,1,50,"S0002",2,0,"*",4,1144,-1
2007-01-22,1,1,"right",1,1,51,"S1000",2,1,"*",6,-1,939
2007-01-22,1,1,"right",1,1,52,"S0001",2,1,"*",5,-1,1000
2007-01-22,1,1,"right",1,1,53,"S0200",2,1,"*",5,756,-1
2007-01-22,1,1,"right",1,1,54,"S0100",2,2,"*",7,-1,529
2007-01-22,1,1,"right",1,1,55,"S2000",3,2,"*",8,692,-1
2007-01-22,1,1,"right",1,1,56,"S0020",3,1,"*",10,815,-1
2007-01-22,1,1,"right",1,1,57,"S0001",3,3,"*",12,-1,506
2007-01-22,1,1,"right",1,1,58,"S0002",3,3,"*",8,404,-1
2007-01-22,1,1,"right",1,1,59,"S0020",3,0,"*",5,1347,-1
2007-01-22,1,1,"right",1,1,60,"S0010",2,2,"*",6,-1,590
2007-01-22,1,1,"right",1,1,61,"S2000",2,1,"*",5,425,-1
2007-01-22,1,1,"right",1,1,62,"S0100",2,2,"*",6,-1,486
2007-01-22,1,1,"right",1,1,63,"S0200",3,3,"*",9,424,-1
2007-01-22,1,1,"right",1,1,64,"S1000",3,2,"*",9,-1,446
2007-01-22,1,1,"right",2,1,1,"S3420",2,0,"*",2,-1,1577
2007-01-22,1,1,"right",2,1,2,"S3420",3,1,"*",7,-1,941
2007-01-22,1,1,"right",2,1,3,"S7860",3,2,"*",8,450,-1
2007-01-22,1,1,"right",2,1,4,"S7860",2,1,"*",5,614,-1
2007-01-22,1,1,"right",2,1,5,"S3420",2,2,"*",5,-1,552
2007-01-22,1,1,"right",2,1,6,"S7860",3,2,"*",8,613,-1
2007-01-22,1,1,"right",2,1,7,"S3420",3,2,"*",9,-1,634
2007-01-22,1,1,"right",2,1,8,"S7860",2,3,"*",7,470,-1
2007-01-22,1,1,"right",2,1,9,"S7860",3,2,"*",8,634,-1
2007-01-22,1,1,"right",2,1,10,"S3420",3,2,"*",9,-1,574
2007-01-22,1,1,"right",2,1,11,"S3420",3,2,"*",9,-1,716
2007-01-22,1,1,"right",2,1,12,"S7860",3,3,"*",11,490,-1
2007-01-22,1,1,"right",2,1,13,"S7860",3,1,"*",8,654,-1
2007-01-22,1,1,"right",2,1,14,"S3420",2,2,"*",8,-1,613
2007-01-22,1,1,"right",2,1,15,"S7860",3,1,"*",9,655,-1
2007-01-22,1,1,"right",2,1,16,"S3420",3,1,"*",9,-1,655
2007-01-22,1,1,"right",2,1,17,"S3420",3,1,"*",8,-1,470
2007-01-22,1,1,"right",2,1,18,"S7860",3,1,"*",5,576,-1
2007-01-22,1,1,"right",2,1,19,"S7860",2,2,"*",5,472,-1
2007-01-22,1,1,"right",2,1,20,"S3420",3,1,"*",6,-1,738
2007-01-22,1,1,"right",2,1,21,"S7860",2,2,"*",5,533,-1
2007-01-22,1,1,"right",2,1,22,"S7860",3,2,"*",7,656,-1
2007-01-22,1,1,"right",2,1,23,"S3420",2,3,"*",6,-1,512
2007-01-22,1,1,"right",2,1,24,"S7860",2,2,"*",5,595,-1
2007-01-22,1,1,"right",2,1,25,"S3420",3,2,"*",8,-1,635
2007-01-22,1,1,"right",2,1,26,"S7860",2,2,"*",4,676,-1
2007-01-22,1,1,"right",2,1,27,"S7860",3,2,"*",9,655,-1
2007-01-22,1,1,"right",2,1,28,"S3420",2,2,"*",4,-1,512
2007-01-22,1,1,"right",2,1,29,"S3420",3,2,"*",9,-1,368
2007-01-22,1,1,"right",2,1,30,"S7860",2,2,"*",6,614,-1
2007-01-22,1,1,"right",2,1,31,"S3420",3,3,"*",10,-1,430
2007-01-22,1,1,"right",2,1,32,"S3420",2,2,"*",6,-1,532
2007-01-22,1,1,"right",3,1,1,"S3420",2,2,"*",6,-1,594
2007-01-22,1,1,"right",3,1,2,"S7860",3,2,"*",13,532,-1
2007-01-22,1,1,"right",3,1,3,"S7860",2,2,"*",7,389,-1
2007-01-22,1,1,"right",3,1,4,"S3420",3,1,"*",7,-1,740
2007-01-22,1,1,"right",3,1,5,"S7860",2,1,"*",5,595,-1
2007-01-22,1,1,"right",3,1,6,"S3420",2,1,"*",4,-1,778
2007-01-22,1,1,"right",3,1,7,"S3420",2,1,"*",4,-1,614
2007-01-22,1,1,"right",3,1,8,"S7860",2,2,"*",6,368,-1
2007-01-22,1,1,"right",3,1,9,"S3420",3,3,"*",11,-1,389
2007-01-22,1,1,"right",3,1,10,"S3420",2,2,"*",5,-1,512
2007-01-22,1,1,"right",3,1,11,"S7860",2,2,"*",5,491,-1
2007-01-22,1,1,"right",3,1,12,"S7860",3,0,"*",1,4450,-1
2007-01-22,1,1,"right",3,1,13,"S3420",2,2,"*",6,-1,637
2007-01-22,1,1,"right",3,1,14,"S7860",3,1,"*",3,737,-1
2007-01-22,1,1,"right",3,1,15,"S3420",2,2,"*",5,-1,513
2007-01-22,1,1,"right",3,1,16,"S7860",2,3,"*",7,492,-1
2007-01-22,1,1,"right",3,1,17,"S7860",2,2,"*",6,431,-1
2007-01-22,1,1,"right",3,1,18,"S3420",3,2,"*",10,-1,431
2007-01-22,1,1,"right",3,1,19,"S3420",2,2,"*",6,-1,655
2007-01-22,1,1,"right",3,1,20,"S7860",2,3,"*",7,393,-1
2007-01-22,1,1,"right",3,2,1,"S7460",2,0,"L",1,5825,390
2007-01-22,1,1,"right",3,2,2,"S3420",2,1,"*",2,-1,863
2007-01-22,1,1,"right",3,2,3,"S7860",2,0,"L",1,595,-1
2007-01-22,1,1,"right",3,2,4,"S7860",3,1,"*",8,656,-1
2007-01-22,1,1,"right",3,2,5,"S3820",3,0,"R",1,-1,574
2007-01-22,1,1,"right",3,2,6,"S7860",3,1,"*",7,697,-1
2007-01-22,1,1,"right",3,2,7,"S7860",2,2,"*",5,533,-1
2007-01-22,1,1,"right",3,2,8,"S7420",3,0,"R",1,-1,472
2007-01-22,1,1,"right",3,2,9,"S3420",2,2,"*",7,-1,573
2007-01-22,1,1,"right",3,2,10,"S3820",3,0,"R",1,-1,615
2007-01-22,1,1,"right",3,2,11,"S7860",3,1,"*",7,553,-1
2007-01-22,1,1,"right",3,2,12,"S3420",2,0,"R",1,-1,513
2007-01-22,1,1,"right",3,2,13,"S3420",3,2,"*",8,-1,576
2007-01-22,1,1,"right",3,2,14,"S7420",2,0,"R",1,-1,533
2007-01-22,1,1,"right",3,2,15,"S3420",2,2,"*",6,-1,860
2007-01-22,1,1,"right",3,2,16,"S7860",3,2,"*",9,533,-1
2007-01-22,1,1,"right",3,2,17,"S7860",2,2,"*",7,616,-1
2007-01-22,1,1,"right",3,2,18,"S7860",2,0,"L",1,699,-1
2007-01-22,1,1,"right",3,2,19,"S3420",2,3,"*",10,-1,534
2007-01-22,1,1,"right",3,2,20,"S7460",2,0,"L",1,616,-1
2007-01-22,1,1,"right",3,2,21,"S3420",3,2,"*",9,-1,616
2007-01-22,1,1,"right",3,2,22,"S7820",2,0,"L",1,575,-1
2007-01-22,1,1,"right",3,2,23,"S7860",2,2,"*",7,556,-1
2007-01-22,1,1,"right",3,2,24,"S3460",2,0,"R",1,-1,842
2007-01-22,1,1,"right",3,2,25,"S7860",3,3,"*",9,493,-1
2007-01-22,1,1,"right",3,2,26,"S3860",3,0,"L",1,473,-1
2007-01-22,1,1,"right",3,2,27,"S3420",2,1,"*",5,-1,678
2007-01-22,1,1,"right",3,2,28,"S7820",3,0,"L",1,595,-1
2007-01-22,1,1,"right",3,2,29,"S7860",3,0,"*",7,1026,-1
2007-01-22,1,1,"right",3,2,30,"S3860",2,0,"R",1,-1,780
2007-01-22,1,1,"right",3,2,31,"S3420",3,1,"*",8,-1,843
2007-01-22,1,1,"right",3,2,32,"S3420",3,2,"*",8,-1,678
2007-01-22,1,1,"right",3,2,33,"S7860",3,2,"*",6,554,-1
2007-01-22,1,1,"right",3,2,34,"S3420",2,3,"*",7,-1,473
2007-01-22,1,1,"right",3,2,35,"S3420",3,3,"*",9,-1,514
2007-01-22,1,1,"right",3,2,36,"S3420",3,0,"R",1,-1,780
2007-01-22,1,1,"right",3,2,37,"S3420",3,2,"*",7,-1,473
2007-01-22,1,1,"right",3,2,38,"S7860",2,2,"*",4,576,-1
2007-01-22,1,1,"right",3,2,39,"S7860",3,2,"*",10,495,-1
2007-01-22,1,1,"right",3,2,40,"S3460",2,0,"R",1,-1,946
2007-01-22,2,6,"right",1,1,1,"S1000",1,0,"*",1,-1,15665
2007-01-22,2,6,"right",1,1,2,"S0020",1,1,"*",2,981,2950
2007-01-22,2,6,"right",1,1,3,"S0100",1,0,"*",1,-1,1084
2007-01-22,2,6,"right",1,1,4,"S0001",1,1,"*",2,-1,673
2007-01-22,2,6,"right",1,1,5,"S0002",1,0,"+",1,5555,982
2007-01-22,2,6,"right",1,1,6,"S2000",1,0,"+",1,3094,838
2007-01-22,2,6,"right",1,1,7,"S0010",1,1,"*",2,-1,756
2007-01-22,2,6,"right",1,1,8,"S0200",1,0,"+",1,1965,878
2007-01-22,2,6,"right",1,1,9,"S1000",1,1,"*",2,-1,776
2007-01-22,2,6,"right",1,1,10,"S0002",1,1,"*",2,674,-1
2007-01-22,2,6,"right",1,1,11,"S2000",1,0,"+",1,2765,633
2007-01-22,2,6,"right",1,1,12,"S0100",1,1,"*",2,-1,673
2007-01-22,2,6,"right",1,1,13,"S0001",1,0,"*",1,-1,1413
2007-01-22,2,6,"right",1,1,14,"S0200",1,0,"+",1,2068,735
2007-01-22,2,6,"right",1,1,15,"S0010",1,1,"*",2,-1,633
2007-01-22,2,6,"right",1,1,16,"S0020",1,0,"+",1,2909,776
2007-01-22,2,6,"right",1,1,17,"S1000",1,0,"+",1,837,2170
2007-01-22,2,6,"right",1,1,18,"S0020",1,1,"*",2,714,-1
2007-01-22,2,6,"right",1,1,19,"S0002",1,2,"*",3,673,2272
2007-01-22,2,6,"right",1,1,20,"S0010",1,0,"*",1,-1,2559
2007-01-22,2,6,"right",1,1,21,"S2000",1,0,"*",1,2006,-1
2007-01-22,2,6,"right",1,1,22,"S0200",1,1,"*",2,816,-1
2007-01-22,2,6,"right",1,1,23,"S0100",1,1,"*",2,-1,816
2007-01-22,2,6,"right",1,1,24,"S0001",1,0,"*",1,-1,1966
2007-01-22,2,6,"right",1,1,25,"S0002",1,0,"+",1,4775,529
2007-01-22,2,6,"right",1,1,26,"S0010",1,1,"*",2,-1,611
2007-01-22,2,6,"right",1,1,27,"S1000",1,0,"+",1,878,5861
2007-01-22,2,6,"right",1,1,28,"S0020",1,0,"+",1,1144,631
2007-01-22,2,6,"right",1,1,29,"S2000",1,1,"*",2,796,-1
2007-01-22,2,6,"right",1,1,30,"S0001",1,1,"*",2,-1,530
2007-01-22,2,6,"right",1,1,31,"S0200",1,2,"*",3,611,2805
2007-01-22,2,6,"right",1,1,32,"S0100",1,1,"*",2,3175,673
2007-01-22,2,6,"right",1,1,33,"S0002",1,1,"*",2,837,-1
2007-01-22,2,6,"right",1,1,34,"S0010",1,0,"+",1,796,3298
2007-01-22,2,6,"right",1,1,35,"S2000",1,1,"*",2,735,-1
2007-01-22,2,6,"right",1,1,36,"S0100",1,0,"*",1,-1,2006
2007-01-22,2,6,"right",1,1,37,"S0200",1,1,"*",2,878,-1
2007-01-22,2,6,"right",1,1,38,"S0001",1,0,"*",1,-1,1862
2007-01-22,2,6,"right",1,1,39,"S1000",1,0,"+",1,1719,3503
2007-01-22,2,6,"right",1,1,40,"S0020",1,0,"+",1,2498,509
2007-01-22,2,6,"right",1,1,41,"S1000",1,0,"+",1,796,1719
2007-01-22,2,6,"right",1,1,42,"S0001",1,0,"*",1,-1,3975
2007-01-22,2,6,"right",1,1,43,"S2000",1,0,"+",1,2231,755
2007-01-22,2,6,"right",1,1,44,"S0002",1,2,"*",3,631,-1
2007-01-22,2,6,"right",1,1,45,"S0010",1,1,"*",2,-1,632
2007-01-22,2,6,"right",1,1,46,"S0100",1,1,"*",2,-1,591
2007-01-22,2,6,"right",1,1,47,"S0020",1,0,"+",1,2724,591
2007-01-22,2,6,"right",1,1,48,"S0200",1,0,"+",1,3092,487
2007-01-22,2,6,"right",1,1,49,"S1000",1,1,"*",2,-1,836
2007-01-22,2,6,"right",1,1,50,"S0002",1,1,"*",2,714,-1
2007-01-22,2,6,"right",1,1,51,"S0200",1,2,"*",3,713,-1
2007-01-22,2,6,"right",1,1,52,"S0010",1,0,"+",1,1041,3544
2007-01-22,2,6,"right",1,1,53,"S0020",1,2,"*",3,672,-1
2007-01-22,2,6,"right",1,1,54,"S0100",1,1,"*",2,-1,693
2007-01-22,2,6,"right",1,1,55,"S2000",1,0,"+",1,5697,776
2007-01-22,2,6,"right",1,1,56,"S0001",1,0,"+",1,816,4016
2007-01-22,2,6,"right",1,1,57,"S0200",1,0,"*",1,1165,-1
2007-01-22,2,6,"right",1,1,58,"S0002",1,1,"*",2,981,-1
2007-01-22,2,6,"right",1,1,59,"S0010",1,1,"*",2,-1,735
2007-01-22,2,6,"right",1,1,60,"S0100",1,1,"*",2,-1,652
2007-01-22,2,6,"right",1,1,61,"S2000",1,0,"+",1,2477,1184
2007-01-22,2,6,"right",1,1,62,"S0001",1,0,"+",1,694,3749
2007-01-22,2,6,"right",1,1,63,"S0020",1,0,"+",1,7995,6046
2007-01-22,2,6,"right",1,1,64,"S1000",1,0,"+",1,2047,8897
2007-01-22,2,6,"right",1,2,1,"S0020",1,0,"+",1,5799,1308
2007-01-22,2,6,"right",1,2,2,"S0200",1,0,"*",1,1348,-1
2007-01-22,2,6,"right",1,2,3,"S1000",1,0,"+",1,3358,6722
2007-01-22,2,6,"right",1,2,4,"S0100",1,0,"+",1,5040,8998
2007-01-22,2,6,"right",1,2,5,"S2000",1,0,"+",1,6968,733
2007-01-22,2,6,"right",1,2,6,"S0001",1,2,"*",3,3404,611
2007-01-22,2,6,"right",1,2,7,"S0010",1,0,"*",1,-1,1288
2007-01-22,2,6,"right",1,2,8,"S0002",1,1,"*",2,836,-1
2007-01-22,2,6,"right",1,2,9,"S1000",1,2,"*",3,-1,570
2007-01-22,2,6,"right",1,2,10,"S0010",1,0,"+",1,918,3830
2007-01-22,2,6,"right",1,2,11,"S0002",1,0,"*",1,2456,-1
2007-01-22,2,6,"right",1,2,12,"S0020",1,1,"*",2,898,-1
2007-01-22,2,6,"right",1,2,13,"S0001",1,0,"*",1,-1,1247
2007-01-22,2,6,"right",1,2,14,"S0100",1,0,"+",1,650,5020
2007-01-22,2,6,"right",1,2,15,"S2000",1,2,"*",3,671,-1
2007-01-22,2,6,"right",1,2,16,"S0200",1,0,"+",1,5183,979
2007-01-22,2,6,"right",1,2,17,"S0010",1,1,"*",2,-1,733
2007-01-22,2,6,"right",1,2,18,"S0001",1,1,"*",2,-1,835
2007-01-22,2,6,"right",1,2,19,"S0200",1,1,"*",2,692,-1
2007-01-22,2,6,"right",1,2,20,"S0100",1,1,"*",2,-1,671
2007-01-22,2,6,"right",1,2,21,"S2000",1,1,"*",2,753,-1
2007-01-22,2,6,"right",1,2,22,"S0002",1,1,"*",2,712,-1
2007-01-22,2,6,"right",1,2,23,"S1000",1,1,"*",2,-1,712
2007-01-22,2,6,"right",1,2,24,"S0020",1,0,"*",1,2271,-1
2007-01-22,2,6,"right",1,2,25,"S0100",1,0,"*",1,-1,1103
2007-01-22,2,6,"right",1,2,26,"S0020",1,0,"*",1,1041,-1
2007-01-22,2,6,"right",1,2,27,"S0010",1,2,"*",3,-1,671
2007-01-22,2,6,"right",1,2,28,"S0001",1,0,"+",1,3994,6209
2007-01-22,2,6,"right",1,2,29,"S0002",1,1,"*",2,794,-1
2007-01-22,2,6,"right",1,2,30,"S1000",1,2,"*",3,-1,671
2007-01-22,2,6,"right",1,2,31,"S2000",1,1,"*",2,712,-1
2007-01-22,2,6,"right",1,2,32,"S0200",1,0,"+",1,6149,1227
2007-01-22,2,6,"right",1,2,33,"S1000",1,2,"*",3,-1,569
2007-01-22,2,6,"right",1,2,34,"S0010",1,0,"*",1,-1,1082
2007-01-22,2,6,"right",1,2,35,"S0002",1,0,"*",1,1185,-1
2007-01-22,2,6,"right",1,2,36,"S0020",1,0,"*",1,1533,-1
2007-01-22,2,6,"right",1,2,37,"S0001",1,1,"*",2,-1,835
2007-01-22,2,6,"right",1,2,38,"S0200",1,1,"*",2,855,-1
2007-01-22,2,6,"right",1,2,39,"S0100",1,1,"*",2,-1,691
2007-01-22,2,6,"right",1,2,40,"S2000",1,0,"*",1,1225,-1
2007-01-22,2,6,"right",1,2,41,"S0010",1,1,"*",2,-1,711
2007-01-22,2,6,"right",1,2,42,"S0002",1,0,"*",1,1124,-1
2007-01-22,2,6,"right",1,2,43,"S1000",1,1,"*",2,-1,732
2007-01-22,2,6,"right",1,2,44,"S0200",1,0,"*",1,2068,-1
2007-01-22,2,6,"right",1,2,45,"S0100",1,1,"*",2,-1,691
2007-01-22,2,6,"right",1,2,46,"S2000",1,1,"*",2,794,-1
2007-01-22,2,6,"right",1,2,47,"S0020",1,1,"*",2,692,-1
2007-01-22,2,6,"right",1,2,48,"S0001",1,0,"*",1,-1,1043
2007-01-22,2,6,"right",1,2,49,"S0010",1,1,"*",2,-1,671
2007-01-22,2,6,"right",1,2,50,"S2000",1,0,"*",1,1556,-1
2007-01-22,2,6,"right",1,2,51,"S0100",1,1,"*",2,-1,959
2007-01-22,2,6,"right",1,2,52,"S0200",1,1,"*",2,732,-1
2007-01-22,2,6,"right",1,2,53,"S0001",1,0,"*",1,-1,1042
2007-01-22,2,6,"right",1,2,54,"S1000",1,0,"*",1,-1,1535
2007-01-22,2,6,"right",1,2,55,"S0020",1,0,"*",1,1186,-1
2007-01-22,2,6,"right",1,2,56,"S0002",1,0,"*",1,1084,-1
2007-01-22,2,6,"right",1,2,57,"S0100",1,1,"*",2,-1,671
2007-01-22,2,6,"right",1,2,58,"S0200",1,1,"*",2,713,-1
2007-01-22,2,6,"right",1,2,59,"S0010",1,1,"*",2,-1,651
2007-01-22,2,6,"right",1,2,60,"S0001",1,1,"*",2,-1,691
2007-01-22,2,6,"right",1,2,61,"S0020",1,1,"*",2,691,-1
2007-01-22,2,6,"right",1,2,62,"S1000",1,2,"*",3,-1,609
2007-01-22,2,6,"right",1,2,63,"S0002",1,1,"*",2,712,-1
2007-01-22,2,6,"right",1,2,64,"S2000",1,1,"*",2,732,-1
2007-01-22,2,6,"right",2,1,1,"S8760",1,0,"*",1,5108,-1
2007-01-22,2,6,"right",2,1,2,"S4320",1,1,"*",2,-1,697
2007-01-22,2,6,"right",2,1,3,"S4320",1,1,"*",2,-1,737
2007-01-22,2,6,"right",2,1,4,"S8760",1,1,"*",2,738,-1
2007-01-22,2,6,"right",2,1,5,"S8760",1,1,"*",2,758,-1
2007-01-22,2,6,"right",2,1,6,"S4320",1,1,"*",2,-1,759
2007-01-22,2,6,"right",2,1,7,"S4320",1,0,"*",1,-1,1356
2007-01-22,2,6,"right",2,1,8,"S8760",1,1,"*",2,718,-1
2007-01-22,2,6,"right",2,1,9,"S8760",1,1,"*",2,717,-1
2007-01-22,2,6,"right",2,1,10,"S4320",1,2,"*",3,-1,533
2007-01-22,2,6,"right",2,1,11,"S4320",1,0,"*",1,-1,2709
2007-01-22,2,6,"right",2,1,12,"S8760",1,1,"*",2,983,-1
2007-01-22,2,6,"right",2,1,13,"S4320",1,0,"*",1,-1,1068
2007-01-22,2,6,"right",2,1,14,"S8760",1,1,"*",2,758,-1
2007-01-22,2,6,"right",2,1,15,"S4320",1,1,"*",2,-1,881
2007-01-22,2,6,"right",2,1,16,"S8760",1,1,"*",2,942,-1
2007-01-22,2,6,"right",2,1,17,"S4320",1,0,"*",1,-1,1048
2007-01-22,2,6,"right",2,1,18,"S8760",1,0,"*",1,1171,-1
2007-01-22,2,6,"right",2,1,19,"S4320",1,1,"*",2,-1,758
2007-01-22,2,6,"right",2,1,20,"S8760",1,1,"*",2,839,-1
2007-01-22,2,6,"right",2,1,21,"S4320",1,1,"*",2,-1,717
2007-01-22,2,6,"right",2,1,22,"S8760",1,0,"*",1,1500,-1
2007-01-22,2,6,"right",2,1,23,"S4320",1,1,"*",2,-1,697
2007-01-22,2,6,"right",2,1,24,"S4320",1,1,"*",2,-1,717
2007-01-22,2,6,"right",2,1,25,"S8760",1,1,"*",2,820,-1
2007-01-22,2,6,"right",2,1,26,"S4320",1,1,"*",2,-1,737
2007-01-22,2,6,"right",2,1,27,"S8760",1,1,"*",2,737,-1
2007-01-22,2,6,"right",2,1,28,"S4320",1,1,"*",2,-1,922
2007-01-22,2,6,"right",2,1,29,"S8760",1,1,"*",2,759,-1
2007-01-22,2,6,"right",2,1,30,"S4320",1,1,"*",2,-1,819
2007-01-22,2,6,"right",2,1,31,"S8760",1,1,"*",2,800,-1
2007-01-22,2,6,"right",2,1,32,"S8760",1,1,"*",2,738,-1
2007-01-22,2,6,"right",3,1,1,"S4320",1,1,"*",2,-1,800
2007-01-22,2,6,"right",3,1,2,"S8760",1,1,"*",2,778,-1
2007-01-22,2,6,"right",3,1,3,"S4320",1,1,"*",2,-1,758
2007-01-22,2,6,"right",3,1,4,"S8760",1,1,"*",2,759,-1
2007-01-22,2,6,"right",3,1,5,"S4320",1,1,"*",2,-1,819
2007-01-22,2,6,"right",3,1,6,"S8760",1,2,"*",3,677,-1
2007-01-22,2,6,"right",3,1,7,"S8760",1,0,"+",1,2773,821
2007-01-22,2,6,"right",3,1,8,"S4320",1,1,"*",2,-1,901
2007-01-22,2,6,"right",3,1,9,"S4320",1,2,"*",3,-1,696
2007-01-22,2,6,"right",3,1,10,"S8760",1,1,"*",2,1004,-1
2007-01-22,2,6,"right",3,1,11,"S4320",1,1,"*",2,-1,779
2007-01-22,2,6,"right",3,1,12,"S4320",1,2,"*",3,-1,717
2007-01-22,2,6,"right",3,1,13,"S8760",1,0,"*",1,1890,-1
2007-01-22,2,6,"right",3,1,14,"S8760",1,1,"*",2,718,-1
2007-01-22,2,6,"right",3,1,15,"S4320",1,2,"*",3,-1,676
2007-01-22,2,6,"right",3,1,16,"S8760",1,2,"*",3,655,-1
2007-01-22,2,6,"right",3,1,17,"S4320",1,1,"*",2,-1,942
2007-01-22,2,6,"right",3,1,18,"S8760",1,1,"*",2,799,-1
2007-01-22,2,6,"right",3,1,19,"S4320",1,0,"*",1,-1,1091
2007-01-22,2,6,"right",3,1,20,"S8760",1,1,"*",2,989,-1
2007-01-22,2,6,"right",3,2,1,"S4360",1,0,"R",1,-1,1050
2007-01-22,2,6,"right",3,2,2,"S4320",1,0,"*",1,-1,1070
2007-01-22,2,6,"right",3,2,3,"S8760",1,2,"*",3,701,-1
2007-01-22,2,6,"right",3,2,4,"S4320",1,1,"*",2,-1,738
2007-01-22,2,6,"right",3,2,5,"S8760",1,1,"*",2,738,-1
2007-01-22,2,6,"right",3,2,6,"S4720",1,0,"R",1,-1,2793
2007-01-22,2,6,"right",3,2,7,"S4320",1,0,"*",1,-1,1112
2007-01-22,2,6,"right",3,2,8,"S4320",1,0,"*",1,-1,1049
2007-01-22,2,6,"right",3,2,9,"S8360",1,0,"L",1,963,-1
2007-01-22,2,6,"right",3,2,10,"S8760",1,1,"*",2,862,-1
2007-01-22,2,6,"right",3,2,11,"S4720",1,0,"R",1,-1,860
2007-01-22,2,6,"right",3,2,12,"S8760",1,2,"*",3,573,-1
2007-01-22,2,6,"right",3,2,13,"S8760",1,1,"*",2,880,-1
2007-01-22,2,6,"right",3,2,14,"S4320",1,1,"*",2,-1,922
2007-01-22,2,6,"right",3,2,15,"S4760",1,0,"R",1,-1,902
2007-01-22,2,6,"right",3,2,16,"S8760",1,1,"*",2,799,-1
2007-01-22,2,6,"right",3,2,17,"S4320",1,1,"*",2,-1,716
2007-01-22,2,6,"right",3,2,18,"S8760",1,0,"L",1,855,-1
2007-01-22,2,6,"right",3,2,19,"S4320",1,1,"*",2,-1,800
2007-01-22,2,6,"right",3,2,20,"S4360",1,0,"R",1,-1,779
2007-01-22,2,6,"right",3,2,21,"S4320",1,2,"*",3,-1,513
2007-01-22,2,6,"right",3,2,22,"S8320",1,0,"L",1,800,-1
2007-01-22,2,6,"right",3,2,23,"S8760",1,2,"*",3,677,-1
2007-01-22,2,6,"right",3,2,24,"S4320",1,0,"R",1,-1,1030
2007-01-22,2,6,"right",3,2,25,"S4320",1,1,"*",2,-1,963
2007-01-22,2,6,"right",3,2,26,"S4320",1,0,"R",1,-1,1094
2007-01-22,2,6,"right",3,2,27,"S8760",1,0,"*",1,1032,-1
2007-01-22,2,6,"right",3,2,28,"S8760",1,0,"L",1,739,-1
2007-01-22,2,6,"right",3,2,29,"S8760",1,1,"*",2,765,-1
2007-01-22,2,6,"right",3,2,30,"S4760",1,0,"R",1,-1,779
2007-01-22,2,6,"right",3,2,31,"S4320",1,1,"*",2,-1,800
2007-01-22,2,6,"right",3,2,32,"S8760",1,1,"*",2,800,-1
2007-01-22,2,6,"right",3,2,33,"S4320",1,0,"*",1,-1,1051
2007-01-22,2,6,"right",3,2,34,"S8320",1,0,"R",1,-1,3308
2007-01-22,2,6,"right",3,2,35,"S8760",1,1,"*",2,924,-1
2007-01-22,2,6,"right",3,2,36,"S8720",1,0,"L",1,923,-1
2007-01-22,2,6,"right",3,2,37,"S8760",1,1,"*",2,1006,-1
2007-01-22,2,6,"right",3,2,38,"S8360",1,0,"L",1,1053,-1
2007-01-22,2,6,"right",3,2,39,"S4320",1,0,"*",1,-1,1031
2007-01-22,2,6,"right",3,2,40,"S8720",1,0,"L",1,924,-1
2007-01-29,3,6,"right",1,1,1,"S0020",1,0,"*",1,16320,-1
2007-01-29,3,6,"right",1,1,2,"S0002",1,0,"+",1,28933,858
2007-01-29,3,6,"right",1,1,3,"S0100",1,1,"*",2,-1,981
2007-01-29,3,6,"right",1,1,4,"S1000",1,0,"*",1,-1,1166
2007-01-29,3,6,"right",1,1,5,"S2000",1,0,"+",1,4160,756
2007-01-29,3,6,"right",1,1,6,"S0010",1,0,"+",1,2294,3852
2007-01-29,3,6,"right",1,1,7,"S0001",1,0,"+",1,776,2294
2007-01-29,3,6,"right",1,1,8,"S0200",1,0,"+",1,2478,694
2007-01-29,3,6,"right",1,1,9,"S0001",1,0,"+",1,838,2109
2007-01-29,3,6,"right",1,1,10,"S0200",1,0,"+",1,1986,940
2007-01-29,3,6,"right",1,1,11,"S0002",1,1,"*",2,734,-1
2007-01-29,3,6,"right",1,1,12,"S1000",1,0,"+",1,858,1760
2007-01-29,3,6,"right",1,1,13,"S2000",1,0,"+",1,5166,2869
2007-01-29,3,6,"right",1,1,14,"S0010",1,0,"+",1,858,3730
2007-01-29,3,6,"right",1,1,15,"S0100",1,0,"*",1,-1,1822
2007-01-29,3,6,"right",1,1,16,"S0020",1,0,"+",1,6088,4099
2007-01-29,3,6,"right",1,1,17,"S0001",1,0,"+",1,1411,2437
2007-01-29,3,6,"right",1,1,18,"S0200",1,0,"*",1,1555,-1
2007-01-29,3,6,"right",1,1,19,"S1000",1,0,"*",1,-1,2827
2007-01-29,3,6,"right",1,1,20,"S0002",1,0,"*",1,1657,-1
2007-01-29,3,6,"right",1,1,21,"S0100",1,0,"*",1,-1,2171
2007-01-29,3,6,"right",1,1,22,"S0010",1,0,"+",1,2539,5882
2007-01-29,3,6,"right",1,1,23,"S2000",1,0,"+",1,2006,1124
2007-01-29,3,6,"right",1,1,24,"S0020",1,0,"+",1,1678,940
2007-01-29,3,6,"right",1,1,25,"S0001",1,0,"+",1,2518,4651
2007-01-29,3,6,"right",1,1,26,"S0200",1,0,"+",1,2252,673
2007-01-29,3,6,"right",1,1,27,"S1000",1,0,"+",1,1965,3113
2007-01-29,3,6,"right",1,1,28,"S2000",1,0,"+",1,2744,1534
2007-01-29,3,6,"right",1,1,29,"S0100",1,0,"+",1,960,1678
2007-01-29,3,6,"right",1,1,30,"S0002",1,0,"+",1,3482,1924
2007-01-29,3,6,"right",1,1,31,"S0010",1,0,"*",1,-1,1740
2007-01-29,3,6,"right",1,1,32,"S0020",1,0,"*",1,3257,-1
2007-01-29,3,6,"right",1,1,33,"S0100",1,0,"*",1,-1,1740
2007-01-29,3,6,"right",1,1,34,"S2000",1,0,"*",1,1042,-1
2007-01-29,3,6,"right",1,1,35,"S0002",1,0,"*",1,1083,-1
2007-01-29,3,6,"right",1,1,36,"S0010",1,0,"*",1,-1,2026
2007-01-29,3,6,"right",1,1,37,"S0020",1,0,"+",1,1718,775
2007-01-29,3,6,"right",1,1,38,"S0001",1,0,"*",1,-1,1206
2007-01-29,3,6,"right",1,1,39,"S1000",1,0,"+",1,816,1903
2007-01-29,3,6,"right",1,1,40,"S0200",1,0,"+",1,1596,796
2007-01-29,3,6,"right",1,1,41,"S0001",1,2,"*",3,1432,611
2007-01-29,3,6,"right",1,1,42,"S1000",1,0,"*",1,-1,4774
2007-01-29,3,6,"right",1,1,43,"S0002",1,0,"+",1,3708,2150
2007-01-29,3,6,"right",1,1,44,"S2000",1,0,"*",1,1104,-1
2007-01-29,3,6,"right",1,1,45,"S0100",1,1,"*",2,-1,980
2007-01-29,3,6,"right",1,1,46,"S0200",1,1,"*",2,859,1760
2007-01-29,3,6,"right",1,1,47,"S0020",1,1,"*",2,713,-1
2007-01-29,3,6,"right",1,1,48,"S0010",1,1,"*",2,-1,754
2007-01-29,3,6,"right",1,1,49,"S0200",1,0,"+",1,2723,898
2007-01-29,3,6,"right",1,1,50,"S0001",1,0,"+",1,1493,4650
2007-01-29,3,6,"right",1,1,51,"S0100",1,1,"*",2,-1,959
2007-01-29,3,6,"right",1,1,52,"S0002",1,1,"*",2,837,-1
2007-01-29,3,6,"right",1,1,53,"S2000",1,0,"+",1,6805,1124
2007-01-29,3,6,"right",1,1,54,"S0010",1,0,"*",1,-1,2048
2007-01-29,3,6,"right",1,1,55,"S0020",1,0,"*",1,1042,-1
2007-01-29,3,6,"right",1,1,56,"S1000",1,1,"*",2,1186,549
2007-01-29,3,6,"right",1,1,57,"S0010",1,0,"*",1,-1,1144
2007-01-29,3,6,"right",1,1,58,"S0002",1,0,"+",1,5021,714
2007-01-29,3,6,"right",1,1,59,"S2000",1,0,"+",1,3216,1001
2007-01-29,3,6,"right",1,1,60,"S0001",1,1,"*",2,-1,857
2007-01-29,3,6,"right",1,1,61,"S0100",1,0,"+",1,1656,3112
2007-01-29,3,6,"right",1,1,62,"S0020",1,0,"*",1,2169,-1
2007-01-29,3,6,"right",1,1,63,"S1000",1,1,"*",2,-1,836
2007-01-29,3,6,"right",1,1,64,"S0200",1,0,"+",1,5409,836
2007-01-29,3,6,"right",1,2,1,"S1000",1,0,"*",1,-1,1144
2007-01-29,3,6,"right",1,2,2,"S0200",1,0,"+",1,3214,1779
2007-01-29,3,6,"right",1,2,3,"S0010",1,0,"+",1,918,3481
2007-01-29,3,6,"right",1,2,4,"S0020",1,0,"*",1,2374,-1
2007-01-29,3,6,"right",1,2,5,"S0001",1,1,"*",2,-1,877
2007-01-29,3,6,"right",1,2,6,"S0002",1,1,"*",2,610,1575
2007-01-29,3,6,"right",1,2,7,"S2000",1,0,"+",1,2066,753
2007-01-29,3,6,"right",1,2,8,"S0100",1,0,"+",1,3811,5472
2007-01-29,3,6,"right",1,2,9,"S0200",1,0,"+",1,10188,939
2007-01-29,3,6,"right",1,2,10,"S0100",1,0,"+",1,896,2168
2007-01-29,3,6,"right",1,2,11,"S0020",1,0,"+",1,4403,1491
2007-01-29,3,6,"right",1,2,12,"S0010",1,0,"*",1,-1,2024
2007-01-29,3,6,"right",1,2,13,"S1000",1,0,"+",1,1204,2189
2007-01-29,3,6,"right",1,2,14,"S2000",1,0,"+",1,2538,1102
2007-01-29,3,6,"right",1,2,15,"S0001",1,1,"*",2,-1,835
2007-01-29,3,6,"right",1,2,16,"S0002",1,0,"*",1,1697,-1
2007-01-29,3,6,"right",1,2,17,"S0100",1,1,"*",2,-1,979
2007-01-29,3,6,"right",1,2,18,"S0200",1,1,"*",2,814,1615
2007-01-29,3,6,"right",1,2,19,"S1000",1,0,"+",1,753,7625
2007-01-29,3,6,"right",1,2,20,"S0002",1,0,"+",1,5144,979
2007-01-29,3,6,"right",1,2,21,"S0001",1,0,"+",1,2723,3441
2007-01-29,3,6,"right",1,2,22,"S0020",1,0,"+",1,3996,2027
2007-01-29,3,6,"right",1,2,23,"S0010",1,1,"*",2,-1,630
2007-01-29,3,6,"right",1,2,24,"S2000",1,0,"+",1,4569,917
2007-01-29,3,6,"right",1,2,25,"S0002",1,0,"+",1,7911,752
2007-01-29,3,6,"right",1,2,26,"S0001",1,0,"+",1,1226,2662
2007-01-29,3,6,"right",1,2,27,"S0100",1,0,"+",1,1103,2929
2007-01-29,3,6,"right",1,2,28,"S0200",1,0,"+",1,5103,1268
2007-01-29,3,6,"right",1,2,29,"S0020",1,0,"*",1,2005,-1
2007-01-29,3,6,"right",1,2,30,"S0010",1,1,"*",2,-1,978
2007-01-29,3,6,"right",1,2,31,"S1000",1,0,"+",1,6784,12404
2007-01-29,3,6,"right",1,2,32,"S2000",1,0,"*",1,1800,-1
2007-01-29,3,6,"right",1,2,33,"S1000",1,0,"+",1,714,2067
2007-01-29,3,6,"right",1,2,34,"S0020",1,0,"*",1,1841,-1
2007-01-29,3,6,"right",1,2,35,"S0002",1,0,"+",1,3195,1924
2007-01-29,3,6,"right",1,2,36,"S0001",1,0,"+",1,649,1432
2007-01-29,3,6,"right",1,2,37,"S2000",1,0,"*",1,3237,-1
2007-01-29,3,6,"right",1,2,38,"S0010",1,0,"*",1,-1,1656
2007-01-29,3,6,"right",1,2,39,"S0200",1,0,"*",1,2272,-1
2007-01-29,3,6,"right",1,2,40,"S0100",1,1,"*",2,-1,895
2007-01-29,3,6,"right",1,2,41,"S0002",1,1,"*",2,651,-1
2007-01-29,3,6,"right",1,2,42,"S2000",1,1,"*",2,608,-1
2007-01-29,3,6,"right",1,2,43,"S0100",1,1,"*",2,-1,711
2007-01-29,3,6,"right",1,2,44,"S1000",1,0,"+",1,1494,2725
2007-01-29,3,6,"right",1,2,45,"S0020",1,1,"*",2,815,-1
2007-01-29,3,6,"right",1,2,46,"S0200",1,0,"*",1,1577,-1
2007-01-29,3,6,"right",1,2,47,"S0001",1,0,"+",1,1904,3155
2007-01-29,3,6,"right",1,2,48,"S0010",1,1,"*",2,-1,631
2007-01-29,3,6,"right",1,2,49,"S2000",1,1,"*",2,653,-1
2007-01-29,3,6,"right",1,2,50,"S0002",1,0,"*",1,1452,-1
2007-01-29,3,6,"right",1,2,51,"S0010",1,1,"*",2,-1,692
2007-01-29,3,6,"right",1,2,52,"S0020",1,0,"*",1,1104,-1
2007-01-29,3,6,"right",1,2,53,"S0100",1,1,"*",2,-1,961
2007-01-29,3,6,"right",1,2,54,"S0001",1,1,"*",2,-1,876
2007-01-29,3,6,"right",1,2,55,"S0200",1,0,"*",1,1658,-1
2007-01-29,3,6,"right",1,2,56,"S1000",1,0,"*",1,-1,1228
2007-01-29,3,6,"right",1,2,57,"S2000",1,2,"*",3,528,-1
2007-01-29,3,6,"right",1,2,58,"S1000",1,1,"*",2,-1,732
2007-01-29,3,6,"right",1,2,59,"S0200",1,0,"*",1,1864,-1
2007-01-29,3,6,"right",1,2,60,"S0010",1,0,"*",1,-1,1863
2007-01-29,3,6,"right",1,2,61,"S0020",1,0,"*",1,1658,-1
2007-01-29,3,6,"right",1,2,62,"S0002",1,1,"*",2,733,-1
2007-01-29,3,6,"right",1,2,63,"S0100",1,0,"*",1,-1,3770
2007-01-29,3,6,"right",1,2,64,"S0001",1,0,"*",1,-1,1227
2007-01-29,3,6,"right",1,3,1,"S1000",1,1,"*",2,-1,774
2007-01-29,3,6,"right",1,3,2,"S0010",1,1,"*",2,-1,999
2007-01-29,3,6,"right",1,3,3,"S0002",1,1,"*",2,937,-1
2007-01-29,3,6,"right",1,3,4,"S0020",1,0,"*",1,3032,-1
2007-01-29,3,6,"right",1,3,5,"S0100",1,0,"*",1,-1,1578
2007-01-29,3,6,"right",1,3,6,"S0200",1,1,"*",2,938,-1
2007-01-29,3,6,"right",1,3,7,"S2000",1,0,"*",1,1311,-1
2007-01-29,3,6,"right",1,3,8,"S0001",1,0,"*",1,-1,3588
2007-01-29,3,6,"right",1,3,9,"S0001",1,0,"*",1,-1,1720
2007-01-29,3,6,"right",1,3,10,"S0002",1,1,"*",2,979,-1
2007-01-29,3,6,"right",1,3,11,"S0100",1,0,"*",1,-1,2499
2007-01-29,3,6,"right",1,3,12,"S0200",1,0,"*",1,6990,-1
2007-01-29,3,6,"right",1,3,13,"S0020",1,0,"*",1,1209,-1
2007-01-29,3,6,"right",1,3,14,"S0010",1,0,"*",1,-1,1187
2007-01-29,3,6,"right",1,3,15,"S1000",1,0,"*",1,-1,3586
2007-01-29,3,6,"right",1,3,16,"S2000",1,1,"*",2,629,-1
2007-01-29,3,6,"right",1,3,17,"S0010",1,1,"*",2,-1,609
2007-01-29,3,6,"right",1,3,18,"S0200",1,0,"*",1,1391,-1
2007-01-29,3,6,"right",1,3,19,"S2000",1,0,"*",1,2439,-1
2007-01-29,3,6,"right",1,3,20,"S0100",1,1,"*",2,-1,672
2007-01-29,3,6,"right",1,3,21,"S0020",1,1,"*",2,672,-1
2007-01-29,3,6,"right",1,3,22,"S0001",1,0,"*",1,-1,1889
2007-01-29,3,6,"right",1,3,23,"S0002",1,1,"*",2,977,-1
2007-01-29,3,6,"right",1,3,24,"S1000",1,0,"*",1,-1,2643
2007-01-29,3,6,"right",1,3,25,"S0010",1,1,"*",2,-1,980
2007-01-29,3,6,"right",1,3,26,"S0002",1,0,"*",1,1044,-1
2007-01-29,3,6,"right",1,3,27,"S0020",1,0,"*",1,2192,-1
2007-01-29,3,6,"right",1,3,28,"S0001",1,1,"*",2,-1,857
2007-01-29,3,6,"right",1,3,29,"S0200",1,1,"*",2,821,-1
2007-01-29,3,6,"right",1,3,30,"S0100",1,1,"*",2,-1,917
2007-01-29,3,6,"right",1,3,31,"S2000",1,1,"*",2,610,-1
2007-01-29,3,6,"right",1,3,32,"S1000",1,1,"*",2,-1,898
2007-01-29,3,6,"right",1,3,33,"S0001",1,0,"*",1,-1,1147
2007-01-29,3,6,"right",1,3,34,"S0020",1,1,"*",2,733,-1
2007-01-29,3,6,"right",1,3,35,"S0200",1,0,"*",1,2029,-1
2007-01-29,3,6,"right",1,3,36,"S0010",1,1,"*",2,-1,1000
2007-01-29,3,6,"right",1,3,37,"S1000",1,0,"*",1,-1,3361
2007-01-29,3,6,"right",1,3,38,"S2000",1,0,"*",1,1414,-1
2007-01-29,3,6,"right",1,3,39,"S0002",1,1,"*",2,671,-1
2007-01-29,3,6,"right",1,3,40,"S0100",1,0,"*",1,-1,1946
2007-01-29,3,6,"right",1,3,41,"S0100",1,0,"*",1,-1,1844
2007-01-29,3,6,"right",1,3,42,"S0020",1,0,"*",1,1926,-1
2007-01-29,3,6,"right",1,3,43,"S0200",1,1,"*",2,897,-1
2007-01-29,3,6,"right",1,3,44,"S1000",1,0,"*",1,-1,2480
2007-01-29,3,6,"right",1,3,45,"S0002",1,1,"*",2,979,-1
2007-01-29,3,6,"right",1,3,46,"S2000",1,1,"*",2,835,-1
2007-01-29,3,6,"right",1,3,47,"S0001",1,0,"*",1,-1,1106
2007-01-29,3,6,"right",1,3,48,"S0010",1,1,"*",2,-1,754
2007-01-29,3,6,"right",1,3,49,"S2000",1,0,"*",1,1248,-1
2007-01-29,3,6,"right",1,3,50,"S0100",1,0,"*",1,-1,1170
2007-01-29,3,6,"right",1,3,51,"S0001",1,1,"*",2,-1,857
2007-01-29,3,6,"right",1,3,52,"S0002",1,1,"*",2,713,-1
2007-01-29,3,6,"right",1,3,53,"S0200",1,0,"*",1,1292,-1
2007-01-29,3,6,"right",1,3,54,"S1000",1,0,"*",1,-1,1783
2007-01-29,3,6,"right",1,3,55,"S0020",1,0,"*",1,1207,-1
2007-01-29,3,6,"right",1,3,56,"S0010",1,1,"*",2,-1,958
2007-01-29,3,6,"right",1,3,57,"S0002",1,1,"*",2,856,-1
2007-01-29,3,6,"right",1,3,58,"S0100",1,2,"*",3,-1,835
2007-01-29,3,6,"right",1,3,59,"S1000",1,0,"*",1,-1,1701
2007-01-29,3,6,"right",1,3,60,"S2000",1,0,"*",1,1272,-1
2007-01-29,3,6,"right",1,3,61,"S0010",1,1,"*",2,-1,712
2007-01-29,3,6,"right",1,3,62,"S0200",1,0,"*",1,2540,-1
2007-01-29,3,6,"right",1,3,63,"S0020",1,0,"*",1,5351,-1
2007-01-29,3,6,"right",1,3,64,"S0001",1,0,"*",1,-1,1107
2007-01-29,3,6,"right",2,1,1,"S8760",1,0,"*",1,1091,-1
2007-01-29,3,6,"right",2,1,2,"S4320",1,1,"*",2,-1,800
2007-01-29,3,6,"right",2,1,3,"S8760",1,1,"*",2,922,-1
2007-01-29,3,6,"right",2,1,4,"S4320",1,1,"*",2,-1,717
2007-01-29,3,6,"right",2,1,5,"S4320",1,2,"*",3,-1,799
2007-01-29,3,6,"right",2,1,6,"S8760",1,0,"*",1,1051,-1
2007-01-29,3,6,"right",2,1,7,"S4320",1,1,"*",2,-1,963
2007-01-29,3,6,"right",2,1,8,"S8760",1,1,"*",2,881,-1
2007-01-29,3,6,"right",2,1,9,"S8760",1,1,"*",2,942,-1
2007-01-29,3,6,"right",2,1,10,"S4320",1,1,"*",2,-1,963
2007-01-29,3,6,"right",2,1,11,"S8760",1,0,"*",1,1071,-1
2007-01-29,3,6,"right",2,1,12,"S8760",1,0,"*",1,1193,-1
2007-01-29,3,6,"right",2,1,13,"S4320",1,0,"*",1,-1,1255
2007-01-29,3,6,"right",2,1,14,"S4320",1,1,"*",2,-1,880
2007-01-29,3,6,"right",2,1,15,"S8760",1,0,"*",1,1767,-1
2007-01-29,3,6,"right",2,1,16,"S4320",1,0,"*",1,-1,1193
2007-01-29,3,6,"right",2,1,17,"S8760",1,0,"*",1,1750,-1
2007-01-29,3,6,"right",2,1,18,"S8760",1,0,"*",2,1026,-1
2007-01-29,3,6,"right",2,1,19,"S4320",1,1,"*",2,-1,882
2007-01-29,3,6,"right",2,1,20,"S8760",1,0,"*",1,1112,-1
2007-01-29,3,6,"right",2,1,21,"S4320",1,1,"*",2,-1,1006
2007-01-29,3,6,"right",2,1,22,"S8760",1,0,"*",1,1400,-1
2007-01-29,3,6,"right",2,1,23,"S8760",1,1,"*",2,780,-1
2007-01-29,3,6,"right",2,1,24,"S4320",1,1,"*",2,-1,985
2007-01-29,3,6,"right",2,1,25,"S4320",1,0,"*",1,-1,4888
2007-01-29,3,6,"right",2,1,26,"S8760",1,1,"*",2,800,-1
2007-01-29,3,6,"right",2,1,27,"S4320",1,1,"*",2,-1,881
2007-01-29,3,6,"right",2,1,28,"S4320",1,0,"*",1,-1,1893
2007-01-29,3,6,"right",2,1,29,"S8760",1,0,"*",1,1791,-1
2007-01-29,3,6,"right",2,1,30,"S4320",1,0,"*",1,-1,1647
2007-01-29,3,6,"right",2,1,31,"S8760",1,0,"*",1,1257,-1
2007-01-29,3,6,"right",2,1,32,"S4320",1,0,"*",1,-1,1134
2007-01-29,3,6,"right",3,1,1,"S4320",1,0,"*",1,-1,1484
2007-01-29,3,6,"right",3,1,2,"S8760",1,0,"*",1,1054,-1
2007-01-29,3,6,"right",3,1,3,"S4320",1,1,"*",2,-1,985
2007-01-29,3,6,"right",3,1,4,"S8760",1,1,"*",2,963,-1
2007-01-29,3,6,"right",3,1,5,"S4320",1,0,"*",1,-1,1033
2007-01-29,3,6,"right",3,1,6,"S4320",1,0,"*",1,-1,1257
2007-01-29,3,6,"right",3,1,7,"S8760",1,0,"*",1,1544,-1
2007-01-29,3,6,"right",3,1,8,"S8760",1,0,"*",1,1113,-1
2007-01-29,3,6,"right",3,1,9,"S4320",1,0,"*",1,-1,1032
2007-01-29,3,6,"right",3,1,10,"S8760",1,1,"*",2,800,-1
2007-01-29,3,6,"right",3,1,11,"S4320",1,1,"*",2,-1,923
2007-01-29,3,6,"right",3,1,12,"S4320",1,1,"*",2,-1,964
2007-01-29,3,6,"right",3,1,13,"S8760",1,1,"*",2,842,-1
2007-01-29,3,6,"right",3,1,14,"S8760",1,0,"*",1,1996,-1
2007-01-29,3,6,"right",3,1,15,"S4320",1,1,"*",2,-1,822
2007-01-29,3,6,"right",3,1,16,"S4320",1,0,"*",1,-1,1053
2007-01-29,3,6,"right",3,1,17,"S8760",1,0,"*",1,1073,-1
2007-01-29,3,6,"right",3,1,18,"S4320",1,1,"*",2,-1,574
2007-01-29,3,6,"right",3,1,19,"S8760",1,0,"*",1,1708,-1
2007-01-29,3,6,"right",3,1,20,"S8760",1,0,"*",1,1831,-1
2007-01-29,3,6,"right",3,2,1,"S8760",1,0,"*",1,1545,-1
2007-01-29,3,6,"right",3,2,2,"S8720",1,0,"L",1,984,-1
2007-01-29,3,6,"right",3,2,3,"S8760",1,0,"*",1,1278,-1
2007-01-29,3,6,"right",3,2,4,"S8360",1,0,"L",1,739,-1
2007-01-29,3,6,"right",3,2,5,"S4320",1,1,"*",2,-1,841
2007-01-29,3,6,"right",3,2,6,"S8760",1,0,"L",1,964,-1
2007-01-29,3,6,"right",3,2,7,"S4320",1,1,"*",2,-1,800
2007-01-29,3,6,"right",3,2,8,"S4320",1,0,"R",1,-1,862
2007-01-29,3,6,"right",3,2,9,"S4320",1,0,"*",1,-1,1114
2007-01-29,3,6,"right",3,2,10,"S8760",1,1,"*",2,984,-1
2007-01-29,3,6,"right",3,2,11,"S4760",1,0,"L",1,1401,-1
2007-01-29,3,6,"right",3,2,12,"S4320",1,2,"*",3,-1,758
2007-01-29,3,6,"right",3,2,13,"S4360",1,0,"R",1,-1,3065
2007-01-29,3,6,"right",3,2,14,"S8760",1,1,"*",2,923,-1
2007-01-29,3,6,"right",3,2,15,"S8760",1,0,"*",1,1729,-1
2007-01-29,3,6,"right",3,2,16,"S8720",1,0,"L",1,1361,-1
2007-01-29,3,6,"right",3,2,17,"S4320",1,1,"*",2,-1,923
2007-01-29,3,6,"right",3,2,18,"S4320",1,0,"*",1,-1,2140
2007-01-29,3,6,"right",3,2,19,"S8760",1,0,"*",1,1236,-1
2007-01-29,3,6,"right",3,2,20,"S4320",1,1,"*",2,-1,718
2007-01-29,3,6,"right",3,2,21,"S8320",1,0,"R",1,-1,1400
2007-01-29,3,6,"right",3,2,22,"S8760",1,1,"*",2,840,-1
2007-01-29,3,6,"right",3,2,23,"S4320",1,0,"R",1,-1,924
2007-01-29,3,6,"right",3,2,24,"S4320",1,0,"*",1,-1,2569
2007-01-29,3,6,"right",3,2,25,"S8760",1,0,"*",1,1258,-1
2007-01-29,3,6,"right",3,2,26,"S8360",1,0,"L",1,697,-1
2007-01-29,3,6,"right",3,2,27,"S8760",1,0,"*",1,1400,-1
2007-01-29,3,6,"right",3,2,28,"S4720",1,0,"R",1,-1,1484
2007-01-29,3,6,"right",3,2,29,"S4320",1,0,"*",1,-1,1257
2007-01-29,3,6,"right",3,2,30,"S8760",1,0,"L",1,800,-1
2007-01-29,3,6,"right",3,2,31,"S8760",1,0,"*",1,1463,-1
2007-01-29,3,6,"right",3,2,32,"S4720",1,0,"R",1,-1,861
2007-01-29,3,6,"right",3,2,33,"S8760",1,0,"*",1,1155,-1
2007-01-29,3,6,"right",3,2,34,"S8760",1,1,"*",2,903,-1
2007-01-29,3,6,"right",3,2,35,"S8320",1,0,"R",1,-1,1032
2007-01-29,3,6,"right",3,2,36,"S4320",1,1,"*",2,-1,944
2007-01-29,3,6,"right",3,2,37,"S4760",1,0,"L",1,1156,-1
2007-01-29,3,6,"right",3,2,38,"S4320",1,0,"*",1,-1,1135
2007-01-29,3,6,"right",3,2,39,"S4320",1,0,"*",1,-1,2387
2007-01-29,3,6,"right",3,2,40,"S4360",1,0,"R",1,-1,1374
2007-01-30,4,2,"left",1,1,1,"S2000",1,0,"+",1,3052,40807
2007-01-30,4,2,"left",1,1,2,"S1000",1,0,"*",1,1700,-1
2007-01-30,4,2,"left",1,1,3,"S0020",1,0,"+",1,2704,6847
2007-01-30,4,2,"left",1,1,4,"S0010",1,0,"*",1,1494,-1
2007-01-30,4,2,"left",1,1,5,"S0001",1,0,"+",1,3893,1863
2007-01-30,4,2,"left",1,1,6,"S0002",1,1,"*",2,2110,900
2007-01-30,4,2,"left",1,1,7,"S0200",1,0,"*",1,-1,1105
2007-01-30,4,2,"left",1,1,8,"S0100",1,1,"*",2,899,-1
2007-01-30,4,2,"left",1,1,9,"S0020",1,0,"+",1,920,2458
2007-01-30,4,2,"left",1,1,10,"S0100",1,1,"*",2,817,2642
2007-01-30,4,2,"left",1,1,11,"S2000",1,1,"*",2,-1,775
2007-01-30,4,2,"left",1,1,12,"S0001",1,0,"+",1,4077,755
2007-01-30,4,2,"left",1,1,13,"S0002",1,0,"+",1,1248,2438
2007-01-30,4,2,"left",1,1,14,"S1000",1,1,"*",2,796,1924
2007-01-30,4,2,"left",1,1,15,"S0200",1,0,"*",1,-1,1309
2007-01-30,4,2,"left",1,1,16,"S0010",1,0,"+",1,1412,673
2007-01-30,4,2,"left",1,1,17,"S2000",1,0,"*",1,-1,1023
2007-01-30,4,2,"left",1,1,18,"S0001",1,1,"*",2,816,1636
2007-01-30,4,2,"left",1,1,19,"S0002",1,0,"+",1,776,2068
2007-01-30,4,2,"left",1,1,20,"S0010",1,0,"+",1,1698,735
2007-01-30,4,2,"left",1,1,21,"S0200",1,0,"+",1,734,1554
2007-01-30,4,2,"left",1,1,22,"S0020",1,0,"+",1,775,1841
2007-01-30,4,2,"left",1,1,23,"S1000",1,1,"*",2,673,1698
2007-01-30,4,2,"left",1,1,24,"S0100",1,1,"*",2,693,1431
2007-01-30,4,2,"left",1,1,25,"S0200",1,0,"+",1,755,2826
2007-01-30,4,2,"left",1,1,26,"S0100",1,1,"*",2,653,1432
2007-01-30,4,2,"left",1,1,27,"S1000",1,1,"*",2,693,1841
2007-01-30,4,2,"left",1,1,28,"S2000",1,1,"*",2,-1,857
2007-01-30,4,2,"left",1,1,29,"S0002",1,1,"*",2,-1,755
2007-01-30,4,2,"left",1,1,30,"S0010",1,1,"*",2,695,-1
2007-01-30,4,2,"left",1,1,31,"S0020",1,0,"*",1,-1,1104
2007-01-30,4,2,"left",1,1,32,"S0001",1,1,"*",2,735,-1
2007-01-30,4,2,"left",1,1,33,"S1000",1,0,"+",1,3360,2046
2007-01-30,4,2,"left",1,1,34,"S2000",1,1,"*",2,-1,755
2007-01-30,4,2,"left",1,1,35,"S0001",1,1,"*",2,673,-1
2007-01-30,4,2,"left",1,1,36,"S0002",1,1,"*",2,-1,715
2007-01-30,4,2,"left",1,1,37,"S0020",1,0,"+",1,693,1842
2007-01-30,4,2,"left",1,1,38,"S0100",1,0,"+",1,1760,652
2007-01-30,4,2,"left",1,1,39,"S0200",1,0,"+",1,692,2601
2007-01-30,4,2,"left",1,1,40,"S0010",1,0,"+",1,2088,837
2007-01-30,4,2,"left",1,1,41,"S0200",1,0,"+",1,776,2416
2007-01-30,4,2,"left",1,1,42,"S0010",1,1,"*",2,733,-1
2007-01-30,4,2,"left",1,1,43,"S0020",1,1,"*",2,-1,858
2007-01-30,4,2,"left",1,1,44,"S0001",1,0,"+",1,1882,754
2007-01-30,4,2,"left",1,1,45,"S2000",1,2,"*",3,-1,612
2007-01-30,4,2,"left",1,1,46,"S1000",1,1,"*",2,672,-1
2007-01-30,4,2,"left",1,1,47,"S0100",1,0,"+",1,1657,652
2007-01-30,4,2,"left",1,1,48,"S0002",1,0,"+",1,1637,2396
2007-01-30,4,2,"left",1,1,49,"S0020",1,2,"*",3,-1,550
2007-01-30,4,2,"left",1,1,50,"S0010",1,1,"*",2,816,-1
2007-01-30,4,2,"left",1,1,51,"S0001",1,0,"+",1,4384,1902
2007-01-30,4,2,"left",1,1,52,"S0002",1,2,"*",3,-1,632
2007-01-30,4,2,"left",1,1,53,"S1000",1,1,"*",2,610,-1
2007-01-30,4,2,"left",1,1,54,"S0200",1,0,"+",1,733,2107
2007-01-30,4,2,"left",1,1,55,"S2000",1,0,"*",1,-1,1452
2007-01-30,4,2,"left",1,1,56,"S0100",1,2,"*",3,610,-1
2007-01-30,4,2,"left",1,1,57,"S2000",1,0,"*",1,-1,1349
2007-01-30,4,2,"left",1,1,58,"S0001",1,0,"*",1,1123,-1
2007-01-30,4,2,"left",1,1,59,"S0200",1,1,"*",2,-1,713
2007-01-30,4,2,"left",1,1,60,"S0002",1,0,"+",1,733,1882
2007-01-30,4,2,"left",1,1,61,"S1000",1,0,"*",1,2313,-1
2007-01-30,4,2,"left",1,1,62,"S0010",1,1,"*",2,715,-1
2007-01-30,4,2,"left",1,1,63,"S0020",1,2,"*",3,-1,570
2007-01-30,4,2,"left",1,1,64,"S0100",1,0,"+",1,2578,609
2007-01-30,4,2,"left",1,2,1,"S0001",1,1,"*",2,753,1553
2007-01-30,4,2,"left",1,2,2,"S1000",1,0,"*",1,2045,-1
2007-01-30,4,2,"left",1,2,3,"S2000",1,2,"*",3,-1,609
2007-01-30,4,2,"left",1,2,4,"S0020",1,1,"*",2,-1,917
2007-01-30,4,2,"left",1,2,5,"S0100",1,0,"+",1,2845,835
2007-01-30,4,2,"left",1,2,6,"S0010",1,2,"*",3,650,-1
2007-01-30,4,2,"left",1,2,7,"S0200",1,2,"*",3,-1,609
2007-01-30,4,2,"left",1,2,8,"S0002",1,1,"*",2,-1,999
2007-01-30,4,2,"left",1,2,9,"S0001",1,2,"*",3,651,-1
2007-01-30,4,2,"left",1,2,10,"S0010",1,2,"*",3,650,-1
2007-01-30,4,2,"left",1,2,11,"S0002",1,0,"+",1,568,2742
2007-01-30,4,2,"left",1,2,12,"S2000",1,1,"*",2,-1,814
2007-01-30,4,2,"left",1,2,13,"S0100",1,2,"*",3,588,-1
2007-01-30,4,2,"left",1,2,14,"S0020",1,1,"*",2,-1,794
2007-01-30,4,2,"left",1,2,15,"S1000",1,0,"*",1,1430,-1
2007-01-30,4,2,"left",1,2,16,"S0200",1,2,"*",3,-1,548
2007-01-30,4,2,"left",1,2,17,"S0001",1,0,"+",1,4117,2415
2007-01-30,4,2,"left",1,2,18,"S1000",1,1,"*",2,855,-1
2007-01-30,4,2,"left",1,2,19,"S0002",1,0,"+",1,1390,3031
2007-01-30,4,2,"left",1,2,20,"S0020",1,1,"*",2,-1,856
2007-01-30,4,2,"left",1,2,21,"S0100",1,1,"*",2,836,-1
2007-01-30,4,2,"left",1,2,22,"S2000",1,0,"*",1,-1,1104
2007-01-30,4,2,"left",1,2,23,"S0200",1,2,"*",3,-1,630
2007-01-30,4,2,"left",1,2,24,"S0010",1,2,"*",3,610,-1
2007-01-30,4,2,"left",1,2,25,"S0200",1,1,"*",2,-1,979
2007-01-30,4,2,"left",1,2,26,"S0010",1,2,"*",3,632,-1
2007-01-30,4,2,"left",1,2,27,"S2000",1,2,"*",3,-1,712
2007-01-30,4,2,"left",1,2,28,"S0020",1,2,"*",3,-1,609
2007-01-30,4,2,"left",1,2,29,"S0001",1,0,"*",1,1555,-1
2007-01-30,4,2,"left",1,2,30,"S1000",1,2,"*",3,547,-1
2007-01-30,4,2,"left",1,2,31,"S0002",1,2,"*",3,-1,671
2007-01-30,4,2,"left",1,2,32,"S0100",1,0,"*",1,1287,-1
2007-01-30,4,2,"left",1,2,33,"S0010",1,1,"*",2,732,-1
2007-01-30,4,2,"left",1,2,34,"S2000",1,1,"*",2,-1,815
2007-01-30,4,2,"left",1,2,35,"S0001",1,2,"*",3,652,-1
2007-01-30,4,2,"left",1,2,36,"S0020",1,2,"*",3,-1,569
2007-01-30,4,2,"left",1,2,37,"S0100",1,0,"*",1,2477,-1
2007-01-30,4,2,"left",1,2,38,"S0002",1,2,"*",3,-1,711
2007-01-30,4,2,"left",1,2,39,"S1000",1,2,"*",3,711,-1
2007-01-30,4,2,"left",1,2,40,"S0200",1,2,"*",3,-1,671
2007-01-30,4,2,"left",1,2,41,"S0020",1,3,"*",4,-1,527
2007-01-30,4,2,"left",1,2,42,"S0001",1,0,"*",1,1289,-1
2007-01-30,4,2,"left",1,2,43,"S1000",1,0,"*",1,1800,-1
2007-01-30,4,2,"left",1,2,44,"S0002",1,1,"*",2,-1,877
2007-01-30,4,2,"left",1,2,45,"S0010",1,2,"*",3,692,-1
2007-01-30,4,2,"left",1,2,46,"S0100",1,1,"*",2,876,-1
2007-01-30,4,2,"left",1,2,47,"S0200",1,3,"*",4,-1,548
2007-01-30,4,2,"left",1,2,48,"S2000",1,0,"*",1,-1,1495
2007-01-30,4,2,"left",1,2,49,"S0001",1,2,"*",3,630,-1
2007-01-30,4,2,"left",1,2,50,"S0100",1,2,"*",3,630,-1
2007-01-30,4,2,"left",1,2,51,"S0002",1,1,"*",2,-1,940
2007-01-30,4,2,"left",1,2,52,"S0020",1,2,"*",3,-1,671
2007-01-30,4,2,"left",1,2,53,"S1000",1,2,"*",3,630,-1
2007-01-30,4,2,"left",1,2,54,"S0200",1,2,"*",3,-1,794
2007-01-30,4,2,"left",1,2,55,"S2000",1,2,"*",3,-1,692
2007-01-30,4,2,"left",1,2,56,"S0010",1,3,"*",4,506,-1
2007-01-30,4,2,"left",1,2,57,"S0020",1,2,"*",3,-1,610
2007-01-30,4,2,"left",1,2,58,"S0100",1,3,"*",4,589,-1
2007-01-30,4,2,"left",1,2,59,"S1000",1,2,"*",3,610,-1
2007-01-30,4,2,"left",1,2,60,"S0002",1,2,"*",3,-1,774
2007-01-30,4,2,"left",1,2,61,"S2000",1,0,"*",1,-1,1148
2007-01-30,4,2,"left",1,2,62,"S0001",1,1,"*",2,918,-1
2007-01-30,4,2,"left",1,2,63,"S0200",1,2,"*",3,-1,673
2007-01-30,4,2,"left",1,2,64,"S0010",1,1,"*",2,796,-1
2007-01-30,4,2,"left",2,1,1,"S6780",1,0,"*",1,-1,2669
2007-01-30,4,2,"left",2,1,2,"S2340",1,0,"*",1,1481,-1
2007-01-30,4,2,"left",2,1,3,"S6780",1,0,"*",1,-1,1111
2007-01-30,4,2,"left",2,1,4,"S2340",1,1,"*",2,635,-1
2007-01-30,4,2,"left",2,1,5,"S6780",1,2,"*",3,-1,655
2007-01-30,4,2,"left",2,1,6,"S6780",1,0,"*",1,-1,1069
2007-01-30,4,2,"left",2,1,7,"S2340",1,2,"*",3,616,-1
2007-01-30,4,2,"left",2,1,8,"S6780",1,2,"*",3,-1,614
2007-01-30,4,2,"left",2,1,9,"S2340",1,2,"*",3,635,-1
2007-01-30,4,2,"left",2,1,10,"S2340",1,2,"*",3,616,-1
2007-01-30,4,2,"left",2,1,11,"S6780",1,2,"*",3,-1,676
2007-01-30,4,2,"left",2,1,12,"S6780",1,2,"*",3,-1,659
2007-01-30,4,2,"left",2,1,13,"S2340",1,3,"*",4,574,-1
2007-01-30,4,2,"left",2,1,14,"S2340",1,2,"*",3,656,-1
2007-01-30,4,2,"left",2,1,15,"S6780",1,2,"*",3,-1,697
2007-01-30,4,2,"left",2,1,16,"S2340",1,0,"*",1,2074,-1
2007-01-30,4,2,"left",2,1,17,"S6780",1,1,"*",2,-1,923
2007-01-30,4,2,"left",2,1,18,"S2340",1,2,"*",3,657,-1
2007-01-30,4,2,"left",2,1,19,"S6780",1,0,"*",1,-1,1952
2007-01-30,4,2,"left",2,1,20,"S2340",1,1,"*",2,841,-1
2007-01-30,4,2,"left",2,1,21,"S6780",1,2,"*",3,-1,555
2007-01-30,4,2,"left",2,1,22,"S2340",1,2,"*",3,698,-1
2007-01-30,4,2,"left",2,1,23,"S6780",1,2,"*",3,-1,657
2007-01-30,4,2,"left",2,1,24,"S6780",1,0,"*",1,-1,1091
2007-01-30,4,2,"left",2,1,25,"S2340",1,2,"*",3,656,-1
2007-01-30,4,2,"left",2,1,26,"S2340",1,3,"*",4,555,-1
2007-01-30,4,2,"left",2,1,27,"S6780",1,2,"*",3,-1,657
2007-01-30,4,2,"left",2,1,28,"S2340",1,3,"*",4,596,-1
2007-01-30,4,2,"left",2,1,29,"S6780",1,3,"*",4,-1,534
2007-01-30,4,2,"left",2,1,30,"S2340",1,3,"*",4,596,-1
2007-01-30,4,2,"left",2,1,31,"S6780",1,2,"*",3,-1,760
2007-01-30,4,2,"left",2,1,32,"S2340",1,2,"*",3,575,-1
2007-01-30,4,2,"left",3,1,1,"S6780",1,1,"*",2,-1,821
2007-01-30,4,2,"left",3,1,2,"S6780",1,1,"*",2,-1,658
2007-01-30,4,2,"left",3,1,3,"S2340",1,2,"*",3,637,-1
2007-01-30,4,2,"left",3,1,4,"S2340",1,2,"*",3,677,-1
2007-01-30,4,2,"left",3,1,5,"S6780",1,2,"*",3,-1,719
2007-01-30,4,2,"left",3,1,6,"S2340",1,2,"*",3,595,-1
2007-01-30,4,2,"left",3,1,7,"S6780",1,2,"*",3,-1,720
2007-01-30,4,2,"left",3,1,8,"S2340",1,2,"*",3,698,-1
2007-01-30,4,2,"left",3,1,9,"S6780",1,3,"*",4,-1,554
2007-01-30,4,2,"left",3,1,10,"S2340",1,3,"*",4,575,-1
2007-01-30,4,2,"left",3,1,11,"S2340",1,3,"*",4,534,-1
2007-01-30,4,2,"left",3,1,12,"S6780",1,2,"*",3,-1,616
2007-01-30,4,2,"left",3,1,13,"S2340",1,2,"*",3,676,-1
2007-01-30,4,2,"left",3,1,14,"S6780",1,2,"*",3,-1,637
2007-01-30,4,2,"left",3,1,15,"S6780",1,2,"*",3,-1,636
2007-01-30,4,2,"left",3,1,16,"S2340",1,2,"*",3,576,-1
2007-01-30,4,2,"left",3,1,17,"S2340",1,3,"*",4,595,-1
2007-01-30,4,2,"left",3,1,18,"S6780",1,2,"*",3,-1,719
2007-01-30,4,2,"left",3,1,19,"S2340",1,2,"*",3,698,-1
2007-01-30,4,2,"left",3,1,20,"S6780",1,2,"*",3,-1,718
2007-01-30,4,2,"left",3,2,1,"S6780",1,2,"*",3,-1,697
2007-01-30,4,2,"left",3,2,2,"S2340",1,1,"*",2,636,-1
2007-01-30,4,2,"left",3,2,3,"S2780",1,0,"L",1,657,-1
2007-01-30,4,2,"left",3,2,4,"S2340",1,2,"*",3,738,-1
2007-01-30,4,2,"left",3,2,5,"S6780",1,1,"*",2,-1,862
2007-01-30,4,2,"left",3,2,6,"S2340",1,2,"*",3,779,-1
2007-01-30,4,2,"left",3,2,7,"S2380",1,0,"L",1,494,-1
2007-01-30,4,2,"left",3,2,8,"S6780",1,2,"*",3,-1,617
2007-01-30,4,2,"left",3,2,9,"S2780",1,0,"L",1,822,-1
2007-01-30,4,2,"left",3,2,10,"S2340",1,0,"*",1,1258,-1
2007-01-30,4,2,"left",3,2,11,"S6380",1,0,"R",1,-1,781
2007-01-30,4,2,"left",3,2,12,"S6780",1,0,"*",1,-1,2653
2007-01-30,4,2,"left",3,2,13,"S2740",1,0,"L",1,576,-1
2007-01-30,4,2,"left",3,2,14,"S2340",1,1,"*",2,924,-1
2007-01-30,4,2,"left",3,2,15,"S2340",1,0,"*",1,1033,-1
2007-01-30,4,2,"left",3,2,16,"S2340",1,0,"L",1,657,-1
2007-01-30,4,2,"left",3,2,17,"S6780",1,1,"*",2,-1,677
2007-01-30,4,2,"left",3,2,18,"S2740",1,0,"L",1,944,-1
2007-01-30,4,2,"left",3,2,19,"S6780",1,0,"*",1,-1,2263
2007-01-30,4,2,"left",3,2,20,"S6780",1,0,"*",1,-1,1278
2007-01-30,4,2,"left",3,2,21,"S2340",1,0,"L",1,3063,-1
2007-01-30,4,2,"left",3,2,22,"S2340",1,1,"*",2,944,-1
2007-01-30,4,2,"left",3,2,23,"S6740",1,0,"L",1,725,-1
2007-01-30,4,2,"left",3,2,24,"S6780",1,1,"*",2,-1,851
2007-01-30,4,2,"left",3,2,25,"S6780",1,0,"R",1,-1,788
2007-01-30,4,2,"left",3,2,26,"S6780",1,2,"*",3,-1,637
2007-01-30,4,2,"left",3,2,27,"S6780",1,0,"*",1,-1,1406
2007-01-30,4,2,"left",3,2,28,"S2380",1,0,"L",1,709,-1
2007-01-30,4,2,"left",3,2,29,"S2340",1,2,"*",3,663,-1
2007-01-30,4,2,"left",3,2,30,"S6380",1,0,"R",1,-1,1001
2007-01-30,4,2,"left",3,2,31,"S2340",1,3,"*",4,582,-1
2007-01-30,4,2,"left",3,2,32,"S6780",1,2,"*",3,-1,687
2007-01-30,4,2,"left",3,2,33,"S2340",1,0,"*",1,1209,-1
2007-01-30,4,2,"left",3,2,34,"S6340",1,0,"R",1,-1,644
2007-01-30,4,2,"left",3,2,35,"S2340",1,3,"*",4,600,-1
2007-01-30,4,2,"left",3,2,36,"S6740",1,0,"R",1,-1,542
2007-01-30,4,2,"left",3,2,37,"S2340",1,3,"*",4,627,-1
2007-01-30,4,2,"left",3,2,38,"S6780",1,0,"R",1,-1,615
2007-01-30,4,2,"left",3,2,39,"S6780",1,2,"*",3,-1,641
2007-01-30,4,2,"left",3,2,40,"S6340",1,0,"R",1,-1,555
2007-01-30,5,2,"right",1,1,1,"S0010",1,0,"+",1,1311,12245
2007-01-30,5,2,"right",1,1,2,"S0200",1,0,"*",1,1068,-1
2007-01-30,5,2,"right",1,1,3,"S0002",1,1,"*",2,902,2056
2007-01-30,5,2,"right",1,1,4,"S1000",1,0,"+",1,964,4446
2007-01-30,5,2,"right",1,1,5,"S2000",1,0,"+",1,3654,2040
2007-01-30,5,2,"right",1,1,6,"S0020",1,0,"+",1,9321,1677
2007-01-30,5,2,"right",1,1,7,"S0100",1,0,"*",1,-1,1729
2007-01-30,5,2,"right",1,1,8,"S0001",1,0,"+",1,2425,5043
2007-01-30,5,2,"right",1,1,9,"S0002",1,0,"+",1,3604,2262
2007-01-30,5,2,"right",1,1,10,"S2000",1,0,"*",1,2069,-1
2007-01-30,5,2,"right",1,1,11,"S0001",1,0,"*",1,-1,1729
2007-01-30,5,2,"right",1,1,12,"S0020",1,0,"*",1,1888,-1
2007-01-30,5,2,"right",1,1,13,"S1000",1,0,"*",1,-1,2091
2007-01-30,5,2,"right",1,1,14,"S0200",1,0,"*",1,1519,-1
2007-01-30,5,2,"right",1,1,15,"S0010",1,0,"+",1,1751,2966
2007-01-30,5,2,"right",1,1,16,"S0100",1,0,"+",1,2218,3459
2007-01-30,5,2,"right",1,1,17,"S0002",1,0,"*",1,1463,-1
2007-01-30,5,2,"right",1,1,18,"S0100",1,0,"*",1,-1,1669
2007-01-30,5,2,"right",1,1,19,"S0001",1,0,"+",1,2872,3840
2007-01-30,5,2,"right",1,1,20,"S0200",1,0,"*",1,1864,-1
2007-01-30,5,2,"right",1,1,21,"S0020",1,0,"*",1,1086,-1
2007-01-30,5,2,"right",1,1,22,"S1000",1,0,"*",1,-1,2296
2007-01-30,5,2,"right",1,1,23,"S2000",1,0,"+",1,3116,1752
2007-01-30,5,2,"right",1,1,24,"S0010",1,0,"+",1,1299,2561
2007-01-30,5,2,"right",1,1,25,"S0001",1,0,"+",1,1076,2528
2007-01-30,5,2,"right",1,1,26,"S2000",1,0,"+",1,3429,2441
2007-01-30,5,2,"right",1,1,27,"S0100",1,0,"+",1,1485,2677
2007-01-30,5,2,"right",1,1,28,"S1000",1,0,"*",1,-1,3525
2007-01-30,5,2,"right",1,1,29,"S0200",1,0,"*",1,1358,-1
2007-01-30,5,2,"right",1,1,30,"S0010",1,0,"+",1,1142,4245
2007-01-30,5,2,"right",1,1,31,"S0002",1,0,"*",1,1701,-1
2007-01-30,5,2,"right",1,1,32,"S0020",1,0,"*",1,1257,-1
2007-01-30,5,2,"right",1,1,33,"S0010",1,0,"+",1,1794,3004
2007-01-30,5,2,"right",1,1,34,"S0200",1,0,"+",1,5796,1384
2007-01-30,5,2,"right",1,1,35,"S2000",1,0,"+",1,2854,1133
2007-01-30,5,2,"right",1,1,36,"S1000",1,0,"+",1,1743,3171
2007-01-30,5,2,"right",1,1,37,"S0002",1,0,"+",1,3508,2492
2007-01-30,5,2,"right",1,1,38,"S0100",1,0,"+",1,3695,4773
2007-01-30,5,2,"right",1,1,39,"S0001",1,0,"*",1,-1,1295
2007-01-30,5,2,"right",1,1,40,"S0020",1,0,"+",1,2357,1054
2007-01-30,5,2,"right",1,1,41,"S0002",1,0,"*",1,2966,-1
2007-01-30,5,2,"right",1,1,42,"S0100",1,0,"*",1,-1,2885
2007-01-30,5,2,"right",1,1,43,"S0001",1,0,"*",1,-1,1766
2007-01-30,5,2,"right",1,1,44,"S0020",1,0,"+",1,6199,4773
2007-01-30,5,2,"right",1,1,45,"S0200",1,0,"*",1,5733,-1
2007-01-30,5,2,"right",1,1,46,"S1000",1,0,"+",1,1725,3117
2007-01-30,5,2,"right",1,1,47,"S0010",1,0,"+",1,1341,2937
2007-01-30,5,2,"right",1,1,48,"S2000",1,0,"+",1,3106,1890
2007-01-30,5,2,"right",1,1,49,"S0001",1,0,"+",1,3137,4609
2007-01-30,5,2,"right",1,1,50,"S2000",1,0,"+",1,3888,1583
2007-01-30,5,2,"right",1,1,51,"S0020",1,0,"+",1,3029,1568
2007-01-30,5,2,"right",1,1,52,"S0010",1,0,"+",1,1645,3378
2007-01-30,5,2,"right",1,1,53,"S0002",1,0,"+",1,2668,1483
2007-01-30,5,2,"right",1,1,54,"S0200",1,0,"*",1,2809,-1
2007-01-30,5,2,"right",1,1,55,"S1000",1,0,"+",1,1706,3191
2007-01-30,5,2,"right",1,1,56,"S0100",1,0,"+",1,1986,3480
2007-01-30,5,2,"right",1,1,57,"S0200",1,0,"*",1,1150,-1
2007-01-30,5,2,"right",1,1,58,"S0020",1,0,"*",1,1232,-1
2007-01-30,5,2,"right",1,1,59,"S1000",1,0,"+",1,1762,3049
2007-01-30,5,2,"right",1,1,60,"S0002",1,0,"+",1,3144,1800
2007-01-30,5,2,"right",1,1,61,"S0010",1,0,"*",1,-1,3220
2007-01-30,5,2,"right",1,1,62,"S0100",1,0,"*",1,-1,2031
2007-01-30,5,2,"right",1,1,63,"S2000",1,0,"*",1,1819,-1
2007-01-30,5,2,"right",1,1,64,"S0001",1,0,"+",1,2644,4364
2007-01-30,5,2,"right",1,2,1,"S0001",1,0,"*",1,-1,1795
2007-01-30,5,2,"right",1,2,2,"S1000",1,0,"*",1,-1,2852
2007-01-30,5,2,"right",1,2,3,"S2000",1,0,"*",1,1421,-1
2007-01-30,5,2,"right",1,2,4,"S0100",1,0,"*",1,-1,1640
2007-01-30,5,2,"right",1,2,5,"S0020",1,0,"*",1,1371,-1
2007-01-30,5,2,"right",1,2,6,"S0200",1,0,"*",1,1507,-1
2007-01-30,5,2,"right",1,2,7,"S0010",1,0,"*",1,-1,1435
2007-01-30,5,2,"right",1,2,8,"S0002",1,0,"*",1,2579,-1
2007-01-30,5,2,"right",1,2,9,"S0200",1,0,"*",1,1286,-1
2007-01-30,5,2,"right",1,2,10,"S0010",1,0,"*",1,-1,1236
2007-01-30,5,2,"right",1,2,11,"S0020",1,0,"*",1,1260,-1
2007-01-30,5,2,"right",1,2,12,"S1000",1,0,"*",1,-1,1452
2007-01-30,5,2,"right",1,2,13,"S0002",1,0,"*",1,1599,-1
2007-01-30,5,2,"right",1,2,14,"S0001",1,0,"*",1,-1,1606
2007-01-30,5,2,"right",1,2,15,"S2000",1,0,"+",1,3892,2820
2007-01-30,5,2,"right",1,2,16,"S0100",1,0,"*",1,-1,1336
2007-01-30,5,2,"right",1,2,17,"S0001",1,0,"*",1,-1,1277
2007-01-30,5,2,"right",1,2,18,"S0020",1,0,"*",1,2507,-1
2007-01-30,5,2,"right",1,2,19,"S0002",1,0,"*",1,1486,-1
2007-01-30,5,2,"right",1,2,20,"S0100",1,0,"*",1,-1,1445
2007-01-30,5,2,"right",1,2,21,"S2000",1,0,"+",1,3326,2293
2007-01-30,5,2,"right",1,2,22,"S0010",1,0,"*",1,-1,1215
2007-01-30,5,2,"right",1,2,23,"S1000",1,0,"*",1,-1,1980
2007-01-30,5,2,"right",1,2,24,"S0200",1,1,"*",2,992,-1
2007-01-30,5,2,"right",1,2,25,"S0020",1,0,"*",1,1470,-1
2007-01-30,5,2,"right",1,2,26,"S0100",1,0,"*",1,-1,1319
2007-01-30,5,2,"right",1,2,27,"S1000",1,0,"*",1,-1,1498
2007-01-30,5,2,"right",1,2,28,"S0200",1,1,"*",2,906,-1
2007-01-30,5,2,"right",1,2,29,"S0002",1,0,"*",1,1177,-1
2007-01-30,5,2,"right",1,2,30,"S0001",1,0,"*",1,-1,1060
2007-01-30,5,2,"right",1,2,31,"S0010",1,0,"*",1,-1,1193
2007-01-30,5,2,"right",1,2,32,"S2000",1,1,"*",2,944,-1
2007-01-30,5,2,"right",1,2,33,"S0100",1,0,"*",1,-1,1771
2007-01-30,5,2,"right",1,2,34,"S0020",1,0,"*",1,1691,-1
2007-01-30,5,2,"right",1,2,35,"S2000",1,0,"*",1,1189,-1
2007-01-30,5,2,"right",1,2,36,"S0001",1,0,"*",1,-1,1565
2007-01-30,5,2,"right",1,2,37,"S0002",1,1,"*",2,1005,-1
2007-01-30,5,2,"right",1,2,38,"S0200",1,0,"*",1,2303,-1
2007-01-30,5,2,"right",1,2,39,"S1000",1,0,"*",1,-1,1339
2007-01-30,5,2,"right",1,2,40,"S0010",1,0,"*",1,-1,1298
2007-01-30,5,2,"right",1,2,41,"S0002",1,0,"*",1,1797,-1
2007-01-30,5,2,"right",1,2,42,"S0001",1,0,"*",1,-1,1338
2007-01-30,5,2,"right",1,2,43,"S1000",1,0,"*",1,-1,1297
2007-01-30,5,2,"right",1,2,44,"S0200",1,0,"*",1,1086,-1
2007-01-30,5,2,"right",1,2,45,"S0010",1,0,"*",1,-1,1824
2007-01-30,5,2,"right",1,2,46,"S0100",1,0,"*",1,-1,1697
2007-01-30,5,2,"right",1,2,47,"S2000",1,0,"*",1,1105,-1
2007-01-30,5,2,"right",1,2,48,"S0020",1,0,"*",1,2007,-1
2007-01-30,5,2,"right",1,2,49,"S0010",1,0,"*",1,-1,1154
2007-01-30,5,2,"right",1,2,50,"S0020",1,1,"*",2,1010,-1
2007-01-30,5,2,"right",1,2,51,"S1000",1,0,"*",1,-1,1102
2007-01-30,5,2,"right",1,2,52,"S0100",1,0,"*",1,-1,1283
2007-01-30,5,2,"right",1,2,53,"S2000",1,0,"*",1,1170,-1
2007-01-30,5,2,"right",1,2,54,"S0001",1,0,"*",1,-1,1479
2007-01-30,5,2,"right",1,2,55,"S0002",1,0,"*",1,1073,-1
2007-01-30,5,2,"right",1,2,56,"S0200",1,0,"*",1,1376,-1
2007-01-30,5,2,"right",1,2,57,"S1000",1,0,"*",1,-1,1114
2007-01-30,5,2,"right",1,2,58,"S0200",1,0,"*",1,1369,-1
2007-01-30,5,2,"right",1,2,59,"S0100",1,0,"*",1,-1,1299
2007-01-30,5,2,"right",1,2,60,"S0010",1,0,"*",1,-1,1112
2007-01-30,5,2,"right",1,2,61,"S2000",1,0,"*",1,1022,-1
2007-01-30,5,2,"right",1,2,62,"S0002",1,0,"*",1,1314,-1
2007-01-30,5,2,"right",1,2,63,"S0001",1,0,"*",1,-1,1359
2007-01-30,5,2,"right",1,2,64,"S0020",1,0,"*",1,1938,-1
2007-01-30,5,2,"right",2,1,1,"S6780",1,0,"*",1,1153,-1
2007-01-30,5,2,"right",2,1,2,"S2340",1,0,"*",1,-1,1156
2007-01-30,5,2,"right",2,1,3,"S6780",1,1,"*",2,868,-1
2007-01-30,5,2,"right",2,1,4,"S6780",1,1,"*",2,991,-1
2007-01-30,5,2,"right",2,1,5,"S2340",1,0,"*",1,-1,1098
2007-01-30,5,2,"right",2,1,6,"S6780",1,1,"*",2,935,-1
2007-01-30,5,2,"right",2,1,7,"S2340",1,0,"*",1,-1,1181
2007-01-30,5,2,"right",2,1,8,"S2340",1,0,"*",1,-1,1114
2007-01-30,5,2,"right",2,1,9,"S6780",1,1,"*",2,987,-1
2007-01-30,5,2,"right",2,1,10,"S6780",1,0,"*",1,1738,-1
2007-01-30,5,2,"right",2,1,11,"S2340",1,0,"*",1,-1,1544
2007-01-30,5,2,"right",2,1,12,"S2340",1,0,"*",1,-1,1523
2007-01-30,5,2,"right",2,1,13,"S6780",1,0,"*",1,1305,-1
2007-01-30,5,2,"right",2,1,14,"S2340",1,0,"*",1,-1,1182
2007-01-30,5,2,"right",2,1,15,"S2340",1,0,"*",1,-1,1052
2007-01-30,5,2,"right",2,1,16,"S6780",1,0,"*",1,1568,-1
2007-01-30,5,2,"right",2,1,17,"S6780",1,0,"*",1,1034,-1
2007-01-30,5,2,"right",2,1,18,"S2340",1,1,"*",2,-1,1011
2007-01-30,5,2,"right",2,1,19,"S6780",1,1,"*",2,970,-1
2007-01-30,5,2,"right",2,1,20,"S2340",1,0,"*",1,-1,1242
2007-01-30,5,2,"right",2,1,21,"S2340",1,0,"*",1,-1,1280
2007-01-30,5,2,"right",2,1,22,"S6780",1,0,"*",1,1145,-1
2007-01-30,5,2,"right",2,1,23,"S6780",1,1,"*",2,928,-1
2007-01-30,5,2,"right",2,1,24,"S2340",1,0,"*",1,-1,1121
2007-01-30,5,2,"right",2,1,25,"S6780",1,0,"*",1,1477,-1
2007-01-30,5,2,"right",2,1,26,"S2340",1,0,"*",1,-1,1036
2007-01-30,5,2,"right",2,1,27,"S6780",1,0,"*",1,1218,-1
2007-01-30,5,2,"right",2,1,28,"S2340",1,0,"*",1,-1,1336
2007-01-30,5,2,"right",2,1,29,"S6780",1,0,"*",1,1223,-1
2007-01-30,5,2,"right",2,1,30,"S6780",1,1,"*",2,964,-1
2007-01-30,5,2,"right",2,1,31,"S2340",1,0,"*",1,-1,1583
2007-01-30,5,2,"right",2,1,32,"S2340",1,0,"*",1,-1,1753
2007-01-30,5,2,"right",3,1,1,"S2340",1,0,"*",1,-1,1320
2007-01-30,5,2,"right",3,1,2,"S2340",1,0,"*",1,-1,1115
2007-01-30,5,2,"right",3,1,3,"S6780",1,0,"*",1,1281,-1
2007-01-30,5,2,"right",3,1,4,"S2340",1,0,"*",1,-1,1751
2007-01-30,5,2,"right",3,1,5,"S6780",1,0,"*",1,1302,-1
2007-01-30,5,2,"right",3,1,6,"S6780",1,1,"*",2,992,-1
2007-01-30,5,2,"right",3,1,7,"S2340",1,0,"*",1,-1,2300
2007-01-30,5,2,"right",3,1,8,"S6780",1,0,"*",1,1035,-1
2007-01-30,5,2,"right",3,1,9,"S6780",1,0,"*",1,1189,-1
2007-01-30,5,2,"right",3,1,10,"S2340",1,0,"*",1,-1,1244
2007-01-30,5,2,"right",3,1,11,"S6780",1,0,"*",1,1340,-1
2007-01-30,5,2,"right",3,1,12,"S2340",1,0,"*",1,-1,1047
2007-01-30,5,2,"right",3,1,13,"S6780",1,1,"*",2,773,-1
2007-01-30,5,2,"right",3,1,14,"S6780",1,0,"*",1,1094,-1
2007-01-30,5,2,"right",3,1,15,"S2340",1,0,"*",1,-1,1284
2007-01-30,5,2,"right",3,1,16,"S6780",1,0,"*",1,1074,-1
2007-01-30,5,2,"right",3,1,17,"S2340",1,0,"*",1,-1,1256
2007-01-30,5,2,"right",3,1,18,"S2340",1,0,"*",1,-1,1132
2007-01-30,5,2,"right",3,1,19,"S6780",1,1,"*",2,910,-1
2007-01-30,5,2,"right",3,1,20,"S2340",1,0,"*",1,-1,1198
2007-01-30,5,2,"right",3,2,1,"S2780",1,0,"L",1,5080,-1
2007-01-30,5,2,"right",3,2,2,"S2340",1,0,"*",1,-1,1113
2007-01-30,5,2,"right",3,2,3,"S6380",1,0,"L",1,947,-1
2007-01-30,5,2,"right",3,2,4,"S2340",1,1,"*",2,-1,764
2007-01-30,5,2,"right",3,2,5,"S6380",1,0,"L",1,841,-1
2007-01-30,5,2,"right",3,2,6,"S2340",1,0,"*",1,-1,1138
2007-01-30,5,2,"right",3,2,7,"S2340",1,0,"R",1,-1,3489
2007-01-30,5,2,"right",3,2,8,"S2340",1,0,"*",1,-1,1156
2007-01-30,5,2,"right",3,2,9,"S2340",1,0,"*",1,-1,1628
2007-01-30,5,2,"right",3,2,10,"S6340",1,0,"R",1,-1,1015
2007-01-30,5,2,"right",3,2,11,"S6780",1,1,"*",2,728,-1
2007-01-30,5,2,"right",3,2,12,"S2740",1,0,"R",1,-1,1266
2007-01-30,5,2,"right",3,2,13,"S2340",1,1,"*",2,-1,947
2007-01-30,5,2,"right",3,2,14,"S6780",1,0,"*",1,1071,-1
2007-01-30,5,2,"right",3,2,15,"S6780",1,0,"*",1,1380,-1
2007-01-30,5,2,"right",3,2,16,"S2380",1,0,"R",1,-1,1013
2007-01-30,5,2,"right",3,2,17,"S2340",1,0,"*",1,-1,4467
2007-01-30,5,2,"right",3,2,18,"S2380",1,0,"R",1,-1,3210
2007-01-30,5,2,"right",3,2,19,"S2340",1,1,"*",2,-1,869
2007-01-30,5,2,"right",3,2,20,"S6780",1,1,"*",2,847,-1
2007-01-30,5,2,"right",3,2,21,"S6780",1,0,"L",1,843,-1
2007-01-30,5,2,"right",3,2,22,"S2340",1,0,"*",1,-1,1167
2007-01-30,5,2,"right",3,2,23,"S6740",1,0,"L",1,1194,-1
2007-01-30,5,2,"right",3,2,24,"S6780",1,1,"*",2,801,-1
2007-01-30,5,2,"right",3,2,25,"S2340",1,0,"*",1,-1,1164
2007-01-30,5,2,"right",3,2,26,"S2780",1,0,"L",1,1091,-1
2007-01-30,5,2,"right",3,2,27,"S6780",1,1,"*",2,809,-1
2007-01-30,5,2,"right",3,2,28,"S2340",1,0,"R",1,-1,986
2007-01-30,5,2,"right",3,2,29,"S6780",1,0,"*",1,1384,-1
2007-01-30,5,2,"right",3,2,30,"S6780",1,0,"L",1,908,-1
2007-01-30,5,2,"right",3,2,31,"S6780",1,1,"*",2,951,-1
2007-01-30,5,2,"right",3,2,32,"S2340",1,1,"*",2,-1,903
2007-01-30,5,2,"right",3,2,33,"S6740",1,0,"L",1,908,-1
2007-01-30,5,2,"right",3,2,34,"S6780",1,0,"*",1,1166,-1
2007-01-30,5,2,"right",3,2,35,"S2340",1,0,"*",1,-1,1304
2007-01-30,5,2,"right",3,2,36,"S6780",1,1,"*",2,863,-1
2007-01-30,5,2,"right",3,2,37,"S6780",1,0,"*",1,1305,-1
2007-01-30,5,2,"right",3,2,38,"S2740",1,0,"R",1,-1,2917
2007-01-30,5,2,"right",3,2,39,"S6780",1,1,"*",2,968,-1
2007-01-30,5,2,"right",3,2,40,"S6340",1,0,"R",1,-1,997
2007-02-02,6,1,"left",1,1,1,"S0100",1,0,"*",1,6771,-1
2007-02-02,6,1,"left",1,1,2,"S1000",1,0,"+",1,4045,1134
2007-02-02,6,1,"left",1,1,3,"S0020",1,1,"*",2,2272,926
2007-02-02,6,1,"left",1,1,4,"S2000",1,0,"+",1,943,3964
2007-02-02,6,1,"left",1,1,5,"S0001",1,0,"+",1,4804,2711
2007-02-02,6,1,"left",1,1,6,"S0002",1,0,"+",1,1136,3098
2007-02-02,6,1,"left",1,1,7,"S0200",1,0,"+",1,1267,3511
2007-02-02,6,1,"left",1,1,8,"S0010",1,0,"*",1,1734,-1
2007-02-02,6,1,"left",1,1,9,"S0020",1,0,"*",1,-1,1648
2007-02-02,6,1,"left",1,1,10,"S1000",1,0,"*",1,1636,-1
2007-02-02,6,1,"left",1,1,11,"S0100",1,0,"*",1,1380,-1
2007-02-02,6,1,"left",1,1,12,"S2000",1,0,"+",1,1297,3658
2007-02-02,6,1,"left",1,1,13,"S0001",1,0,"+",1,2153,811
2007-02-02,6,1,"left",1,1,14,"S0002",1,0,"*",1,-1,1080
2007-02-02,6,1,"left",1,1,15,"S0200",1,1,"*",2,-1,836
2007-02-02,6,1,"left",1,1,16,"S0010",1,0,"*",1,1109,-1
2007-02-02,6,1,"left",1,1,17,"S1000",1,0,"+",1,3007,1914
2007-02-02,6,1,"left",1,1,18,"S0002",1,0,"+",1,2307,3543
2007-02-02,6,1,"left",1,1,19,"S0001",1,0,"+",1,2465,1423
2007-02-02,6,1,"left",1,1,20,"S0200",1,0,"+",1,1151,2398
2007-02-02,6,1,"left",1,1,21,"S2000",1,0,"+",1,2283,3479
2007-02-02,6,1,"left",1,1,22,"S0100",1,0,"*",1,1430,-1
2007-02-02,6,1,"left",1,1,23,"S0020",1,1,"*",2,-1,821
2007-02-02,6,1,"left",1,1,24,"S0010",1,0,"*",1,1027,-1
2007-02-02,6,1,"left",1,1,25,"S0020",1,0,"*",1,-1,1333
2007-02-02,6,1,"left",1,1,26,"S0002",1,1,"*",2,-1,826
2007-02-02,6,1,"left",1,1,27,"S0010",1,1,"*",2,779,-1
2007-02-02,6,1,"left",1,1,28,"S1000",1,0,"*",1,1050,-1
2007-02-02,6,1,"left",1,1,29,"S0200",1,1,"*",2,-1,724
2007-02-02,6,1,"left",1,1,30,"S0100",1,1,"*",2,922,-1
2007-02-02,6,1,"left",1,1,31,"S0001",1,0,"+",1,3150,824
2007-02-02,6,1,"left",1,1,32,"S2000",1,0,"*",1,-1,6006
2007-02-02,6,1,"left",1,1,33,"S2000",1,1,"*",2,-1,986
2007-02-02,6,1,"left",1,1,34,"S0001",1,0,"*",1,4332,-1
2007-02-02,6,1,"left",1,1,35,"S0020",1,0,"+",1,818,2323
2007-02-02,6,1,"left",1,1,36,"S1000",1,1,"*",2,784,2126
2007-02-02,6,1,"left",1,1,37,"S0002",1,0,"*",1,-1,1352
2007-02-02,6,1,"left",1,1,38,"S0100",1,1,"*",2,757,-1
2007-02-02,6,1,"left",1,1,39,"S0200",1,1,"*",2,-1,767
2007-02-02,6,1,"left",1,1,40,"S0010",1,0,"+",1,4175,790
2007-02-02,6,1,"left",1,1,41,"S0020",1,1,"*",2,-1,893
2007-02-02,6,1,"left",1,1,42,"S1000",1,0,"+",1,4307,1828
2007-02-02,6,1,"left",1,1,43,"S2000",1,1,"*",2,-1,725
2007-02-02,6,1,"left",1,1,44,"S0010",1,0,"*",1,5341,-1
2007-02-02,6,1,"left",1,1,45,"S0100",1,1,"*",2,701,-1
2007-02-02,6,1,"left",1,1,46,"S0200",1,1,"*",2,-1,702
2007-02-02,6,1,"left",1,1,47,"S0002",1,0,"*",1,-1,4454
2007-02-02,6,1,"left",1,1,48,"S0001",1,1,"*",2,805,-1
2007-02-02,6,1,"left",1,1,49,"S0020",1,1,"*",2,-1,849
2007-02-02,6,1,"left",1,1,50,"S2000",1,0,"+",1,1027,3279
2007-02-02,6,1,"left",1,1,51,"S0001",1,0,"*",1,6453,-1
2007-02-02,6,1,"left",1,1,52,"S0100",1,1,"*",2,714,-1
2007-02-02,6,1,"left",1,1,53,"S0002",1,1,"*",2,-1,704
2007-02-02,6,1,"left",1,1,54,"S0200",1,1,"*",2,-1,742
2007-02-02,6,1,"left",1,1,55,"S0010",1,0,"+",1,6900,5182
2007-02-02,6,1,"left",1,1,56,"S1000",1,0,"+",1,2852,1132
2007-02-02,6,1,"left",1,1,57,"S0020",1,1,"*",2,-1,819
2007-02-02,6,1,"left",1,1,58,"S0010",1,0,"*",1,1676,-1
2007-02-02,6,1,"left",1,1,59,"S2000",1,1,"*",2,-1,706
2007-02-02,6,1,"left",1,1,60,"S1000",1,1,"*",2,886,-1
2007-02-02,6,1,"left",1,1,61,"S0002",1,0,"*",1,-1,1601
2007-02-02,6,1,"left",1,1,62,"S0001",1,1,"*",2,735,-1
2007-02-02,6,1,"left",1,1,63,"S0200",1,1,"*",2,-1,737
2007-02-02,6,1,"left",1,1,64,"S0100",1,1,"*",2,803,-1
2007-02-02,6,1,"left",1,2,1,"S0200",1,2,"*",3,-1,756
2007-02-02,6,1,"left",1,2,2,"S0100",1,2,"*",3,748,-1
2007-02-02,6,1,"left",1,2,3,"S0001",1,1,"*",2,1004,-1
2007-02-02,6,1,"left",1,2,4,"S2000",1,1,"*",2,-1,744
2007-02-02,6,1,"left",1,2,5,"S0002",1,0,"+",1,716,4995
2007-02-02,6,1,"left",1,2,6,"S1000",1,0,"*",1,1536,-1
2007-02-02,6,1,"left",1,2,7,"S0020",1,1,"*",2,-1,994
2007-02-02,6,1,"left",1,2,8,"S0010",1,1,"*",2,716,-1
2007-02-02,6,1,"left",1,2,9,"S0001",1,1,"*",2,898,-1
2007-02-02,6,1,"left",1,2,10,"S0002",1,1,"*",2,-1,699
2007-02-02,6,1,"left",1,2,11,"S0100",1,2,"*",3,821,-1
2007-02-02,6,1,"left",1,2,12,"S1000",1,2,"*",3,658,-1
2007-02-02,6,1,"left",1,2,13,"S0020",1,2,"*",3,-1,653
2007-02-02,6,1,"left",1,2,14,"S2000",1,0,"*",1,-1,1138
2007-02-02,6,1,"left",1,2,15,"S0010",1,0,"*",1,2908,-1
2007-02-02,6,1,"left",1,2,16,"S0200",1,2,"*",3,-1,699
2007-02-02,6,1,"left",1,2,17,"S2000",1,2,"*",3,-1,795
2007-02-02,6,1,"left",1,2,18,"S0010",1,1,"*",2,697,-1
2007-02-02,6,1,"left",1,2,19,"S0200",1,1,"*",3,-1,807
2007-02-02,6,1,"left",1,2,20,"S0100",1,2,"*",3,712,-1
2007-02-02,6,1,"left",1,2,21,"S0001",1,0,"+",1,6478,657
2007-02-02,6,1,"left",1,2,22,"S0020",1,1,"*",2,-1,1013
2007-02-02,6,1,"left",1,2,23,"S0002",1,0,"*",1,-1,1797
2007-02-02,6,1,"left",1,2,24,"S1000",1,0,"+",1,1628,610
2007-02-02,6,1,"left",1,2,25,"S2000",1,1,"*",2,-1,720
2007-02-02,6,1,"left",1,2,26,"S0100",1,0,"*",1,6343,-1
2007-02-02,6,1,"left",1,2,27,"S0010",1,2,"*",3,618,-1
2007-02-02,6,1,"left",1,2,28,"S0002",1,0,"*",1,-1,1560
2007-02-02,6,1,"left",1,2,29,"S0001",1,2,"*",3,627,-1
2007-02-02,6,1,"left",1,2,30,"S0200",1,2,"*",3,-1,609
2007-02-02,6,1,"left",1,2,31,"S1000",1,1,"*",2,696,-1
2007-02-02,6,1,"left",1,2,32,"S0020",1,2,"*",3,-1,655
2007-02-02,6,1,"left",1,2,33,"S0010",1,2,"*",3,678,-1
2007-02-02,6,1,"left",1,2,34,"S0002",1,0,"*",1,-1,2988
2007-02-02,6,1,"left",1,2,35,"S2000",1,0,"*",1,-1,2742
2007-02-02,6,1,"left",1,2,36,"S1000",1,1,"*",2,840,-1
2007-02-02,6,1,"left",1,2,37,"S0200",1,1,"*",2,-1,922
2007-02-02,6,1,"left",1,2,38,"S0020",1,0,"*",1,-1,2510
2007-02-02,6,1,"left",1,2,39,"S0001",1,0,"*",1,1471,-1
2007-02-02,6,1,"left",1,2,40,"S0100",1,0,"*",1,1414,-1
2007-02-02,6,1,"left",1,2,41,"S0200",1,2,"*",3,-1,635
2007-02-02,6,1,"left",1,2,42,"S0001",1,0,"*",1,2930,-1
2007-02-02,6,1,"left",1,2,43,"S0010",1,1,"*",2,907,-1
2007-02-02,6,1,"left",1,2,44,"S2000",1,0,"*",1,-1,3311
2007-02-02,6,1,"left",1,2,45,"S1000",1,1,"*",2,724,-1
2007-02-02,6,1,"left",1,2,46,"S0020",1,0,"*",1,-1,2681
2007-02-02,6,1,"left",1,2,47,"S0002",1,0,"*",1,-1,2741
2007-02-02,6,1,"left",1,2,48,"S0100",1,2,"*",3,618,-1
2007-02-02,6,1,"left",1,2,49,"S0200",1,2,"*",3,-1,679
2007-02-02,6,1,"left",1,2,50,"S0001",1,0,"*",1,1758,-1
2007-02-02,6,1,"left",1,2,51,"S0002",1,1,"*",2,-1,826
2007-02-02,6,1,"left",1,2,52,"S0010",1,2,"*",3,669,-1
2007-02-02,6,1,"left",1,2,53,"S2000",1,0,"*",1,-1,1775
2007-02-02,6,1,"left",1,2,54,"S0100",1,0,"*",1,1169,-1
2007-02-02,6,1,"left",1,2,55,"S0020",1,0,"*",1,-1,1109
2007-02-02,6,1,"left",1,2,56,"S1000",1,0,"*",1,2914,-1
2007-02-02,6,1,"left",1,2,57,"S1000",1,0,"*",1,2168,-1
2007-02-02,6,1,"left",1,2,58,"S2000",1,2,"*",3,-1,611
2007-02-02,6,1,"left",1,2,59,"S0010",1,2,"*",3,802,-1
2007-02-02,6,1,"left",1,2,60,"S0020",1,2,"*",3,-1,560
2007-02-02,6,1,"left",1,2,61,"S0001",1,0,"*",1,1086,-1
2007-02-02,6,1,"left",1,2,62,"S0200",1,2,"*",3,-1,552
2007-02-02,6,1,"left",1,2,63,"S0100",1,0,"*",1,1125,-1
2007-02-02,6,1,"left",1,2,64,"S0002",1,3,"*",4,-1,572
2007-02-02,6,1,"left",2,1,1,"S3420",1,0,"*",1,1507,-1
2007-02-02,6,1,"left",2,1,2,"S3420",1,0,"*",1,2118,-1
2007-02-02,6,1,"left",2,1,3,"S7860",1,1,"*",2,-1,703
2007-02-02,6,1,"left",2,1,4,"S3420",1,2,"*",3,702,-1
2007-02-02,6,1,"left",2,1,5,"S7860",1,0,"*",1,-1,1138
2007-02-02,6,1,"left",2,1,6,"S3420",1,3,"*",4,598,-1
2007-02-02,6,1,"left",2,1,7,"S3420",1,3,"*",4,646,-1
2007-02-02,6,1,"left",2,1,8,"S7860",1,2,"*",3,-1,680
2007-02-02,6,1,"left",2,1,9,"S3420",1,2,"*",3,694,-1
2007-02-02,6,1,"left",2,1,10,"S7860",1,3,"*",4,-1,594
2007-02-02,6,1,"left",2,1,11,"S7860",1,0,"*",1,-1,2482
2007-02-02,6,1,"left",2,1,12,"S3420",1,2,"*",3,664,-1
2007-02-02,6,1,"left",2,1,13,"S7860",1,1,"*",2,-1,929
2007-02-02,6,1,"left",2,1,14,"S7860",1,0,"*",1,-1,1157
2007-02-02,6,1,"left",2,1,15,"S3420",1,2,"*",3,667,-1
2007-02-02,6,1,"left",2,1,16,"S7860",1,1,"*",2,-1,663
2007-02-02,6,1,"left",2,1,17,"S3420",1,2,"*",3,705,-1
2007-02-02,6,1,"left",2,1,18,"S7860",1,2,"*",3,-1,782
2007-02-02,6,1,"left",2,1,19,"S3420",1,3,"*",4,639,-1
2007-02-02,6,1,"left",2,1,20,"S7860",1,2,"*",3,-1,781
2007-02-02,6,1,"left",2,1,21,"S3420",1,2,"*",3,827,-1
2007-02-02,6,1,"left",2,1,22,"S7860",1,2,"*",3,-1,769
2007-02-02,6,1,"left",2,1,23,"S3420",1,2,"*",3,657,-1
2007-02-02,6,1,"left",2,1,24,"S7860",1,2,"*",3,-1,576
2007-02-02,6,1,"left",2,1,25,"S3420",1,2,"*",3,662,-1
2007-02-02,6,1,"left",2,1,26,"S7860",1,3,"*",4,-1,638
2007-02-02,6,1,"left",2,1,27,"S3420",1,1,"*",2,910,-1
2007-02-02,6,1,"left",2,1,28,"S7860",1,0,"*",1,-1,1182
2007-02-02,6,1,"left",2,1,29,"S3420",1,3,"*",4,686,-1
2007-02-02,6,1,"left",2,1,30,"S3420",1,1,"*",2,647,-1
2007-02-02,6,1,"left",2,1,31,"S7860",1,3,"*",4,-1,601
2007-02-02,6,1,"left",2,1,32,"S7860",1,0,"*",1,-1,1425
2007-02-02,6,1,"left",3,1,1,"S7860",1,2,"*",3,-1,581
2007-02-02,6,1,"left",3,1,2,"S3420",1,2,"*",3,646,-1
2007-02-02,6,1,"left",3,1,3,"S7860",1,3,"*",4,-1,690
2007-02-02,6,1,"left",3,1,4,"S7860",1,1,"*",2,-1,911
2007-02-02,6,1,"left",3,1,5,"S3420",1,3,"*",4,700,-1
2007-02-02,6,1,"left",3,1,6,"S7860",1,1,"*",2,-1,786
2007-02-02,6,1,"left",3,1,7,"S3420",1,1,"*",2,852,-1
2007-02-02,6,1,"left",3,1,8,"S7860",1,2,"*",3,-1,759
2007-02-02,6,1,"left",3,1,9,"S3420",1,0,"*",1,4521,-1
2007-02-02,6,1,"left",3,1,10,"S3420",1,0,"*",1,1777,-1
2007-02-02,6,1,"left",3,1,11,"S7860",1,3,"*",4,-1,628
2007-02-02,6,1,"left",3,1,12,"S3420",1,3,"*",4,665,-1
2007-02-02,6,1,"left",3,1,13,"S7860",1,0,"*",1,-1,1261
2007-02-02,6,1,"left",3,1,14,"S3420",1,0,"*",1,1205,-1
2007-02-02,6,1,"left",3,1,15,"S3420",1,0,"*",1,2032,-1
2007-02-02,6,1,"left",3,1,16,"S7860",1,2,"*",3,-1,742
2007-02-02,6,1,"left",3,1,17,"S3420",1,1,"*",2,954,-1
2007-02-02,6,1,"left",3,1,18,"S7860",1,1,"*",2,-1,657
2007-02-02,6,1,"left",3,1,19,"S3420",1,1,"*",2,994,-1
2007-02-02,6,1,"left",3,1,20,"S7860",1,0,"*",1,-1,1369
2007-02-02,6,1,"left",3,2,1,"S7860",1,0,"R",1,-1,3770
2007-02-02,6,1,"left",3,2,2,"S7860",1,0,"*",1,-1,1118
2007-02-02,6,1,"left",3,2,3,"S3860",1,0,"R",1,-1,2381
2007-02-02,6,1,"left",3,2,4,"S7860",1,2,"*",3,-1,748
2007-02-02,6,1,"left",3,2,5,"S7860",1,2,"*",3,-1,889
2007-02-02,6,1,"left",3,2,6,"S3460",1,0,"L",1,1037,-1
2007-02-02,6,1,"left",3,2,7,"S7860",1,1,"*",2,-1,913
2007-02-02,6,1,"left",3,2,8,"S3420",1,2,"*",3,816,-1
2007-02-02,6,1,"left",3,2,9,"S3460",1,0,"L",1,886,-1
2007-02-02,6,1,"left",3,2,10,"S3420",1,0,"*",1,2234,-1
2007-02-02,6,1,"left",3,2,11,"S7860",1,1,"*",2,-1,886
2007-02-02,6,1,"left",3,2,12,"S7420",1,0,"L",1,705,-1
2007-02-02,6,1,"left",3,2,13,"S3420",1,0,"*",1,1426,-1
2007-02-02,6,1,"left",3,2,14,"S7860",1,1,"*",2,-1,990
2007-02-02,6,1,"left",3,2,15,"S3820",1,0,"R",1,-1,801
2007-02-02,6,1,"left",3,2,16,"S7860",1,0,"*",1,-1,3506
2007-02-02,6,1,"left",3,2,17,"S3420",1,0,"L",1,926,-1
2007-02-02,6,1,"left",3,2,18,"S7860",1,1,"*",2,-1,852
2007-02-02,6,1,"left",3,2,19,"S7860",1,0,"*",1,-1,1056
2007-02-02,6,1,"left",3,2,20,"S3820",1,0,"L",1,4340,-1
2007-02-02,6,1,"left",3,2,21,"S3420",1,1,"*",2,726,-1
2007-02-02,6,1,"left",3,2,22,"S3420",1,0,"L",1,645,-1
2007-02-02,6,1,"left",3,2,23,"S7860",1,2,"*",3,-1,804
2007-02-02,6,1,"left",3,2,24,"S7860",1,1,"*",2,-1,834
2007-02-02,6,1,"left",3,2,25,"S7860",1,0,"R",1,-1,755
2007-02-02,6,1,"left",3,2,26,"S3420",1,1,"*",2,750,-1
2007-02-02,6,1,"left",3,2,27,"S7860",1,2,"*",3,-1,723
2007-02-02,6,1,"left",3,2,28,"S3420",1,2,"*",3,638,-1
2007-02-02,6,1,"left",3,2,29,"S7460",1,0,"R",1,-1,790
2007-02-02,6,1,"left",3,2,30,"S3420",1,2,"*",3,575,-1
2007-02-02,6,1,"left",3,2,31,"S7460",1,0,"R",1,-1,1426
2007-02-02,6,1,"left",3,2,32,"S3420",1,1,"*",2,715,-1
2007-02-02,6,1,"left",3,2,33,"S7820",1,0,"R",1,-1,745
2007-02-02,6,1,"left",3,2,34,"S3420",1,2,"*",3,603,-1
2007-02-02,6,1,"left",3,2,35,"S7420",1,0,"L",1,606,-1
2007-02-02,6,1,"left",3,2,36,"S3420",1,2,"*",3,702,-1
2007-02-02,6,1,"left",3,2,37,"S7820",1,0,"R",1,-1,724
2007-02-02,6,1,"left",3,2,38,"S3420",1,1,"*",2,767,-1
2007-02-02,6,1,"left",3,2,39,"S3860",1,0,"R",1,-1,680
2007-02-02,6,1,"left",3,2,40,"S3420",1,1,"*",2,640,-1
2007-02-02,7,2,"left",1,1,1,"S0010",1,0,"*",1,2461,-1
2007-02-02,7,2,"left",1,1,2,"S0020",1,0,"*",1,-1,1025
2007-02-02,7,2,"left",1,1,3,"S0200",1,0,"+",1,678,31309
2007-02-02,7,2,"left",1,1,4,"S0100",1,1,"+",2,967,576
2007-02-02,7,2,"left",1,1,5,"S0001",1,1,"*",2,834,-1
2007-02-02,7,2,"left",1,1,6,"S2000",1,0,"+",1,719,8664
2007-02-02,7,2,"left",1,1,7,"S1000",1,0,"+",1,1862,899
2007-02-02,7,2,"left",1,1,8,"S0002",1,0,"+",1,860,1873
2007-02-02,7,2,"left",1,1,9,"S0002",1,1,"*",2,1768,698
2007-02-02,7,2,"left",1,1,10,"S0001",1,0,"*",1,1361,-1
2007-02-02,7,2,"left",1,1,11,"S0020",1,1,"*",2,-1,683
2007-02-02,7,2,"left",1,1,12,"S1000",1,0,"+",1,4612,794
2007-02-02,7,2,"left",1,1,13,"S0010",1,1,"*",2,783,-1
2007-02-02,7,2,"left",1,1,14,"S0200",1,1,"*",2,-1,906
2007-02-02,7,2,"left",1,1,15,"S2000",1,0,"+",1,1633,5559
2007-02-02,7,2,"left",1,1,16,"S0100",1,0,"+",1,4330,1130
2007-02-02,7,2,"left",1,1,17,"S0020",1,1,"*",2,-1,825
2007-02-02,7,2,"left",1,1,18,"S0010",1,1,"*",2,953,-1
2007-02-02,7,2,"left",1,1,19,"S0002",1,0,"+",1,1008,7643
2007-02-02,7,2,"left",1,1,20,"S0100",1,0,"+",1,3572,933
2007-02-02,7,2,"left",1,1,21,"S2000",1,0,"+",1,943,1961
2007-02-02,7,2,"left",1,1,22,"S1000",1,0,"+",1,3424,964
2007-02-02,7,2,"left",1,1,23,"S0001",1,1,"*",2,643,1280
2007-02-02,7,2,"left",1,1,24,"S0200",1,0,"+",1,1011,1939
2007-02-02,7,2,"left",1,1,25,"S0200",1,0,"*",1,-1,6112
2007-02-02,7,2,"left",1,1,26,"S0001",1,0,"+",1,8754,1042
2007-02-02,7,2,"left",1,1,27,"S0002",1,0,"*",1,-1,1140
2007-02-02,7,2,"left",1,1,28,"S0010",1,0,"+",1,2078,685
2007-02-02,7,2,"left",1,1,29,"S0100",1,1,"*",2,819,-1
2007-02-02,7,2,"left",1,1,30,"S2000",1,1,"*",2,1522,698
2007-02-02,7,2,"left",1,1,31,"S1000",1,0,"+",1,4728,758
2007-02-02,7,2,"left",1,1,32,"S0020",1,0,"+",1,758,2098
2007-02-02,7,2,"left",1,1,33,"S0001",1,0,"+",1,2388,700
2007-02-02,7,2,"left",1,1,34,"S0020",1,1,"*",2,1810,655
2007-02-02,7,2,"left",1,1,35,"S1000",1,0,"+",1,7005,679
2007-02-02,7,2,"left",1,1,36,"S0010",1,1,"*",2,806,-1
2007-02-02,7,2,"left",1,1,37,"S0002",1,0,"*",1,-1,1257
2007-02-02,7,2,"left",1,1,38,"S0200",1,1,"*",2,-1,634
2007-02-02,7,2,"left",1,1,39,"S0100",1,0,"+",1,7117,696
2007-02-02,7,2,"left",1,1,40,"S2000",1,0,"+",1,989,3194
2007-02-02,7,2,"left",1,1,41,"S0002",1,1,"*",2,-1,985
2007-02-02,7,2,"left",1,1,42,"S0010",1,1,"*",2,600,-1
2007-02-02,7,2,"left",1,1,43,"S0200",1,1,"*",2,-1,660
2007-02-02,7,2,"left",1,1,44,"S2000",1,1,"*",2,-1,675
2007-02-02,7,2,"left",1,1,45,"S1000",1,0,"+",1,2176,655
2007-02-02,7,2,"left",1,1,46,"S0100",1,0,"+",1,9868,592
2007-02-02,7,2,"left",1,1,47,"S0020",1,1,"*",2,-1,943
2007-02-02,7,2,"left",1,1,48,"S0001",1,0,"+",1,4466,702
2007-02-02,7,2,"left",1,1,49,"S0010",1,0,"*",1,1173,-1
2007-02-02,7,2,"left",1,1,50,"S0002",1,1,"*",2,-1,718
2007-02-02,7,2,"left",1,1,51,"S0100",1,0,"+",1,11922,739
2007-02-02,7,2,"left",1,1,52,"S2000",1,1,"*",2,-1,841
2007-02-02,7,2,"left",1,1,53,"S0020",1,1,"*",2,-1,947
2007-02-02,7,2,"left",1,1,54,"S1000",1,0,"+",1,3680,888
2007-02-02,7,2,"left",1,1,55,"S0200",1,1,"*",2,2095,755
2007-02-02,7,2,"left",1,1,56,"S0001",1,1,"*",2,961,3058
2007-02-02,7,2,"left",1,1,57,"S0020",1,1,"*",2,3019,739
2007-02-02,7,2,"left",1,1,58,"S0001",1,0,"+",1,7675,657
2007-02-02,7,2,"left",1,1,59,"S0100",1,0,"+",1,3338,620
2007-02-02,7,2,"left",1,1,60,"S0002",1,1,"*",2,-1,875
2007-02-02,7,2,"left",1,1,61,"S0200",1,1,"*",2,-1,717
2007-02-02,7,2,"left",1,1,62,"S1000",1,0,"+",1,16661,633
2007-02-02,7,2,"left",1,1,63,"S2000",1,1,"*",2,-1,634
2007-02-02,7,2,"left",1,1,64,"S0010",1,0,"+",1,1562,674
2007-02-02,7,2,"left",1,2,1,"S0002",1,0,"+",1,1230,2529
2007-02-02,7,2,"left",1,2,2,"S1000",1,0,"+",1,5954,1154
2007-02-02,7,2,"left",1,2,3,"S0200",1,0,"*",2,2212,1014
2007-02-02,7,2,"left",1,2,4,"S0001",1,0,"+",1,6396,1898
2007-02-02,7,2,"left",1,2,5,"S0020",1,0,"+",1,5236,11377
2007-02-02,7,2,"left",1,2,6,"S0100",1,0,"+",1,7260,634
2007-02-02,7,2,"left",1,2,7,"S2000",1,0,"*",1,-1,1035
2007-02-02,7,2,"left",1,2,8,"S0010",1,1,"*",2,590,-1
2007-02-02,7,2,"left",1,2,9,"S0010",1,1,"*",2,578,-1
2007-02-02,7,2,"left",1,2,10,"S0002",1,1,"*",2,-1,562
2007-02-02,7,2,"left",1,2,11,"S0001",1,0,"+",1,6432,629
2007-02-02,7,2,"left",1,2,12,"S0200",1,1,"*",2,-1,722
2007-02-02,7,2,"left",1,2,13,"S0020",1,1,"*",2,-1,662
2007-02-02,7,2,"left",1,2,14,"S1000",1,0,"+",1,3364,675
2007-02-02,7,2,"left",1,2,15,"S0100",1,0,"+",1,4481,1341
2007-02-02,7,2,"left",1,2,16,"S2000",1,1,"*",2,-1,615
2007-02-02,7,2,"left",1,2,17,"S0010",1,2,"*",3,692,-1
2007-02-02,7,2,"left",1,2,18,"S0100",1,0,"+",1,5685,804
2007-02-02,7,2,"left",1,2,19,"S0020",1,0,"+",1,1384,2461
2007-02-02,7,2,"left",1,2,20,"S0001",1,0,"+",1,7604,740
2007-02-02,7,2,"left",1,2,21,"S2000",1,0,"*",1,-1,1063
2007-02-02,7,2,"left",1,2,22,"S0002",1,0,"+",1,2287,4575
2007-02-02,7,2,"left",1,2,23,"S1000",1,0,"+",1,2923,1110
2007-02-02,7,2,"left",1,2,24,"S0200",1,1,"*",2,-1,678
2007-02-02,7,2,"left",1,2,25,"S0002",1,0,"*",1,-1,1261
2007-02-02,7,2,"left",1,2,26,"S0010",1,1,"*",2,818,-1
2007-02-02,7,2,"left",1,2,27,"S0100",1,0,"+",1,10839,653
2007-02-02,7,2,"left",1,2,28,"S2000",1,1,"*",2,1581,671
2007-02-02,7,2,"left",1,2,29,"S0001",1,0,"+",1,1801,745
2007-02-02,7,2,"left",1,2,30,"S0020",1,1,"*",2,-1,701
2007-02-02,7,2,"left",1,2,31,"S1000",1,0,"+",1,3324,739
2007-02-02,7,2,"left",1,2,32,"S0200",1,1,"*",2,-1,991
2007-02-02,7,2,"left",1,2,33,"S0010",1,1,"*",2,818,-1
2007-02-02,7,2,"left",1,2,34,"S1000",1,0,"+",1,3322,1478
2007-02-02,7,2,"left",1,2,35,"S0002",1,1,"*",2,-1,761
2007-02-02,7,2,"left",1,2,36,"S0100",1,0,"+",1,3010,1134
2007-02-02,7,2,"left",1,2,37,"S2000",1,0,"*",1,-1,1171
2007-02-02,7,2,"left",1,2,38,"S0001",1,0,"+",1,2914,740
2007-02-02,7,2,"left",1,2,39,"S0020",1,0,"*",1,-1,1115
2007-02-02,7,2,"left",1,2,40,"S0200",1,0,"+",1,1874,3924
2007-02-02,7,2,"left",1,2,41,"S1000",1,1,"*",2,763,-1
2007-02-02,7,2,"left",1,2,42,"S0001",1,0,"+",1,2319,627
2007-02-02,7,2,"left",1,2,43,"S0020",1,2,"*",3,-1,703
2007-02-02,7,2,"left",1,2,44,"S2000",1,1,"*",2,-1,716
2007-02-02,7,2,"left",1,2,45,"S0100",1,0,"+",1,3773,930
2007-02-02,7,2,"left",1,2,46,"S0010",1,1,"*",2,821,-1
2007-02-02,7,2,"left",1,2,47,"S0002",1,1,"*",2,-1,943
2007-02-02,7,2,"left",1,2,48,"S0200",1,1,"*",2,-1,738
2007-02-02,7,2,"left",1,2,49,"S0100",1,0,"+",1,3575,808
2007-02-02,7,2,"left",1,2,50,"S2000",1,1,"*",2,-1,616
2007-02-02,7,2,"left",1,2,51,"S1000",1,0,"+",1,2721,862
2007-02-02,7,2,"left",1,2,52,"S0020",1,0,"*",1,-1,1090
2007-02-02,7,2,"left",1,2,53,"S0001",1,0,"+",1,5806,929
2007-02-02,7,2,"left",1,2,54,"S0010",1,1,"*",2,794,-1
2007-02-02,7,2,"left",1,2,55,"S0002",1,1,"*",2,-1,890
2007-02-02,7,2,"left",1,2,56,"S0200",1,1,"*",2,-1,882
2007-02-02,7,2,"left",1,2,57,"S1000",1,1,"*",2,634,-1
2007-02-02,7,2,"left",1,2,58,"S0001",1,1,"*",2,616,-1
2007-02-02,7,2,"left",1,2,59,"S0002",1,2,"*",3,-1,675
2007-02-02,7,2,"left",1,2,60,"S0100",1,0,"+",1,3528,741
2007-02-02,7,2,"left",1,2,61,"S2000",1,2,"*",3,-1,637
2007-02-02,7,2,"left",1,2,62,"S0010",1,1,"*",2,671,-1
2007-02-02,7,2,"left",1,2,63,"S0200",1,1,"*",2,-1,761
2007-02-02,7,2,"left",1,2,64,"S0020",1,1,"*",2,-1,573
2007-02-02,7,2,"left",1,3,1,"S0200",1,0,"*",1,-1,2203
2007-02-02,7,2,"left",1,3,2,"S0020",1,1,"*",2,-1,374
2007-02-02,7,2,"left",1,3,3,"S0001",1,1,"*",2,456,-1
2007-02-02,7,2,"left",1,3,4,"S0010",1,1,"*",2,632,-1
2007-02-02,7,2,"left",1,3,5,"S0002",1,2,"*",3,-1,412
2007-02-02,7,2,"left",1,3,6,"S1000",1,0,"+",1,3771,681
2007-02-02,7,2,"left",1,3,7,"S0100",1,0,"+",1,3136,637
2007-02-02,7,2,"left",1,3,8,"S2000",1,0,"*",1,-1,1410
2007-02-02,7,2,"left",1,3,9,"S1000",1,0,"+",1,2030,590
2007-02-02,7,2,"left",1,3,10,"S0020",1,2,"*",3,-1,559
2007-02-02,7,2,"left",1,3,11,"S2000",1,1,"*",2,-1,596
2007-02-02,7,2,"left",1,3,12,"S0010",1,1,"*",2,662,-1
2007-02-02,7,2,"left",1,3,13,"S0200",1,1,"*",2,-1,787
2007-02-02,7,2,"left",1,3,14,"S0001",1,1,"*",2,651,-1
2007-02-02,7,2,"left",1,3,15,"S0100",1,0,"+",1,3041,712
2007-02-02,7,2,"left",1,3,16,"S0002",1,2,"*",3,-1,480
2007-02-02,7,2,"left",1,3,17,"S0100",1,0,"*",1,1608,-1
2007-02-02,7,2,"left",1,3,18,"S0002",1,1,"*",2,-1,615
2007-02-02,7,2,"left",1,3,19,"S1000",1,0,"+",1,8854,678
2007-02-02,7,2,"left",1,3,20,"S0020",1,1,"*",2,-1,591
2007-02-02,7,2,"left",1,3,21,"S0010",1,1,"*",2,663,-1
2007-02-02,7,2,"left",1,3,22,"S0001",1,2,"*",3,575,-1
2007-02-02,7,2,"left",1,3,23,"S2000",1,1,"*",2,-1,727
2007-02-02,7,2,"left",1,3,24,"S0200",1,0,"+",1,613,1861
2007-02-02,7,2,"left",1,3,25,"S1000",1,2,"*",3,577,1659
2007-02-02,7,2,"left",1,3,26,"S0001",1,2,"*",3,567,-1
2007-02-02,7,2,"left",1,3,27,"S0002",1,1,"*",2,-1,715
2007-02-02,7,2,"left",1,3,28,"S0010",1,2,"*",3,532,-1
2007-02-02,7,2,"left",1,3,29,"S0200",1,0,"+",1,573,2067
2007-02-02,7,2,"left",1,3,30,"S2000",1,0,"+",1,551,2054
2007-02-02,7,2,"left",1,3,31,"S0100",1,0,"+",1,1832,536
2007-02-02,7,2,"left",1,3,32,"S0020",1,2,"*",3,-1,574
2007-02-02,7,2,"left",1,3,33,"S0002",1,1,"*",2,-1,579
2007-02-02,7,2,"left",1,3,34,"S0100",1,2,"*",3,641,-1
2007-02-02,7,2,"left",1,3,35,"S0001",1,2,"*",3,525,-1
2007-02-02,7,2,"left",1,3,36,"S0020",1,1,"*",2,-1,787
2007-02-02,7,2,"left",1,3,37,"S0010",1,2,"*",3,575,-1
2007-02-02,7,2,"left",1,3,38,"S0200",1,0,"+",1,679,3742
2007-02-02,7,2,"left",1,3,39,"S2000",1,0,"+",1,552,1842
2007-02-02,7,2,"left",1,3,40,"S1000",1,3,"*",4,511,1499
2007-02-02,7,2,"left",1,3,41,"S0002",1,3,"*",4,-1,458
2007-02-02,7,2,"left",1,3,42,"S0020",1,1,"*",2,-1,614
2007-02-02,7,2,"left",1,3,43,"S0001",1,2,"*",3,634,-1
2007-02-02,7,2,"left",1,3,44,"S1000",1,0,"+",1,2835,655
2007-02-02,7,2,"left",1,3,45,"S0200",1,1,"*",2,-1,726
2007-02-02,7,2,"left",1,3,46,"S0100",1,2,"*",3,592,-1
2007-02-02,7,2,"left",1,3,47,"S2000",1,0,"*",1,-1,1483
2007-02-02,7,2,"left",1,3,48,"S0010",1,2,"*",3,592,-1
2007-02-02,7,2,"left",1,3,49,"S0200",1,1,"*",2,-1,590
2007-02-02,7,2,"left",1,3,50,"S0001",1,0,"*",1,1095,-1
2007-02-02,7,2,"left",1,3,51,"S0010",1,3,"*",4,557,-1
2007-02-02,7,2,"left",1,3,52,"S0002",1,1,"*",2,-1,797
2007-02-02,7,2,"left",1,3,53,"S0100",1,3,"*",4,553,-1
2007-02-02,7,2,"left",1,3,54,"S0020",1,1,"*",2,-1,801
2007-02-02,7,2,"left",1,3,55,"S1000",1,0,"+",1,3118,662
2007-02-02,7,2,"left",1,3,56,"S2000",1,3,"*",4,-1,529
2007-02-02,7,2,"left",1,3,57,"S0100",1,0,"+",1,2995,1730
2007-02-02,7,2,"left",1,3,58,"S2000",1,0,"*",1,-1,1305
2007-02-02,7,2,"left",1,3,59,"S0010",1,2,"*",3,531,-1
2007-02-02,7,2,"left",1,3,60,"S0020",1,3,"*",4,-1,428
2007-02-02,7,2,"left",1,3,61,"S0001",1,1,"*",2,683,-1
2007-02-02,7,2,"left",1,3,62,"S1000",1,0,"+",1,3056,1511
2007-02-02,7,2,"left",1,3,63,"S0002",1,2,"*",3,-1,560
2007-02-02,7,2,"left",1,3,64,"S0200",1,0,"*",1,-1,1345
2007-02-02,7,2,"left",2,1,1,"S2340",1,0,"*",1,1615,-1
2007-02-02,7,2,"left",2,1,2,"S2340",1,0,"+",1,2161,1106
2007-02-02,7,2,"left",2,1,3,"S6780",1,0,"+",1,785,1756
2007-02-02,7,2,"left",2,1,4,"S6780",1,0,"*",1,-1,3552
2007-02-02,7,2,"left",2,1,5,"S2340",1,0,"+",1,3121,1552
2007-02-02,7,2,"left",2,1,6,"S2340",1,0,"*",1,1181,-1
2007-02-02,7,2,"left",2,1,7,"S6780",1,1,"*",2,-1,885
2007-02-02,7,2,"left",2,1,8,"S2340",1,1,"*",2,661,-1
2007-02-02,7,2,"left",2,1,9,"S6780",1,1,"*",2,-1,770
2007-02-02,7,2,"left",2,1,10,"S2340",1,2,"*",3,684,-1
2007-02-02,7,2,"left",2,1,11,"S6780",1,1,"*",2,-1,872
2007-02-02,7,2,"left",2,1,12,"S6780",1,2,"*",3,-1,556
2007-02-02,7,2,"left",2,1,13,"S2340",1,0,"+",1,1762,601
2007-02-02,7,2,"left",2,1,14,"S6780",1,0,"+",1,702,1491
2007-02-02,7,2,"left",2,1,15,"S2340",1,0,"+",1,1388,723
2007-02-02,7,2,"left",2,1,16,"S6780",1,1,"*",2,1525,751
2007-02-02,7,2,"left",2,1,17,"S2340",1,0,"*",1,1033,-1
2007-02-02,7,2,"left",2,1,18,"S6780",1,0,"*",1,-1,1218
2007-02-02,7,2,"left",2,1,19,"S6780",1,2,"*",3,-1,581
2007-02-02,7,2,"left",2,1,20,"S2340",1,3,"*",4,594,-1
2007-02-02,7,2,"left",2,1,21,"S2340",1,2,"*",3,719,-1
2007-02-02,7,2,"left",2,1,22,"S6780",1,2,"*",3,-1,519
2007-02-02,7,2,"left",2,1,23,"S2340",1,3,"*",4,516,-1
2007-02-02,7,2,"left",2,1,24,"S6780",1,1,"*",2,-1,600
2007-02-02,7,2,"left",2,1,25,"S2340",1,3,"*",4,562,-1
2007-02-02,7,2,"left",2,1,26,"S2340",1,2,"*",3,659,-1
2007-02-02,7,2,"left",2,1,27,"S6780",1,2,"*",3,-1,660
2007-02-02,7,2,"left",2,1,28,"S2340",1,3,"*",4,540,-1
2007-02-02,7,2,"left",2,1,29,"S6780",1,2,"*",3,-1,642
2007-02-02,7,2,"left",2,1,30,"S6780",1,2,"*",3,-1,643
2007-02-02,7,2,"left",2,1,31,"S2340",1,2,"*",3,684,-1
2007-02-02,7,2,"left",2,1,32,"S6780",1,2,"*",3,-1,680
2007-02-02,7,2,"left",3,1,1,"S2340",1,2,"*",3,497,-1
2007-02-02,7,2,"left",3,1,2,"S6780",1,2,"*",3,-1,660
2007-02-02,7,2,"left",3,1,3,"S6780",1,2,"*",3,-1,723
2007-02-02,7,2,"left",3,1,4,"S2340",1,3,"*",4,582,-1
2007-02-02,7,2,"left",3,1,5,"S2340",1,0,"+",1,1561,604
2007-02-02,7,2,"left",3,1,6,"S6780",1,3,"*",4,-1,443
2007-02-02,7,2,"left",3,1,7,"S2340",1,2,"*",3,620,-1
2007-02-02,7,2,"left",3,1,8,"S6780",1,1,"*",2,-1,577
2007-02-02,7,2,"left",3,1,9,"S2340",1,2,"*",3,576,-1
2007-02-02,7,2,"left",3,1,10,"S6780",1,0,"*",1,-1,1050
2007-02-02,7,2,"left",3,1,11,"S2340",1,2,"*",3,563,-1
2007-02-02,7,2,"left",3,1,12,"S6780",1,1,"*",2,-1,807
2007-02-02,7,2,"left",3,1,13,"S2340",1,3,"*",4,519,-1
2007-02-02,7,2,"left",3,1,14,"S2340",1,2,"*",3,660,-1
2007-02-02,7,2,"left",3,1,15,"S6780",1,3,"*",4,-1,517
2007-02-02,7,2,"left",3,1,16,"S6780",1,1,"*",2,-1,1002
2007-02-02,7,2,"left",3,1,17,"S2340",1,1,"*",2,430,-1
2007-02-02,7,2,"left",3,1,18,"S2340",1,2,"*",3,514,-1
2007-02-02,7,2,"left",3,1,19,"S6780",1,2,"*",3,-1,498
2007-02-02,7,2,"left",3,1,20,"S6780",1,2,"*",3,-1,491
2007-02-02,7,2,"left",3,2,1,"S6780",1,2,"*",3,-1,491
2007-02-02,7,2,"left",3,2,2,"S2740",1,0,"L",1,907,-1
2007-02-02,7,2,"left",3,2,3,"S2340",1,1,"*",2,683,-1
2007-02-02,7,2,"left",3,2,4,"S6780",1,2,"*",3,-1,640
2007-02-02,7,2,"left",3,2,5,"S6780",1,0,"R",1,-1,585
2007-02-02,7,2,"left",3,2,6,"S2340",1,2,"*",3,474,-1
2007-02-02,7,2,"left",3,2,7,"S2340",1,1,"*",2,535,-1
2007-02-02,7,2,"left",3,2,8,"S2780",1,0,"L",1,535,-1
2007-02-02,7,2,"left",3,2,9,"S2340",1,2,"*",3,437,-1
2007-02-02,7,2,"left",3,2,10,"S6780",1,1,"*",2,-1,689
2007-02-02,7,2,"left",3,2,11,"S6780",1,0,"R",1,-1,647
2007-02-02,7,2,"left",3,2,12,"S2340",1,1,"*",2,455,-1
2007-02-02,7,2,"left",3,2,13,"S6380",1,0,"R",1,-1,681
2007-02-02,7,2,"left",3,2,14,"S2340",1,2,"*",3,559,-1
2007-02-02,7,2,"left",3,2,15,"S6340",1,0,"R",1,-1,927
2007-02-02,7,2,"left",3,2,16,"S2340",1,1,"*",2,727,-1
2007-02-02,7,2,"left",3,2,17,"S2740",1,0,"L",1,917,-1
2007-02-02,7,2,"left",3,2,18,"S6780",1,1,"*",2,-1,703
2007-02-02,7,2,"left",3,2,19,"S2380",1,0,"L",1,598,-1
2007-02-02,7,2,"left",3,2,20,"S6780",1,1,"*",2,-1,639
2007-02-02,7,2,"left",3,2,21,"S2340",1,1,"*",2,664,-1
2007-02-02,7,2,"left",3,2,22,"S2340",1,0,"L",1,692,-1
2007-02-02,7,2,"left",3,2,23,"S2340",1,1,"*",2,721,-1
2007-02-02,7,2,"left",3,2,24,"S6780",1,2,"*",3,-1,578
2007-02-02,7,2,"left",3,2,25,"S2340",1,0,"L",1,826,-1
2007-02-02,7,2,"left",3,2,26,"S6780",1,2,"*",3,-1,546
2007-02-02,7,2,"left",3,2,27,"S6740",1,0,"R",1,-1,558
2007-02-02,7,2,"left",3,2,28,"S2340",1,1,"*",2,451,-1
2007-02-02,7,2,"left",3,2,29,"S6780",1,1,"*",2,-1,541
2007-02-02,7,2,"left",3,2,30,"S2780",1,0,"L",1,580,-1
2007-02-02,7,2,"left",3,2,31,"S2340",1,1,"*",2,623,-1
2007-02-02,7,2,"left",3,2,32,"S6340",1,0,"R",1,-1,1284
2007-02-02,7,2,"left",3,2,33,"S6780",1,1,"*",2,-1,815
2007-02-02,7,2,"left",3,2,34,"S6780",1,1,"*",2,-1,583
2007-02-02,7,2,"left",3,2,35,"S2380",1,0,"L",1,863,-1
2007-02-02,7,2,"left",3,2,36,"S6780",1,2,"*",3,-1,555
2007-02-02,7,2,"left",3,2,37,"S6380",1,0,"R",1,-1,541
2007-02-02,7,2,"left",3,2,38,"S6780",1,1,"*",2,-1,512
2007-02-02,7,2,"left",3,2,39,"S2340",1,1,"*",2,835,-1
2007-02-02,7,2,"left",3,2,40,"S6740",1,0,"R",1,-1,477
2007-02-05,8,6,"right",1,1,1,"S1000",1,0,"*",1,-1,1984
2007-02-05,8,6,"right",1,1,2,"S0020",1,0,"*",1,2047,-1
2007-02-05,8,6,"right",1,1,3,"S2000",1,0,"+",1,27560,1362
2007-02-05,8,6,"right",1,1,4,"S0100",1,1,"*",2,1926,971
2007-02-05,8,6,"right",1,1,5,"S0002",1,0,"+",1,2458,1627
2007-02-05,8,6,"right",1,1,6,"S0001",1,1,"*",2,2599,681
2007-02-05,8,6,"right",1,1,7,"S0010",1,0,"+",1,2649,4527
2007-02-05,8,6,"right",1,1,8,"S0200",1,1,"*",2,846,2309
2007-02-05,8,6,"right",1,1,9,"S1000",1,0,"*",1,-1,5840
2007-02-05,8,6,"right",1,1,10,"S0200",1,0,"*",1,6551,-1
2007-02-05,8,6,"right",1,1,11,"S0020",1,0,"*",1,3349,-1
2007-02-05,8,6,"right",1,1,12,"S0001",1,0,"*",1,-1,2233
2007-02-05,8,6,"right",1,1,13,"S0100",1,0,"+",1,5676,11680
2007-02-05,8,6,"right",1,1,14,"S2000",1,0,"+",1,5717,3166
2007-02-05,8,6,"right",1,1,15,"S0002",1,0,"+",1,3951,2866
2007-02-05,8,6,"right",1,1,16,"S0010",1,0,"+",1,819,2740
2007-02-05,8,6,"right",1,1,17,"S0020",1,1,"*",2,883,2108
2007-02-05,8,6,"right",1,1,18,"S0010",1,0,"+",1,2799,4860
2007-02-05,8,6,"right",1,1,19,"S0001",1,0,"*",1,-1,2877
2007-02-05,8,6,"right",1,1,20,"S0200",1,0,"*",1,6127,-1
2007-02-05,8,6,"right",1,1,21,"S2000",1,0,"+",1,4181,2819
2007-02-05,8,6,"right",1,1,22,"S0100",1,0,"+",1,1273,3419
2007-02-05,8,6,"right",1,1,23,"S1000",1,0,"*",1,-1,2205
2007-02-05,8,6,"right",1,1,24,"S0002",1,0,"+",1,2353,1006
2007-02-05,8,6,"right",1,1,25,"S0020",1,0,"*",1,1164,-1
2007-02-05,8,6,"right",1,1,26,"S0010",1,1,"*",2,1871,821
2007-02-05,8,6,"right",1,1,27,"S2000",1,0,"+",1,6872,5099
2007-02-05,8,6,"right",1,1,28,"S1000",1,0,"*",1,-1,1409
2007-02-05,8,6,"right",1,1,29,"S0100",1,0,"+",1,1148,2845
2007-02-05,8,6,"right",1,1,30,"S0002",1,0,"+",1,5204,1730
2007-02-05,8,6,"right",1,1,31,"S0001",1,0,"*",1,-1,1358
2007-02-05,8,6,"right",1,1,32,"S0200",1,0,"*",1,1296,-1
2007-02-05,8,6,"right",1,1,33,"S0100",1,2,"*",3,2453,780
2007-02-05,8,6,"right",1,1,34,"S0020",1,0,"*",1,1090,-1
2007-02-05,8,6,"right",1,1,35,"S0200",1,0,"*",1,1407,-1
2007-02-05,8,6,"right",1,1,36,"S0010",1,0,"+",1,827,2598
2007-02-05,8,6,"right",1,1,37,"S0002",1,0,"+",1,3071,1671
2007-02-05,8,6,"right",1,1,38,"S0001",1,0,"*",1,-1,1448
2007-02-05,8,6,"right",1,1,39,"S2000",1,0,"+",1,2348,1136
2007-02-05,8,6,"right",1,1,40,"S1000",1,0,"*",1,-1,1276
2007-02-05,8,6,"right",1,1,41,"S0010",1,0,"*",1,-1,2535
2007-02-05,8,6,"right",1,1,42,"S0200",1,0,"*",1,3229,-1
2007-02-05,8,6,"right",1,1,43,"S1000",1,0,"*",1,-1,2628
2007-02-05,8,6,"right",1,1,44,"S2000",1,0,"*",1,2630,-1
2007-02-05,8,6,"right",1,1,45,"S0001",1,0,"*",1,-1,2101
2007-02-05,8,6,"right",1,1,46,"S0020",1,0,"*",1,2425,-1
2007-02-05,8,6,"right",1,1,47,"S0002",1,0,"+",1,6275,1584
2007-02-05,8,6,"right",1,1,48,"S0100",1,0,"*",1,-1,1253
2007-02-05,8,6,"right",1,1,49,"S0002",1,0,"+",1,2386,1216
2007-02-05,8,6,"right",1,1,50,"S0100",1,0,"*",1,-1,1689
2007-02-05,8,6,"right",1,1,51,"S2000",1,0,"*",1,2292,-1
2007-02-05,8,6,"right",1,1,52,"S1000",1,0,"*",1,-1,1301
2007-02-05,8,6,"right",1,1,53,"S0200",1,0,"*",1,1433,-1
2007-02-05,8,6,"right",1,1,54,"S0001",1,0,"+",1,991,2791
2007-02-05,8,6,"right",1,1,55,"S0020",1,0,"*",1,1329,-1
2007-02-05,8,6,"right",1,1,56,"S0010",1,0,"*",1,-1,1454
2007-02-05,8,6,"right",1,1,57,"S2000",1,0,"*",1,1467,-1
2007-02-05,8,6,"right",1,1,58,"S1000",1,0,"*",1,-1,1472
2007-02-05,8,6,"right",1,1,59,"S0001",1,0,"+",1,2019,2916
2007-02-05,8,6,"right",1,1,60,"S0002",1,0,"+",1,3365,909
2007-02-05,8,6,"right",1,1,61,"S0010",1,0,"*",1,-1,1338
2007-02-05,8,6,"right",1,1,62,"S0020",1,1,"*",2,830,-1
2007-02-05,8,6,"right",1,1,63,"S0100",1,1,"*",2,-1,738
2007-02-05,8,6,"right",1,1,64,"S0200",1,0,"*",1,1940,-1
2007-02-05,8,6,"right",1,2,1,"S0002",1,0,"*",1,1876,-1
2007-02-05,8,6,"right",1,2,2,"S2000",1,0,"*",1,1289,-1
2007-02-05,8,6,"right",1,2,3,"S0100",1,0,"+",1,1244,2299
2007-02-05,8,6,"right",1,2,4,"S1000",1,0,"*",1,-1,1693
2007-02-05,8,6,"right",1,2,5,"S0020",1,0,"*",1,3376,-1
2007-02-05,8,6,"right",1,2,6,"S0200",1,0,"*",1,1601,-1
2007-02-05,8,6,"right",1,2,7,"S0010",1,0,"*",1,-1,3730
2007-02-05,8,6,"right",1,2,8,"S0001",1,0,"+",1,1701,3438
2007-02-05,8,6,"right",1,2,9,"S2000",1,0,"*",1,1168,-1
2007-02-05,8,6,"right",1,2,10,"S0010",1,0,"*",1,-1,1175
2007-02-05,8,6,"right",1,2,11,"S0002",1,0,"*",1,1291,-1
2007-02-05,8,6,"right",1,2,12,"S0001",1,0,"*",1,-1,1502
2007-02-05,8,6,"right",1,2,13,"S0020",1,0,"+",1,3374,1912
2007-02-05,8,6,"right",1,2,14,"S1000",1,0,"*",1,-1,1091
2007-02-05,8,6,"right",1,2,15,"S0100",1,0,"*",1,-1,1060
2007-02-05,8,6,"right",1,2,16,"S0200",1,0,"*",1,1828,-1
2007-02-05,8,6,"right",1,2,17,"S1000",1,0,"*",1,-1,1139
2007-02-05,8,6,"right",1,2,18,"S0002",1,1,"*",2,992,-1
2007-02-05,8,6,"right",1,2,19,"S0020",1,0,"*",1,1486,-1
2007-02-05,8,6,"right",1,2,20,"S0010",1,0,"*",1,-1,3314
2007-02-05,8,6,"right",1,2,21,"S2000",1,0,"*",1,1581,-1
2007-02-05,8,6,"right",1,2,22,"S0001",1,0,"*",1,-1,1484
2007-02-05,8,6,"right",1,2,23,"S0100",1,0,"*",1,-1,2147
2007-02-05,8,6,"right",1,2,24,"S0200",1,1,"*",2,1006,-1
2007-02-05,8,6,"right",1,2,25,"S0020",1,1,"*",2,901,-1
2007-02-05,8,6,"right",1,2,26,"S1000",1,1,"*",2,-1,951
2007-02-05,8,6,"right",1,2,27,"S0010",1,0,"+",1,882,3919
2007-02-05,8,6,"right",1,2,28,"S0200",1,1,"*",2,928,-1
2007-02-05,8,6,"right",1,2,29,"S0100",1,0,"*",1,-1,1645
2007-02-05,8,6,"right",1,2,30,"S2000",1,0,"*",1,1910,-1
2007-02-05,8,6,"right",1,2,31,"S0002",1,0,"*",1,2174,-1
2007-02-05,8,6,"right",1,2,32,"S0001",1,0,"*",1,-1,1134
2007-02-05,8,6,"right",1,2,33,"S0100",1,0,"*",1,-1,1336
2007-02-05,8,6,"right",1,2,34,"S0002",1,0,"*",1,1105,-1
2007-02-05,8,6,"right",1,2,35,"S0001",1,1,"*",2,-1,947
2007-02-05,8,6,"right",1,2,36,"S2000",1,0,"*",1,1253,-1
2007-02-05,8,6,"right",1,2,37,"S0010",1,0,"*",1,-1,1541
2007-02-05,8,6,"right",1,2,38,"S1000",1,1,"*",2,-1,965
2007-02-05,8,6,"right",1,2,39,"S0020",1,0,"+",1,3369,2478
2007-02-05,8,6,"right",1,2,40,"S0200",1,0,"*",1,1023,-1
2007-02-05,8,6,"right",1,2,41,"S0010",1,0,"*",1,-1,1915
2007-02-05,8,6,"right",1,2,42,"S2000",1,1,"*",2,739,-1
2007-02-05,8,6,"right",1,2,43,"S0002",1,0,"*",1,1726,-1
2007-02-05,8,6,"right",1,2,44,"S1000",1,0,"*",1,-1,1248
2007-02-05,8,6,"right",1,2,45,"S0200",1,0,"*",1,1264,-1
2007-02-05,8,6,"right",1,2,46,"S0020",1,0,"*",1,1626,-1
2007-02-05,8,6,"right",1,2,47,"S0100",1,0,"*",1,-1,1143
2007-02-05,8,6,"right",1,2,48,"S0001",1,0,"*",1,-1,1433
2007-02-05,8,6,"right",1,2,49,"S2000",1,1,"*",2,1005,-1
2007-02-05,8,6,"right",1,2,50,"S0010",1,1,"*",2,-1,964
2007-02-05,8,6,"right",1,2,51,"S0002",1,1,"*",2,765,-1
2007-02-05,8,6,"right",1,2,52,"S0001",1,1,"*",2,-1,901
2007-02-05,8,6,"right",1,2,53,"S0200",1,1,"*",2,741,-1
2007-02-05,8,6,"right",1,2,54,"S0020",1,0,"*",1,2778,-1
2007-02-05,8,6,"right",1,2,55,"S0100",1,0,"*",1,-1,1888
2007-02-05,8,6,"right",1,2,56,"S1000",1,1,"*",2,-1,662
2007-02-05,8,6,"right",1,2,57,"S2000",1,1,"*",2,820,-1
2007-02-05,8,6,"right",1,2,58,"S0100",1,0,"*",1,-1,1136
2007-02-05,8,6,"right",1,2,59,"S0002",1,1,"*",2,776,-1
2007-02-05,8,6,"right",1,2,60,"S0001",1,1,"*",2,-1,679
2007-02-05,8,6,"right",1,2,61,"S0010",1,2,"*",3,-1,642
2007-02-05,8,6,"right",1,2,62,"S0200",1,0,"*",1,1786,-1
2007-02-05,8,6,"right",1,2,63,"S0020",1,0,"*",1,1657,-1
2007-02-05,8,6,"right",1,2,64,"S1000",1,0,"*",1,-1,1839
2007-02-05,8,6,"right",2,1,1,"S8760",1,0,"*",1,1943,-1
2007-02-05,8,6,"right",2,1,2,"S4320",1,0,"*",1,-1,1322
2007-02-05,8,6,"right",2,1,3,"S8760",1,0,"*",1,1464,-1
2007-02-05,8,6,"right",2,1,4,"S4320",1,0,"*",1,-1,1337
2007-02-05,8,6,"right",2,1,5,"S8760",1,0,"*",1,1869,-1
2007-02-05,8,6,"right",2,1,6,"S4320",1,0,"*",1,-1,1937
2007-02-05,8,6,"right",2,1,7,"S8760",1,0,"*",1,1785,-1
2007-02-05,8,6,"right",2,1,8,"S4320",1,0,"*",1,-1,1307
2007-02-05,8,6,"right",2,1,9,"S8760",1,0,"*",1,1769,-1
2007-02-05,8,6,"right",2,1,10,"S4320",1,0,"*",1,-1,1340
2007-02-05,8,6,"right",2,1,11,"S8760",1,0,"*",1,1626,-1
2007-02-05,8,6,"right",2,1,12,"S4320",1,0,"*",1,-1,1223
2007-02-05,8,6,"right",2,1,13,"S8760",1,0,"*",1,1216,-1
2007-02-05,8,6,"right",2,1,14,"S4320",1,0,"*",1,-1,1198
2007-02-05,8,6,"right",2,1,15,"S8760",1,0,"*",1,1278,-1
2007-02-05,8,6,"right",2,1,16,"S4320",1,1,"*",2,-1,843
2007-02-05,8,6,"right",2,1,17,"S8760",1,1,"*",2,994,-1
2007-02-05,8,6,"right",2,1,18,"S4320",1,0,"*",1,-1,1258
2007-02-05,8,6,"right",2,1,19,"S4320",1,0,"*",1,-1,1153
2007-02-05,8,6,"right",2,1,20,"S8760",1,0,"*",1,1402,-1
2007-02-05,8,6,"right",2,1,21,"S4320",1,0,"*",1,-1,1514
2007-02-05,8,6,"right",2,1,22,"S4320",1,1,"*",2,-1,989
2007-02-05,8,6,"right",2,1,23,"S8760",1,0,"*",1,1376,-1
2007-02-05,8,6,"right",2,1,24,"S8760",1,0,"*",1,1383,-1
2007-02-05,8,6,"right",2,1,25,"S4320",1,0,"*",1,-1,1346
2007-02-05,8,6,"right",2,1,26,"S4320",1,0,"*",1,-1,1171
2007-02-05,8,6,"right",2,1,27,"S8760",1,0,"*",1,1496,-1
2007-02-05,8,6,"right",2,1,28,"S8760",1,0,"+",1,2238,1235
2007-02-05,8,6,"right",2,1,29,"S4320",1,1,"*",2,-1,933
2007-02-05,8,6,"right",2,1,30,"S4320",1,0,"*",1,-1,1111
2007-02-05,8,6,"right",2,1,31,"S8760",1,1,"*",2,782,-1
2007-02-05,8,6,"right",2,1,32,"S8760",1,0,"*",1,1488,-1
2007-02-05,8,6,"right",3,1,1,"S4320",1,1,"*",2,-1,744
2007-02-05,8,6,"right",3,1,2,"S8760",1,1,"*",2,801,-1
2007-02-05,8,6,"right",3,1,3,"S4320",1,2,"*",3,-1,680
2007-02-05,8,6,"right",3,1,4,"S4320",1,1,"*",2,-1,869
2007-02-05,8,6,"right",3,1,5,"S8760",1,0,"*",1,1447,-1
2007-02-05,8,6,"right",3,1,6,"S8760",1,0,"*",1,1365,-1
2007-02-05,8,6,"right",3,1,7,"S4320",1,0,"*",1,-1,1445
2007-02-05,8,6,"right",3,1,8,"S8760",1,0,"*",1,1833,-1
2007-02-05,8,6,"right",3,1,9,"S4320",1,0,"*",1,-1,2227
2007-02-05,8,6,"right",3,1,10,"S8760",1,0,"*",1,1346,-1
2007-02-05,8,6,"right",3,1,11,"S4320",1,0,"*",1,-1,1948
2007-02-05,8,6,"right",3,1,12,"S8760",1,0,"*",1,1094,-1
2007-02-05,8,6,"right",3,1,13,"S8760",1,0,"*",1,1700,-1
2007-02-05,8,6,"right",3,1,14,"S4320",1,0,"*",1,-1,1366
2007-02-05,8,6,"right",3,1,15,"S8760",1,0,"*",1,1694,-1
2007-02-05,8,6,"right",3,1,16,"S4320",1,0,"*",1,-1,1215
2007-02-05,8,6,"right",3,1,17,"S4320",1,1,"*",2,-1,887
2007-02-05,8,6,"right",3,1,18,"S8760",1,0,"*",1,2308,-1
2007-02-05,8,6,"right",3,1,19,"S8760",1,0,"*",1,4096,-1
2007-02-05,8,6,"right",3,1,20,"S4320",1,0,"*",1,-1,1798
2007-02-05,8,6,"right",3,2,1,"S4320",1,0,"*",1,-1,1452
2007-02-05,8,6,"right",3,2,2,"S4320",1,0,"*",1,-1,1567
2007-02-05,8,6,"right",3,2,3,"S4720",1,0,"L",1,1586,-1
2007-02-05,8,6,"right",3,2,4,"S8760",1,0,"*",1,1058,-1
2007-02-05,8,6,"right",3,2,5,"S8360",1,0,"L",1,1198,-1
2007-02-05,8,6,"right",3,2,6,"S8760",1,0,"*",1,1035,-1
2007-02-05,8,6,"right",3,2,7,"S4320",1,2,"*",3,-1,765
2007-02-05,8,6,"right",3,2,8,"S4360",1,0,"R",1,-1,1323
2007-02-05,8,6,"right",3,2,9,"S4320",1,0,"*",1,-1,1153
2007-02-05,8,6,"right",3,2,10,"S4320",1,0,"R",1,-1,1244
2007-02-05,8,6,"right",3,2,11,"S8760",1,0,"*",1,1219,-1
2007-02-05,8,6,"right",3,2,12,"S4320",1,0,"*",1,-1,1126
2007-02-05,8,6,"right",3,2,13,"S8760",1,0,"*",1,1028,-1
2007-02-05,8,6,"right",3,2,14,"S8760",1,1,"*",2,846,-1
2007-02-05,8,6,"right",3,2,15,"S4320",1,0,"*",1,-1,1726
2007-02-05,8,6,"right",3,2,16,"S8360",1,0,"L",1,2663,-1
2007-02-05,8,6,"right",3,2,17,"S4320",1,0,"*",1,-1,1359
2007-02-05,8,6,"right",3,2,18,"S8320",1,0,"R",1,-1,2559
2007-02-05,8,6,"right",3,2,19,"S4320",1,1,"*",2,-1,848
2007-02-05,8,6,"right",3,2,20,"S8760",1,0,"L",1,1505,-1
2007-02-05,8,6,"right",3,2,21,"S4320",1,0,"*",1,-1,1481
2007-02-05,8,6,"right",3,2,22,"S8760",1,0,"L",1,910,-1
2007-02-05,8,6,"right",3,2,23,"S8760",1,1,"*",2,784,-1
2007-02-05,8,6,"right",3,2,24,"S4760",1,0,"L",1,2024,-1
2007-02-05,8,6,"right",3,2,25,"S8760",1,0,"*",1,1036,-1
