DAU,Participant,Condition,Block,SubBlock,Trial,StimulusNo,Length,Orientation,Category,Difficulty,Response,Correct,RT
PLY42,42102,EasyAll,1,1,1,3,87.947,221.56,0,Easy,90,1,2502.8
PLY42,42102,EasyAll,1,1,2,2,56.474,189.87,0,Easy,90,1,3425.1
PLY42,42102,EasyAll,1,1,3,29,252.16,120.1,1,Easy,90,0,1260.5
PLY42,42102,EasyAll,1,1,4,1,25,158.15,0,Easy,191,0,780.26
PLY42,42102,EasyAll,1,1,5,30,285,151.82,1,Easy,90,0,835.2
PLY42,42102,EasyAll,1,1,6,29,252.16,120.1,1,Easy,191,1,455
PLY42,42102,EasyAll,1,1,7,29,252.16,120.1,1,Easy,191,1,950.2
PLY42,42102,EasyAll,1,1,8,4,119.42,253.28,0,Easy,90,1,1790.5
PLY42,42102,EasyAll,1,1,9,1,25,158.15,0,Easy,90,1,1191.4
PLY42,42102,EasyAll,1,1,10,3,87.947,221.56,0,Easy,90,1,1435.3
PLY42,42102,EasyAll,1,1,11,28,220.68,88.411,1,Easy,191,1,735.2
PLY42,42102,EasyAll,1,1,12,2,56.474,189.87,0,Easy,90,1,480
PLY42,42102,EasyAll,1,1,13,29,252.16,120.1,1,Easy,191,1,450.92
PLY42,42102,EasyAll,1,1,14,1,25,158.15,0,Easy,90,1,416.13
PLY42,42102,EasyAll,1,1,15,26,157.74,25,1,Easy,191,1,565.57
PLY42,42102,EasyAll,1,1,16,1,25,158.15,0,Easy,90,1,436.21
PLY42,42102,EasyAll,1,1,17,3,87.947,221.56,0,Easy,90,1,1081.1
PLY42,42102,EasyAll,1,1,18,4,119.42,253.28,0,Easy,90,1,1320.9
PLY42,42102,EasyAll,1,1,19,26,157.74,25,1,Easy,191,1,626.21
PLY42,42102,EasyAll,1,1,20,4,119.42,253.28,0,Easy,191,0,1230.3
PLY42,42102,EasyAll,1,1,21,5,150.89,285,0,Easy,191,0,1901.3
PLY42,42102,EasyAll,1,1,22,26,157.74,25,1,Easy,191,1,430.54
PLY42,42102,EasyAll,1,1,23,5,150.89,285,0,Easy,90,1,1210.4
PLY42,42102,EasyAll,1,1,24,29,252.16,120.1,1,Easy,191,1,530.92
PLY42,42102,EasyAll,1,1,25,2,56.474,189.87,0,Easy,90,1,495.74
PLY42,42102,EasyAll,1,1,26,29,252.16,120.1,1,Easy,191,1,1786
PLY42,42102,EasyAll,1,1,27,4,119.42,253.28,0,Easy,90,1,1061
PLY42,42102,EasyAll,1,1,28,2,56.474,189.87,0,Easy,90,1,375.43
PLY42,42102,EasyAll,1,1,29,5,150.89,285,0,Easy,90,1,805.35
PLY42,42102,EasyAll,1,1,30,4,119.42,253.28,0,Easy,90,1,480.53
PLY42,42102,EasyAll,1,1,31,30,285,151.82,1,Easy,191,1,415.45
PLY42,42102,EasyAll,1,1,32,30,285,151.82,1,Easy,191,1,250
PLY42,42102,EasyAll,1,1,33,28,220.68,88.411,1,Easy,191,1,425.95
PLY42,42102,EasyAll,1,1,34,29,252.16,120.1,1,Easy,191,1,421.09
PLY42,42102,EasyAll,1,1,35,30,285,151.82,1,Easy,191,1,335.44
PLY42,42102,EasyAll,1,1,36,28,220.68,88.411,1,Easy,191,1,355.28
PLY42,42102,EasyAll,1,1,37,2,56.474,189.87,0,Easy,90,1,360.46
PLY42,42102,EasyAll,1,1,38,5,150.89,285,0,Easy,90,1,815.97
PLY42,42102,EasyAll,1,1,39,27,189.21,56.691,1,Easy,191,1,420.51
PLY42,42102,EasyAll,1,1,40,28,220.68,88.411,1,Easy,191,1,410.13
PLY42,42102,EasyAll,1,1,41,27,189.21,56.691,1,Easy,191,1,320.58
PLY42,42102,EasyAll,1,1,42,27,189.21,56.691,1,Easy,191,1,355.05
PLY42,42102,EasyAll,1,1,43,2,56.474,189.87,0,Easy,90,1,425.27
PLY42,42102,EasyAll,1,1,44,30,285,151.82,1,Easy,191,1,886.15
PLY42,42102,EasyAll,1,1,45,29,252.16,120.1,1,Easy,191,1,216
PLY42,42102,EasyAll,1,1,46,1,25,158.15,0,Easy,90,1,335.54
PLY42,42102,EasyAll,1,1,47,30,285,151.82,1,Easy,191,1,185.3
PLY42,42102,EasyAll,1,1,48,5,150.89,285,0,Easy,90,1,725.21
PLY42,42102,EasyAll,1,1,49,4,119.42,253.28,0,Easy,90,1,455.03
PLY42,42102,EasyAll,1,1,50,4,119.42,253.28,0,Easy,90,1,265.23
PLY42,42102,EasyAll,1,2,51,30,285,151.82,1,Easy,191,1,335.75
PLY42,42102,EasyAll,1,2,52,27,189.21,56.691,1,Easy,191,1,300.55
PLY42,42102,EasyAll,1,2,53,3,87.947,221.56,0,Easy,90,1,560.77
PLY42,42102,EasyAll,1,2,54,4,119.42,253.28,0,Easy,90,1,290.3
PLY42,42102,EasyAll,1,2,55,26,157.74,25,1,Easy,90,0,796.19
PLY42,42102,EasyAll,1,2,56,28,220.68,88.411,1,Easy,191,1,375.3
PLY42,42102,EasyAll,1,2,57,28,220.68,88.411,1,Easy,191,1,350.2
PLY42,42102,EasyAll,1,2,58,29,252.16,120.1,1,Easy,191,1,305.32
PLY42,42102,EasyAll,1,2,59,1,25,158.15,0,Easy,90,1,385.58
PLY42,42102,EasyAll,1,2,60,27,189.21,56.691,1,Easy,191,1,505.4
PLY42,42102,EasyAll,1,2,61,4,119.42,253.28,0,Easy,90,1,595.55
PLY42,42102,EasyAll,1,2,62,1,25,158.15,0,Easy,90,1,360.84
PLY42,42102,EasyAll,1,2,63,3,87.947,221.56,0,Easy,90,1,345.23
PLY42,42102,EasyAll,1,2,64,1,25,158.15,0,Easy,90,1,285.44
PLY42,42102,EasyAll,1,2,65,30,285,151.82,1,Easy,191,1,330.25
PLY42,42102,EasyAll,1,2,66,30,285,151.82,1,Easy,191,1,260.17
PLY42,42102,EasyAll,1,2,67,2,56.474,189.87,0,Easy,90,1,415.66
PLY42,42102,EasyAll,1,2,68,5,150.89,285,0,Easy,90,1,780.21
PLY42,42102,EasyAll,1,2,69,2,56.474,189.87,0,Easy,90,1,956.08
PLY42,42102,EasyAll,1,2,70,4,119.42,253.28,0,Easy,90,1,330.21
PLY42,42102,EasyAll,1,2,71,3,87.947,221.56,0,Easy,90,1,480.9
PLY42,42102,EasyAll,1,2,72,30,285,151.82,1,Easy,191,1,370.97
PLY42,42102,EasyAll,1,2,73,5,150.89,285,0,Easy,90,1,1070.5
PLY42,42102,EasyAll,1,2,74,29,252.16,120.1,1,Easy,191,1,256.07
PLY42,42102,EasyAll,1,2,75,29,252.16,120.1,1,Easy,191,1,10.987
PLY42,42102,EasyAll,1,2,76,4,119.42,253.28,0,Easy,191,0,1995.4
PLY42,42102,EasyAll,1,2,77,26,157.74,25,1,Easy,90,0,1590.7
PLY42,42102,EasyAll,1,2,78,27,189.21,56.691,1,Easy,191,1,405.57
PLY42,42102,EasyAll,1,2,79,27,189.21,56.691,1,Easy,191,1,1125.8
PLY42,42102,EasyAll,1,2,80,28,220.68,88.411,1,Easy,191,1,1725.7
PLY42,42102,EasyAll,1,2,81,2,56.474,189.87,0,Easy,90,1,390.6
PLY42,42102,EasyAll,1,2,82,29,252.16,120.1,1,Easy,191,1,365.46
PLY42,42102,EasyAll,1,2,83,26,157.74,25,1,Easy,90,0,1036
PLY42,42102,EasyAll,1,2,84,27,189.21,56.691,1,Easy,90,0,2095.9
PLY42,42102,EasyAll,1,2,85,26,157.74,25,1,Easy,90,0,1020.2
PLY42,42102,EasyAll,1,2,86,3,87.947,221.56,0,Easy,90,1,400.73
PLY42,42102,EasyAll,1,2,87,30,285,151.82,1,Easy,191,1,255.9
PLY42,42102,EasyAll,1,2,88,27,189.21,56.691,1,Easy,191,1,256.07
PLY42,42102,EasyAll,1,2,89,27,189.21,56.691,1,Easy,191,1,310.23
PLY42,42102,EasyAll,1,2,90,4,119.42,253.28,0,Easy,90,1,535.77
PLY42,42102,EasyAll,1,2,91,30,285,151.82,1,Easy,191,1,305.59
PLY42,42102,EasyAll,1,2,92,27,189.21,56.691,1,Easy,191,1,375.69
PLY42,42102,EasyAll,1,2,93,26,157.74,25,1,Easy,191,1,400.69
PLY42,42102,EasyAll,1,2,94,27,189.21,56.691,1,Easy,191,1,365.82
PLY42,42102,EasyAll,1,2,95,28,220.68,88.411,1,Easy,191,1,240.35
PLY42,42102,EasyAll,1,2,96,3,87.947,221.56,0,Easy,90,1,385.15
PLY42,42102,EasyAll,1,2,97,2,56.474,189.87,0,Easy,90,1,474.97
PLY42,42102,EasyAll,1,2,98,26,157.74,25,1,Easy,191,1,525.84
PLY42,42102,EasyAll,1,2,99,26,157.74,25,1,Easy,191,1,715.73
PLY42,42102,EasyAll,1,2,100,29,252.16,120.1,1,Easy,191,1,380.21
PLY42,42102,EasyAll,1,3,101,5,150.89,285,0,Easy,191,0,1626.9
PLY42,42102,EasyAll,1,3,102,5,150.89,285,0,Easy,90,1,411.06
PLY42,42102,EasyAll,1,3,103,2,56.474,189.87,0,Easy,90,1,1140.6
PLY42,42102,EasyAll,1,3,104,3,87.947,221.56,0,Easy,90,1,1445.5
PLY42,42102,EasyAll,1,3,105,28,220.68,88.411,1,Easy,191,1,345.74
PLY42,42102,EasyAll,1,3,106,3,87.947,221.56,0,Easy,90,1,1155.9
PLY42,42102,EasyAll,1,3,107,30,285,151.82,1,Easy,191,1,290.16
PLY42,42102,EasyAll,1,3,108,4,119.42,253.28,0,Easy,90,1,379.94
PLY42,42102,EasyAll,1,3,109,3,87.947,221.56,0,Easy,90,1,630.86
PLY42,42102,EasyAll,1,3,110,30,285,151.82,1,Easy,191,1,360.68
PLY42,42102,EasyAll,1,3,111,27,189.21,56.691,1,Easy,191,1,415.16
PLY42,42102,EasyAll,1,3,112,1,25,158.15,0,Easy,90,1,335.7
PLY42,42102,EasyAll,1,3,113,28,220.68,88.411,1,Easy,191,1,310.59
PLY42,42102,EasyAll,1,3,114,26,157.74,25,1,Easy,191,1,801.13
PLY42,42102,EasyAll,1,3,115,1,25,158.15,0,Easy,90,1,325.21
PLY42,42102,EasyAll,1,3,116,1,25,158.15,0,Easy,90,1,460.94
PLY42,42102,EasyAll,1,3,117,4,119.42,253.28,0,Easy,90,1,415.58
PLY42,42102,EasyAll,1,3,118,28,220.68,88.411,1,Easy,191,1,96.172
PLY42,42102,EasyAll,1,3,119,26,157.74,25,1,Easy,191,1,440.33
PLY42,42102,EasyAll,1,3,120,5,150.89,285,0,Easy,191,0,456.17
PLY42,42102,EasyAll,1,3,121,28,220.68,88.411,1,Easy,191,1,1240.4
PLY42,42102,EasyAll,1,3,122,1,25,158.15,0,Easy,90,1,245.21
PLY42,42102,EasyAll,1,3,123,28,220.68,88.411,1,Easy,191,1,180.39
PLY42,42102,EasyAll,1,3,124,5,150.89,285,0,Easy,90,1,2170.3
PLY42,42102,EasyAll,1,3,125,3,87.947,221.56,0,Easy,90,1,680.9
PLY42,42102,EasyAll,1,3,126,29,252.16,120.1,1,Easy,191,1,275.75
PLY42,42102,EasyAll,1,3,127,27,189.21,56.691,1,Easy,191,1,235.64
PLY42,42102,EasyAll,1,3,128,26,157.74,25,1,Easy,191,1,440.43
PLY42,42102,EasyAll,1,3,129,5,150.89,285,0,Easy,90,1,665.29
PLY42,42102,EasyAll,1,3,130,26,157.74,25,1,Easy,191,1,345.85
PLY42,42102,EasyAll,1,3,131,2,56.474,189.87,0,Easy,90,1,275
PLY42,42102,EasyAll,1,3,132,2,56.474,189.87,0,Easy,90,1,230.56
PLY42,42102,EasyAll,1,3,133,5,150.89,285,0,Easy,191,0,545.32
PLY42,42102,EasyAll,1,3,134,3,87.947,221.56,0,Easy,191,0,640.55
PLY42,42102,EasyAll,1,3,135,5,150.89,285,0,Easy,90,1,855.48
PLY42,42102,EasyAll,1,3,136,29,252.16,120.1,1,Easy,191,1,325.64
PLY42,42102,EasyAll,1,3,137,26,157.74,25,1,Easy,191,1,585.9
PLY42,42102,EasyAll,1,3,138,28,220.68,88.411,1,Easy,191,1,115.29
PLY42,42102,EasyAll,1,3,139,1,25,158.15,0,Easy,90,1,490.87
PLY42,42102,EasyAll,1,3,140,1,25,158.15,0,Easy,90,1,175.6
PLY42,42102,EasyAll,1,3,141,3,87.947,221.56,0,Easy,90,1,420.52
PLY42,42102,EasyAll,1,3,142,5,150.89,285,0,Easy,90,1,356.05
PLY42,42102,EasyAll,1,3,143,2,56.474,189.87,0,Easy,90,1,260.23
PLY42,42102,EasyAll,1,3,144,28,220.68,88.411,1,Easy,191,1,500.8
PLY42,42102,EasyAll,1,3,145,1,25,158.15,0,Easy,90,1,270.92
PLY42,42102,EasyAll,1,3,146,4,119.42,253.28,0,Easy,90,1,305.45
PLY42,42102,EasyAll,1,3,147,27,189.21,56.691,1,Easy,191,1,245.61
PLY42,42102,EasyAll,1,3,148,3,87.947,221.56,0,Easy,90,1,520.81
PLY42,42102,EasyAll,1,3,149,2,56.474,189.87,0,Easy,90,1,265.28
PLY42,42102,EasyAll,1,3,150,30,285,151.82,1,Easy,191,1,165.88
PLY42,42102,EasyAll,2,1,151,22,167.32,78.878,1,Medium,191,1,1895.3
PLY42,42102,EasyAll,2,1,152,6,46.895,135.96,0,Medium,90,1,185.42
PLY42,42102,EasyAll,2,1,153,1,25,158.15,0,Easy,90,1,135.24
PLY42,42102,EasyAll,2,1,154,18,176.89,132.78,1,Hard,191,1,101.15
PLY42,42102,EasyAll,2,1,155,15,196.05,240.6,0,Hard,191,0,505.27
PLY42,42102,EasyAll,2,1,156,9,141.32,231.09,0,Medium,191,0,105.42
PLY42,42102,EasyAll,2,1,157,14,163.21,208.88,0,Hard,90,1,0.33464
PLY42,42102,EasyAll,2,1,158,28,220.68,88.411,1,Easy,191,1,90.744
PLY42,42102,EasyAll,2,1,159,3,87.947,221.56,0,Easy,90,1,205.6
PLY42,42102,EasyAll,2,1,160,11,68.789,113.78,0,Hard,90,1,385.79
PLY42,42102,EasyAll,2,1,161,9,141.32,231.09,0,Medium,191,0,440.55
PLY42,42102,EasyAll,2,1,162,25,261.74,174.01,1,Medium,191,1,15.134
PLY42,42102,EasyAll,2,1,163,5,150.89,285,0,Easy,90,1,1116
PLY42,42102,EasyAll,2,1,164,26,157.74,25,1,Easy,191,1,550.51
PLY42,42102,EasyAll,2,1,165,19,208.37,164.5,1,Hard,191,1,171.5
PLY42,42102,EasyAll,2,1,166,1,25,158.15,0,Easy,90,1,106.49
PLY42,42102,EasyAll,2,1,167,8,109.84,199.37,0,Medium,90,1,445.42
PLY42,42102,EasyAll,2,1,168,17,145.42,101.09,1,Hard,90,0,730.61
PLY42,42102,EasyAll,2,1,169,10,172.79,262.78,0,Medium,191,0,0.35361
PLY42,42102,EasyAll,2,1,170,4,119.42,253.28,0,Easy,90,1,415.67
PLY42,42102,EasyAll,2,1,171,6,46.895,135.96,0,Medium,90,1,356.92
PLY42,42102,EasyAll,2,1,172,24,230.26,142.32,1,Medium,191,1,120.3
PLY42,42102,EasyAll,2,1,173,28,220.68,88.411,1,Easy,191,1,55.805
PLY42,42102,EasyAll,2,1,174,26,157.74,25,1,Easy,191,1,340.98
PLY42,42102,EasyAll,2,1,175,3,87.947,221.56,0,Easy,90,1,195.81
PLY42,42102,EasyAll,2,1,176,22,167.32,78.878,1,Medium,191,1,130.97
PLY42,42102,EasyAll,2,1,177,26,157.74,25,1,Easy,191,1,220.82
PLY42,42102,EasyAll,2,1,178,6,46.895,135.96,0,Medium,90,1,30.308
PLY42,42102,EasyAll,2,1,179,27,189.21,56.691,1,Easy,191,1,141.19
PLY42,42102,EasyAll,2,1,180,4,119.42,253.28,0,Easy,90,1,155.97
PLY42,42102,EasyAll,2,1,181,19,208.37,164.5,1,Hard,191,1,240.15
PLY42,42102,EasyAll,2,1,182,1,25,158.15,0,Easy,90,1,115.99
PLY42,42102,EasyAll,2,1,183,21,135.84,47.187,1,Medium,191,1,90.466
PLY42,42102,EasyAll,2,1,184,11,68.789,113.78,0,Hard,90,1,270.29
PLY42,42102,EasyAll,2,1,185,11,68.789,113.78,0,Hard,90,1,305.81
PLY42,42102,EasyAll,2,1,186,2,56.474,189.87,0,Easy,90,1,0.33246
PLY42,42102,EasyAll,2,1,187,3,87.947,221.56,0,Easy,90,1,51.198
PLY42,42102,EasyAll,2,1,188,30,285,151.82,1,Easy,191,1,120.26
PLY42,42102,EasyAll,2,1,189,5,150.89,285,0,Easy,90,1,790.87
PLY42,42102,EasyAll,2,1,190,1,25,158.15,0,Easy,90,1,300.73
PLY42,42102,EasyAll,2,1,191,19,208.37,164.5,1,Hard,191,1,85.754
PLY42,42102,EasyAll,2,1,192,20,239.84,196.2,1,Hard,191,1,40.691
PLY42,42102,EasyAll,2,1,193,20,239.84,196.2,1,Hard,191,1,30.472
PLY42,42102,EasyAll,2,1,194,10,172.79,262.78,0,Medium,90,1,275.34
PLY42,42102,EasyAll,2,1,195,2,56.474,189.87,0,Easy,90,1,320.18
PLY42,42102,EasyAll,2,1,196,29,252.16,120.1,1,Easy,191,1,105.74
PLY42,42102,EasyAll,2,1,197,17,145.42,101.09,1,Hard,191,1,80.87
PLY42,42102,EasyAll,2,1,198,23,198.79,110.6,1,Medium,191,1,0.5853
PLY42,42102,EasyAll,2,1,199,18,176.89,132.78,1,Hard,191,1,0.68389
PLY42,42102,EasyAll,2,1,200,5,150.89,285,0,Easy,90,1,119.96
PLY42,42102,EasyAll,2,2,201,23,198.79,110.6,1,Medium,191,1,0.68451
PLY42,42102,EasyAll,2,2,202,16,112.58,69.373,1,Hard,90,0,375.67
PLY42,42102,EasyAll,2,2,203,1,25,158.15,0,Easy,90,1,285.56
PLY42,42102,EasyAll,2,2,204,13,131.74,177.19,0,Hard,90,1,515.31
PLY42,42102,EasyAll,2,2,205,13,131.74,177.19,0,Hard,191,0,425.89
PLY42,42102,EasyAll,2,2,206,2,56.474,189.87,0,Easy,90,1,160.75
PLY42,42102,EasyAll,2,2,207,16,112.58,69.373,1,Hard,90,0,380.45
PLY42,42102,EasyAll,2,2,208,15,196.05,240.6,0,Hard,191,0,381.12
PLY42,42102,EasyAll,2,2,209,6,46.895,135.96,0,Medium,90,1,465.88
PLY42,42102,EasyAll,2,2,210,18,176.89,132.78,1,Hard,191,1,225.39
PLY42,42102,EasyAll,2,2,211,8,109.84,199.37,0,Medium,90,1,341.24
PLY42,42102,EasyAll,2,2,212,27,189.21,56.691,1,Easy,191,1,240.28
PLY42,42102,EasyAll,2,2,213,21,135.84,47.187,1,Medium,191,1,315.66
PLY42,42102,EasyAll,2,2,214,25,261.74,174.01,1,Medium,191,1,75.517
PLY42,42102,EasyAll,2,2,215,7,78.368,167.68,0,Medium,191,0,65.281
PLY42,42102,EasyAll,2,2,216,11,68.789,113.78,0,Hard,90,1,420.85
PLY42,42102,EasyAll,2,2,217,23,198.79,110.6,1,Medium,191,1,265.82
PLY42,42102,EasyAll,2,2,218,4,119.42,253.28,0,Easy,90,1,335.85
PLY42,42102,EasyAll,2,2,219,16,112.58,69.373,1,Hard,90,0,465.65
PLY42,42102,EasyAll,2,2,220,2,56.474,189.87,0,Easy,90,1,196.19
PLY42,42102,EasyAll,2,2,221,26,157.74,25,1,Easy,191,1,325.34
PLY42,42102,EasyAll,2,2,222,7,78.368,167.68,0,Medium,90,1,421.23
PLY42,42102,EasyAll,2,2,223,20,239.84,196.2,1,Hard,191,1,215.75
PLY42,42102,EasyAll,2,2,224,24,230.26,142.32,1,Medium,191,1,15.029
PLY42,42102,EasyAll,2,2,225,28,220.68,88.411,1,Easy,191,1,0.39777
PLY42,42102,EasyAll,2,2,226,8,109.84,199.37,0,Medium,90,1,130.86
PLY42,42102,EasyAll,2,2,227,26,157.74,25,1,Easy,191,1,35.643
PLY42,42102,EasyAll,2,2,228,27,189.21,56.691,1,Easy,191,1,0.38409
PLY42,42102,EasyAll,2,2,229,5,150.89,285,0,Easy,90,1,260.72
PLY42,42102,EasyAll,2,2,230,19,208.37,164.5,1,Hard,191,1,80.207
PLY42,42102,EasyAll,2,2,231,24,230.26,142.32,1,Medium,191,1,0.65746
PLY42,42102,EasyAll,2,2,232,14,163.21,208.88,0,Hard,191,0,0.33433
PLY42,42102,EasyAll,2,2,233,27,189.21,56.691,1,Easy,191,1,95.325
PLY42,42102,EasyAll,2,2,234,17,145.42,101.09,1,Hard,191,1,0.35734
PLY42,42102,EasyAll,2,2,235,25,261.74,174.01,1,Medium,191,1,85.71
PLY42,42102,EasyAll,2,2,236,2,56.474,189.87,0,Easy,90,1,145.46
PLY42,42102,EasyAll,2,2,237,12,100.26,145.47,0,Hard,90,1,90.674
PLY42,42102,EasyAll,2,2,238,8,109.84,199.37,0,Medium,191,0,30.436
PLY42,42102,EasyAll,2,2,239,22,167.32,78.878,1,Medium,191,1,265.34
PLY42,42102,EasyAll,2,2,240,8,109.84,199.37,0,Medium,90,1,0.48951
PLY42,42102,EasyAll,2,2,241,22,167.32,78.878,1,Medium,90,0,0.32935
PLY42,42102,EasyAll,2,2,242,14,163.21,208.88,0,Hard,191,0,0.64937
PLY42,42102,EasyAll,2,2,243,3,87.947,221.56,0,Easy,90,1,30.114
PLY42,42102,EasyAll,2,2,244,20,239.84,196.2,1,Hard,191,1,25.102
PLY42,42102,EasyAll,2,2,245,29,252.16,120.1,1,Easy,191,1,70.598
PLY42,42102,EasyAll,2,2,246,7,78.368,167.68,0,Medium,90,1,0.37631
PLY42,42102,EasyAll,2,2,247,30,285,151.82,1,Easy,191,1,0.33215
PLY42,42102,EasyAll,2,2,248,30,285,151.82,1,Easy,191,1,15.434
PLY42,42102,EasyAll,2,2,249,23,198.79,110.6,1,Medium,191,1,45.898
PLY42,42102,EasyAll,2,2,250,20,239.84,196.2,1,Hard,191,1,0.32531
PLY42,42102,EasyAll,2,3,251,12,100.26,145.47,0,Hard,90,1,30.237
PLY42,42102,EasyAll,2,3,252,7,78.368,167.68,0,Medium,90,1,76.114
PLY42,42102,EasyAll,2,3,253,7,78.368,167.68,0,Medium,90,1,0.35236
PLY42,42102,EasyAll,2,3,254,28,220.68,88.411,1,Easy,191,1,236.08
PLY42,42102,EasyAll,2,3,255,18,176.89,132.78,1,Hard,90,0,450.86
PLY42,42102,EasyAll,2,3,256,4,119.42,253.28,0,Easy,90,1,445.11
PLY42,42102,EasyAll,2,3,257,25,261.74,174.01,1,Medium,191,1,0.6842
PLY42,42102,EasyAll,2,3,258,28,220.68,88.411,1,Easy,191,1,0.32375
PLY42,42102,EasyAll,2,3,259,10,172.79,262.78,0,Medium,90,1,540.58
PLY42,42102,EasyAll,2,3,260,3,87.947,221.56,0,Easy,90,1,190.44
PLY42,42102,EasyAll,2,3,261,17,145.42,101.09,1,Hard,191,1,75.193
PLY42,42102,EasyAll,2,3,262,18,176.89,132.78,1,Hard,191,1,96.163
PLY42,42102,EasyAll,2,3,263,19,208.37,164.5,1,Hard,191,1,146.27
PLY42,42102,EasyAll,2,3,264,23,198.79,110.6,1,Medium,191,1,55.356
PLY42,42102,EasyAll,2,3,265,14,163.21,208.88,0,Hard,191,0,390.61
PLY42,42102,EasyAll,2,3,266,9,141.32,231.09,0,Medium,90,1,700.45
PLY42,42102,EasyAll,2,3,267,30,285,151.82,1,Easy,191,1,215.57
PLY42,42102,EasyAll,2,3,268,25,261.74,174.01,1,Medium,191,1,0.4015
PLY42,42102,EasyAll,2,3,269,16,112.58,69.373,1,Hard,90,0,330.31
PLY42,42102,EasyAll,2,3,270,12,100.26,145.47,0,Hard,90,1,370.19
PLY42,42102,EasyAll,2,3,271,29,252.16,120.1,1,Easy,191,1,105.66
PLY42,42102,EasyAll,2,3,272,14,163.21,208.88,0,Hard,90,1,1380.9
PLY42,42102,EasyAll,2,3,273,4,119.42,253.28,0,Easy,90,1,440.77
PLY42,42102,EasyAll,2,3,274,29,252.16,120.1,1,Easy,191,1,85.567
PLY42,42102,EasyAll,2,3,275,12,100.26,145.47,0,Hard,90,1,295.44
PLY42,42102,EasyAll,2,3,276,12,100.26,145.47,0,Hard,90,1,210.59
PLY42,42102,EasyAll,2,3,277,17,145.42,101.09,1,Hard,90,0,320.09
PLY42,42102,EasyAll,2,3,278,30,285,151.82,1,Easy,191,1,105.61
PLY42,42102,EasyAll,2,3,279,15,196.05,240.6,0,Hard,191,0,265.74
PLY42,42102,EasyAll,2,3,280,11,68.789,113.78,0,Hard,90,1,225.26
PLY42,42102,EasyAll,2,3,281,10,172.79,262.78,0,Medium,90,1,540.18
PLY42,42102,EasyAll,2,3,282,13,131.74,177.19,0,Hard,191,0,435.98
PLY42,42102,EasyAll,2,3,283,13,131.74,177.19,0,Hard,90,1,320.87
PLY42,42102,EasyAll,2,3,284,21,135.84,47.187,1,Medium,191,1,500.32
PLY42,42102,EasyAll,2,3,285,9,141.32,231.09,0,Medium,90,1,30.304
PLY42,42102,EasyAll,2,3,286,24,230.26,142.32,1,Medium,191,1,240.32
PLY42,42102,EasyAll,2,3,287,10,172.79,262.78,0,Medium,90,1,471.25
PLY42,42102,EasyAll,2,3,288,5,150.89,285,0,Easy,90,1,240.74
PLY42,42102,EasyAll,2,3,289,15,196.05,240.6,0,Hard,191,0,405.6
PLY42,42102,EasyAll,2,3,290,13,131.74,177.19,0,Hard,90,1,330.77
PLY42,42102,EasyAll,2,3,291,21,135.84,47.187,1,Medium,191,1,330.53
PLY42,42102,EasyAll,2,3,292,29,252.16,120.1,1,Easy,191,1,150.47
PLY42,42102,EasyAll,2,3,293,22,167.32,78.878,1,Medium,191,1,0.68389
PLY42,42102,EasyAll,2,3,294,21,135.84,47.187,1,Medium,191,1,0.41612
PLY42,42102,EasyAll,2,3,295,24,230.26,142.32,1,Medium,191,1,25.736
PLY42,42102,EasyAll,2,3,296,27,189.21,56.691,1,Easy,191,1,60.335
PLY42,42102,EasyAll,2,3,297,9,141.32,231.09,0,Medium,191,0,0.33557
PLY42,42102,EasyAll,2,3,298,16,112.58,69.373,1,Hard,191,1,246.05
PLY42,42102,EasyAll,2,3,299,6,46.895,135.96,0,Medium,90,1,70.24
PLY42,42102,EasyAll,2,3,300,15,196.05,240.6,0,Hard,191,0,110.76
PLY42,42104,EasyAll,1,1,1,29,252.16,120.1,1,Easy,90,0,4222.7
PLY42,42104,EasyAll,1,1,2,28,220.68,88.411,1,Easy,191,1,1115.4
PLY42,42104,EasyAll,1,1,3,28,220.68,88.411,1,Easy,191,1,915.81
PLY42,42104,EasyAll,1,1,4,4,119.42,253.28,0,Easy,90,1,100.32
PLY42,42104,EasyAll,1,1,5,29,252.16,120.1,1,Easy,191,1,505.55
PLY42,42104,EasyAll,1,1,6,30,285,151.82,1,Easy,191,1,465.04
PLY42,42104,EasyAll,1,1,7,28,220.68,88.411,1,Easy,191,1,410.51
PLY42,42104,EasyAll,1,1,8,4,119.42,253.28,0,Easy,191,0,386.18
PLY42,42104,EasyAll,1,1,9,28,220.68,88.411,1,Easy,191,1,410.89
PLY42,42104,EasyAll,1,1,10,5,150.89,285,0,Easy,90,1,40.513
PLY42,42104,EasyAll,1,1,11,30,285,151.82,1,Easy,90,0,75.295
PLY42,42104,EasyAll,1,1,12,4,119.42,253.28,0,Easy,191,0,540.2
PLY42,42104,EasyAll,1,1,13,2,56.474,189.87,0,Easy,90,1,150.02
PLY42,42104,EasyAll,1,1,14,27,189.21,56.691,1,Easy,90,0,220.15
PLY42,42104,EasyAll,1,1,15,29,252.16,120.1,1,Easy,191,1,395.67
PLY42,42104,EasyAll,1,1,16,30,285,151.82,1,Easy,191,1,80.837
PLY42,42104,EasyAll,1,1,17,1,25,158.15,0,Easy,191,0,365.7
PLY42,42104,EasyAll,1,1,18,29,252.16,120.1,1,Easy,191,1,565.18
PLY42,42104,EasyAll,1,1,19,4,119.42,253.28,0,Easy,90,1,330.69
PLY42,42104,EasyAll,1,1,20,2,56.474,189.87,0,Easy,90,1,435.54
PLY42,42104,EasyAll,1,1,21,5,150.89,285,0,Easy,90,1,710.46
PLY42,42104,EasyAll,1,1,22,30,285,151.82,1,Easy,191,1,105.93
PLY42,42104,EasyAll,1,1,23,3,87.947,221.56,0,Easy,90,1,20.163
PLY42,42104,EasyAll,1,1,24,1,25,158.15,0,Easy,90,1,145.61
PLY42,42104,EasyAll,1,1,25,1,25,158.15,0,Easy,90,1,15.615
PLY42,42104,EasyAll,1,1,26,30,285,151.82,1,Easy,191,1,20.069
PLY42,42104,EasyAll,1,1,27,29,252.16,120.1,1,Easy,191,1,5.7623
PLY42,42104,EasyAll,1,1,28,26,157.74,25,1,Easy,90,0,105.9
PLY42,42104,EasyAll,1,1,29,26,157.74,25,1,Easy,191,1,260.07
PLY42,42104,EasyAll,1,1,30,4,119.42,253.28,0,Easy,191,0,60.506
PLY42,42104,EasyAll,1,1,31,30,285,151.82,1,Easy,191,1,11.115
PLY42,42104,EasyAll,1,1,32,27,189.21,56.691,1,Easy,191,1,80.528
PLY42,42104,EasyAll,1,1,33,3,87.947,221.56,0,Easy,90,1,340.42
PLY42,42104,EasyAll,1,1,34,26,157.74,25,1,Easy,191,1,280.95
PLY42,42104,EasyAll,1,1,35,4,119.42,253.28,0,Easy,90,1,55.081
PLY42,42104,EasyAll,1,1,36,26,157.74,25,1,Easy,90,0,290.25
PLY42,42104,EasyAll,1,1,37,26,157.74,25,1,Easy,191,1,0.64813
PLY42,42104,EasyAll,1,1,38,5,150.89,285,0,Easy,191,0,80.228
PLY42,42104,EasyAll,1,1,39,28,220.68,88.411,1,Easy,191,1,30.899
PLY42,42104,EasyAll,1,1,40,5,150.89,285,0,Easy,191,0,290.92
PLY42,42104,EasyAll,1,1,41,3,87.947,221.56,0,Easy,191,0,220.78
PLY42,42104,EasyAll,1,1,42,27,189.21,56.691,1,Easy,191,1,215.18
PLY42,42104,EasyAll,1,1,43,3,87.947,221.56,0,Easy,90,1,120.76
PLY42,42104,EasyAll,1,1,44,5,150.89,285,0,Easy,191,0,175.18
PLY42,42104,EasyAll,1,1,45,27,189.21,56.691,1,Easy,191,1,261.11
PLY42,42104,EasyAll,1,1,46,2,56.474,189.87,0,Easy,90,1,0.38409
PLY42,42104,EasyAll,1,1,47,2,56.474,189.87,0,Easy,90,1,85.664
PLY42,42104,EasyAll,1,1,48,3,87.947,221.56,0,Easy,90,1,180.57
PLY42,42104,EasyAll,1,1,49,28,220.68,88.411,1,Easy,191,1,35.438
PLY42,42104,EasyAll,1,1,50,28,220.68,88.411,1,Easy,191,1,230.17
PLY42,42104,EasyAll,1,2,51,30,285,151.82,1,Easy,191,1,0.66337
PLY42,42104,EasyAll,1,2,52,1,25,158.15,0,Easy,191,0,30.933
PLY42,42104,EasyAll,1,2,53,27,189.21,56.691,1,Easy,191,1,30.086
PLY42,42104,EasyAll,1,2,54,28,220.68,88.411,1,Easy,191,1,0.66523
PLY42,42104,EasyAll,1,2,55,28,220.68,88.411,1,Easy,191,1,0.38906
PLY42,42104,EasyAll,1,2,56,1,25,158.15,0,Easy,90,1,19.926
PLY42,42104,EasyAll,1,2,57,2,56.474,189.87,0,Easy,90,1,205.72
PLY42,42104,EasyAll,1,2,58,27,189.21,56.691,1,Easy,191,1,90.855
PLY42,42104,EasyAll,1,2,59,26,157.74,25,1,Easy,191,1,290.69
PLY42,42104,EasyAll,1,2,60,2,56.474,189.87,0,Easy,90,1,0.35174
PLY42,42104,EasyAll,1,2,61,27,189.21,56.691,1,Easy,191,1,140.7
PLY42,42104,EasyAll,1,2,62,3,87.947,221.56,0,Easy,90,1,0.37818
PLY42,42104,EasyAll,1,2,63,30,285,151.82,1,Easy,191,1,0.63849
PLY42,42104,EasyAll,1,2,64,3,87.947,221.56,0,Easy,90,1,200.85
PLY42,42104,EasyAll,1,2,65,5,150.89,285,0,Easy,90,1,241.04
PLY42,42104,EasyAll,1,2,66,29,252.16,120.1,1,Easy,191,1,0.4889
PLY42,42104,EasyAll,1,2,67,3,87.947,221.56,0,Easy,90,1,131.04
PLY42,42104,EasyAll,1,2,68,4,119.42,253.28,0,Easy,90,1,0.44131
PLY42,42104,EasyAll,1,2,69,5,150.89,285,0,Easy,191,0,70.985
PLY42,42104,EasyAll,1,2,70,1,25,158.15,0,Easy,90,1,10.284
PLY42,42104,EasyAll,1,2,71,4,119.42,253.28,0,Easy,90,1,25.623
PLY42,42104,EasyAll,1,2,72,29,252.16,120.1,1,Easy,191,1,40.515
PLY42,42104,EasyAll,1,2,73,26,157.74,25,1,Easy,191,1,245.3
PLY42,42104,EasyAll,1,2,74,29,252.16,120.1,1,Easy,191,1,70.512
PLY42,42104,EasyAll,1,2,75,29,252.16,120.1,1,Easy,191,1,10.767
PLY42,42104,EasyAll,1,2,76,30,285,151.82,1,Easy,191,1,14.907
PLY42,42104,EasyAll,1,2,77,27,189.21,56.691,1,Easy,191,1,45.609
PLY42,42104,EasyAll,1,2,78,3,87.947,221.56,0,Easy,90,1,0.56727
PLY42,42104,EasyAll,1,2,79,3,87.947,221.56,0,Easy,90,1,40.964
PLY42,42104,EasyAll,1,2,80,4,119.42,253.28,0,Easy,90,1,0.34117
PLY42,42104,EasyAll,1,2,81,5,150.89,285,0,Easy,90,1,0.66492
PLY42,42104,EasyAll,1,2,82,29,252.16,120.1,1,Easy,191,1,0.40772
PLY42,42104,EasyAll,1,2,83,30,285,151.82,1,Easy,191,1,0.31069
PLY42,42104,EasyAll,1,2,84,27,189.21,56.691,1,Easy,191,1,75.399
PLY42,42104,EasyAll,1,2,85,27,189.21,56.691,1,Easy,191,1,0.31722
PLY42,42104,EasyAll,1,2,86,2,56.474,189.87,0,Easy,90,1,35.326
PLY42,42104,EasyAll,1,2,87,30,285,151.82,1,Easy,191,1,115.22
PLY42,42104,EasyAll,1,2,88,2,56.474,189.87,0,Easy,90,1,0.43882
PLY42,42104,EasyAll,1,2,89,29,252.16,120.1,1,Easy,191,1,0.36387
PLY42,42104,EasyAll,1,2,90,27,189.21,56.691,1,Easy,191,1,21.286
PLY42,42104,EasyAll,1,2,91,2,56.474,189.87,0,Easy,90,1,140.53
PLY42,42104,EasyAll,1,2,92,26,157.74,25,1,Easy,191,1,0.33744
PLY42,42104,EasyAll,1,2,93,26,157.74,25,1,Easy,191,1,25.46
PLY42,42104,EasyAll,1,2,94,2,56.474,189.87,0,Easy,90,1,0.62822
PLY42,42104,EasyAll,1,2,95,26,157.74,25,1,Easy,191,1,0.43478
PLY42,42104,EasyAll,1,2,96,3,87.947,221.56,0,Easy,90,1,90.514
PLY42,42104,EasyAll,1,2,97,5,150.89,285,0,Easy,191,0,46.184
PLY42,42104,EasyAll,1,2,98,5,150.89,285,0,Easy,191,0,300.29
PLY42,42104,EasyAll,1,2,99,29,252.16,120.1,1,Easy,90,0,15.534
PLY42,42104,EasyAll,1,2,100,30,285,151.82,1,Easy,191,1,0.65932
PLY42,42104,EasyAll,1,3,101,1,25,158.15,0,Easy,90,1,185.22
PLY42,42104,EasyAll,1,3,102,2,56.474,189.87,0,Easy,90,1,40.872
PLY42,42104,EasyAll,1,3,103,4,119.42,253.28,0,Easy,191,0,145.71
PLY42,42104,EasyAll,1,3,104,1,25,158.15,0,Easy,90,1,75.991
PLY42,42104,EasyAll,1,3,105,5,150.89,285,0,Easy,191,0,150.73
PLY42,42104,EasyAll,1,3,106,1,25,158.15,0,Easy,90,1,110.96
PLY42,42104,EasyAll,1,3,107,27,189.21,56.691,1,Easy,191,1,0.36325
PLY42,42104,EasyAll,1,3,108,27,189.21,56.691,1,Easy,191,1,30.542
PLY42,42104,EasyAll,1,3,109,5,150.89,285,0,Easy,191,0,100.42
PLY42,42104,EasyAll,1,3,110,29,252.16,120.1,1,Easy,191,1,30.369
PLY42,42104,EasyAll,1,3,111,28,220.68,88.411,1,Easy,191,1,0.66461
PLY42,42104,EasyAll,1,3,112,27,189.21,56.691,1,Easy,191,1,0.31909
PLY42,42104,EasyAll,1,3,113,4,119.42,253.28,0,Easy,90,1,180.75
PLY42,42104,EasyAll,1,3,114,3,87.947,221.56,0,Easy,90,1,125.57
PLY42,42104,EasyAll,1,3,115,30,285,151.82,1,Easy,191,1,70.383
PLY42,42104,EasyAll,1,3,116,2,56.474,189.87,0,Easy,90,1,125.88
PLY42,42104,EasyAll,1,3,117,2,56.474,189.87,0,Easy,90,1,10.712
PLY42,42104,EasyAll,1,3,118,26,157.74,25,1,Easy,90,0,350.2
PLY42,42104,EasyAll,1,3,119,1,25,158.15,0,Easy,90,1,0.36605
PLY42,42104,EasyAll,1,3,120,5,150.89,285,0,Easy,191,0,186.33
PLY42,42104,EasyAll,1,3,121,29,252.16,120.1,1,Easy,191,1,140.41
PLY42,42104,EasyAll,1,3,122,30,285,151.82,1,Easy,191,1,9.9819
PLY42,42104,EasyAll,1,3,123,26,157.74,25,1,Easy,90,0,75.38
PLY42,42104,EasyAll,1,3,124,4,119.42,253.28,0,Easy,191,0,70.2
PLY42,42104,EasyAll,1,3,125,3,87.947,221.56,0,Easy,90,1,85.728
PLY42,42104,EasyAll,1,3,126,26,157.74,25,1,Easy,191,1,155.5
PLY42,42104,EasyAll,1,3,127,1,25,158.15,0,Easy,90,1,0.33713
PLY42,42104,EasyAll,1,3,128,1,25,158.15,0,Easy,90,1,0.66368
PLY42,42104,EasyAll,1,3,129,1,25,158.15,0,Easy,90,1,0.36418
PLY42,42104,EasyAll,1,3,130,1,25,158.15,0,Easy,90,1,0.325
PLY42,42104,EasyAll,1,3,131,29,252.16,120.1,1,Easy,191,1,0.66399
PLY42,42104,EasyAll,1,3,132,28,220.68,88.411,1,Easy,191,1,25.517
PLY42,42104,EasyAll,1,3,133,4,119.42,253.28,0,Easy,191,0,0.32531
PLY42,42104,EasyAll,1,3,134,5,150.89,285,0,Easy,191,0,200.46
PLY42,42104,EasyAll,1,3,135,27,189.21,56.691,1,Easy,191,1,120.57
PLY42,42104,EasyAll,1,3,136,4,119.42,253.28,0,Easy,90,1,866.19
PLY42,42104,EasyAll,1,3,137,30,285,151.82,1,Easy,191,1,15.405
PLY42,42104,EasyAll,1,3,138,1,25,158.15,0,Easy,90,1,0.41115
PLY42,42104,EasyAll,1,3,139,5,150.89,285,0,Easy,191,0,1025.3
PLY42,42104,EasyAll,1,3,140,28,220.68,88.411,1,Easy,191,1,4.9648
PLY42,42104,EasyAll,1,3,141,2,56.474,189.87,0,Easy,90,1,105.38
PLY42,42104,EasyAll,1,3,142,28,220.68,88.411,1,Easy,191,1,45.525
PLY42,42104,EasyAll,1,3,143,28,220.68,88.411,1,Easy,191,1,115.66
PLY42,42104,EasyAll,1,3,144,28,220.68,88.411,1,Easy,191,1,0.67208
PLY42,42104,EasyAll,1,3,145,3,87.947,221.56,0,Easy,90,1,30.602
PLY42,42104,EasyAll,1,3,146,4,119.42,253.28,0,Easy,90,1,255.19
PLY42,42104,EasyAll,1,3,147,26,157.74,25,1,Easy,90,0,250.31
PLY42,42104,EasyAll,1,3,148,2,56.474,189.87,0,Easy,90,1,95.521
PLY42,42104,EasyAll,1,3,149,26,157.74,25,1,Easy,191,1,305.66
PLY42,42104,EasyAll,1,3,150,3,87.947,221.56,0,Easy,90,1,330.89
PLY42,42104,EasyAll,2,1,151,3,87.947,221.56,0,Easy,90,1,670.59
PLY42,42104,EasyAll,2,1,152,15,196.05,240.6,0,Hard,191,0,65.146
PLY42,42104,EasyAll,2,1,153,28,220.68,88.411,1,Easy,191,1,90.677
PLY42,42104,EasyAll,2,1,154,29,252.16,120.1,1,Easy,191,1,5.2771
PLY42,42104,EasyAll,2,1,155,27,189.21,56.691,1,Easy,191,1,0.33246
PLY42,42104,EasyAll,2,1,156,28,220.68,88.411,1,Easy,191,1,0.67488
PLY42,42104,EasyAll,2,1,157,3,87.947,221.56,0,Easy,90,1,50.958
PLY42,42104,EasyAll,2,1,158,13,131.74,177.19,0,Hard,191,0,11.155
PLY42,42104,EasyAll,2,1,159,16,112.58,69.373,1,Hard,90,0,200.62
PLY42,42104,EasyAll,2,1,160,10,172.79,262.78,0,Medium,191,0,105.77
PLY42,42104,EasyAll,2,1,161,22,167.32,78.878,1,Medium,90,0,240.91
PLY42,42104,EasyAll,2,1,162,23,198.79,110.6,1,Medium,191,1,270.81
PLY42,42104,EasyAll,2,1,163,13,131.74,177.19,0,Hard,90,1,835.31
PLY42,42104,EasyAll,2,1,164,23,198.79,110.6,1,Medium,191,1,61.204
PLY42,42104,EasyAll,2,1,165,29,252.16,120.1,1,Easy,191,1,105.69
PLY42,42104,EasyAll,2,1,166,18,176.89,132.78,1,Hard,191,1,220.85
PLY42,42104,EasyAll,2,1,167,25,261.74,174.01,1,Medium,191,1,0.66928
PLY42,42104,EasyAll,2,1,168,27,189.21,56.691,1,Easy,191,1,30.459
PLY42,42104,EasyAll,2,1,169,22,167.32,78.878,1,Medium,191,1,270.33
PLY42,42104,EasyAll,2,1,170,7,78.368,167.68,0,Medium,90,1,5.8462
PLY42,42104,EasyAll,2,1,171,15,196.05,240.6,0,Hard,191,0,35.934
PLY42,42104,EasyAll,2,1,172,29,252.16,120.1,1,Easy,191,1,65.824
PLY42,42104,EasyAll,2,1,173,18,176.89,132.78,1,Hard,191,1,615.29
PLY42,42104,EasyAll,2,1,174,22,167.32,78.878,1,Medium,191,1,720.79
PLY42,42104,EasyAll,2,1,175,25,261.74,174.01,1,Medium,191,1,60.396
PLY42,42104,EasyAll,2,1,176,19,208.37,164.5,1,Hard,191,1,0.67114
PLY42,42104,EasyAll,2,1,177,1,25,158.15,0,Easy,90,1,19.76
PLY42,42104,EasyAll,2,1,178,10,172.79,262.78,0,Medium,191,0,50.513
PLY42,42104,EasyAll,2,1,179,13,131.74,177.19,0,Hard,90,1,240.7
PLY42,42104,EasyAll,2,1,180,20,239.84,196.2,1,Hard,191,1,35.509
PLY42,42104,EasyAll,2,1,181,11,68.789,113.78,0,Hard,90,1,0.36512
PLY42,42104,EasyAll,2,1,182,6,46.895,135.96,0,Medium,90,1,0.67519
PLY42,42104,EasyAll,2,1,183,15,196.05,240.6,0,Hard,191,0,10.43
PLY42,42104,EasyAll,2,1,184,24,230.26,142.32,1,Medium,191,1,40.825
PLY42,42104,EasyAll,2,1,185,21,135.84,47.187,1,Medium,90,0,55.659
PLY42,42104,EasyAll,2,1,186,3,87.947,221.56,0,Easy,90,1,300.72
PLY42,42104,EasyAll,2,1,187,26,157.74,25,1,Easy,191,1,236
PLY42,42104,EasyAll,2,1,188,7,78.368,167.68,0,Medium,90,1,240.78
PLY42,42104,EasyAll,2,1,189,2,56.474,189.87,0,Easy,90,1,0.67799
PLY42,42104,EasyAll,2,1,190,28,220.68,88.411,1,Easy,191,1,25.753
PLY42,42104,EasyAll,2,1,191,1,25,158.15,0,Easy,90,1,0.32842
PLY42,42104,EasyAll,2,1,192,10,172.79,262.78,0,Medium,191,0,80.797
PLY42,42104,EasyAll,2,1,193,7,78.368,167.68,0,Medium,90,1,290.53
PLY42,42104,EasyAll,2,1,194,16,112.58,69.373,1,Hard,191,1,60.454
PLY42,42104,EasyAll,2,1,195,2,56.474,189.87,0,Easy,90,1,254.95
PLY42,42104,EasyAll,2,1,196,17,145.42,101.09,1,Hard,191,1,365.14
PLY42,42104,EasyAll,2,1,197,17,145.42,101.09,1,Hard,90,0,305.6
PLY42,42104,EasyAll,2,1,198,15,196.05,240.6,0,Hard,191,0,10.821
PLY42,42104,EasyAll,2,1,199,5,150.89,285,0,Easy,90,1,520.33
PLY42,42104,EasyAll,2,1,200,19,208.37,164.5,1,Hard,191,1,330.86
PLY42,42104,EasyAll,2,2,201,17,145.42,101.09,1,Hard,90,0,885.74
PLY42,42104,EasyAll,2,2,202,23,198.79,110.6,1,Medium,191,1,140.51
PLY42,42104,EasyAll,2,2,203,16,112.58,69.373,1,Hard,90,0,145.38
PLY42,42104,EasyAll,2,2,204,9,141.32,231.09,0,Medium,191,0,495.6
PLY42,42104,EasyAll,2,2,205,12,100.26,145.47,0,Hard,90,1,215.78
PLY42,42104,EasyAll,2,2,206,8,109.84,199.37,0,Medium,90,1,365.26
PLY42,42104,EasyAll,2,2,207,26,157.74,25,1,Easy,191,1,355.78
PLY42,42104,EasyAll,2,2,208,11,68.789,113.78,0,Hard,90,1,439.99
PLY42,42104,EasyAll,2,2,209,24,230.26,142.32,1,Medium,191,1,250.65
PLY42,42104,EasyAll,2,2,210,20,239.84,196.2,1,Hard,191,1,240.93
PLY42,42104,EasyAll,2,2,211,4,119.42,253.28,0,Easy,90,1,465.88
PLY42,42104,EasyAll,2,2,212,17,145.42,101.09,1,Hard,191,1,620.35
PLY42,42104,EasyAll,2,2,213,3,87.947,221.56,0,Easy,90,1,35.891
PLY42,42104,EasyAll,2,2,214,25,261.74,174.01,1,Medium,191,1,210.67
PLY42,42104,EasyAll,2,2,215,14,163.21,208.88,0,Hard,191,0,111.23
PLY42,42104,EasyAll,2,2,216,29,252.16,120.1,1,Easy,191,1,205.67
PLY42,42104,EasyAll,2,2,217,19,208.37,164.5,1,Hard,191,1,16.855
PLY42,42104,EasyAll,2,2,218,21,135.84,47.187,1,Medium,90,0,330.38
PLY42,42104,EasyAll,2,2,219,30,285,151.82,1,Easy,191,1,186.24
PLY42,42104,EasyAll,2,2,220,19,208.37,164.5,1,Hard,191,1,0.32904
PLY42,42104,EasyAll,2,2,221,16,112.58,69.373,1,Hard,90,0,240.22
PLY42,42104,EasyAll,2,2,222,8,109.84,199.37,0,Medium,90,1,260.09
PLY42,42104,EasyAll,2,2,223,21,135.84,47.187,1,Medium,191,1,280.56
PLY42,42104,EasyAll,2,2,224,4,119.42,253.28,0,Easy,90,1,505.42
PLY42,42104,EasyAll,2,2,225,11,68.789,113.78,0,Hard,90,1,35.329
PLY42,42104,EasyAll,2,2,226,5,150.89,285,0,Easy,191,0,312.37
PLY42,42104,EasyAll,2,2,227,18,176.89,132.78,1,Hard,191,1,170.38
PLY42,42104,EasyAll,2,2,228,10,172.79,262.78,0,Medium,191,0,195.79
PLY42,42104,EasyAll,2,2,229,6,46.895,135.96,0,Medium,90,1,9.953
PLY42,42104,EasyAll,2,2,230,14,163.21,208.88,0,Hard,191,0,320.53
PLY42,42104,EasyAll,2,2,231,18,176.89,132.78,1,Hard,191,1,310.96
PLY42,42104,EasyAll,2,2,232,2,56.474,189.87,0,Easy,90,1,65.73
PLY42,42104,EasyAll,2,2,233,6,46.895,135.96,0,Medium,90,1,310.31
PLY42,42104,EasyAll,2,2,234,28,220.68,88.411,1,Easy,191,1,310.73
PLY42,42104,EasyAll,2,2,235,8,109.84,199.37,0,Medium,90,1,261
PLY42,42104,EasyAll,2,2,236,24,230.26,142.32,1,Medium,191,1,234.96
PLY42,42104,EasyAll,2,2,237,24,230.26,142.32,1,Medium,191,1,140.01
PLY42,42104,EasyAll,2,2,238,12,100.26,145.47,0,Hard,90,1,55.717
PLY42,42104,EasyAll,2,2,239,27,189.21,56.691,1,Easy,191,1,10.736
PLY42,42104,EasyAll,2,2,240,9,141.32,231.09,0,Medium,90,1,410.17
PLY42,42104,EasyAll,2,2,241,12,100.26,145.47,0,Hard,90,1,5.6717
PLY42,42104,EasyAll,2,2,242,9,141.32,231.09,0,Medium,90,1,1020.8
PLY42,42104,EasyAll,2,2,243,26,157.74,25,1,Easy,191,1,520.36
PLY42,42104,EasyAll,2,2,244,17,145.42,101.09,1,Hard,90,0,500.88
PLY42,42104,EasyAll,2,2,245,30,285,151.82,1,Easy,191,1,45.166
PLY42,42104,EasyAll,2,2,246,12,100.26,145.47,0,Hard,90,1,240.26
PLY42,42104,EasyAll,2,2,247,22,167.32,78.878,1,Medium,191,1,51.174
PLY42,42104,EasyAll,2,2,248,21,135.84,47.187,1,Medium,90,0,65.219
PLY42,42104,EasyAll,2,2,249,16,112.58,69.373,1,Hard,191,1,390.66
PLY42,42104,EasyAll,2,2,250,27,189.21,56.691,1,Easy,191,1,220.57
PLY42,42104,EasyAll,2,3,251,26,157.74,25,1,Easy,191,1,95.099
PLY42,42104,EasyAll,2,3,252,5,150.89,285,0,Easy,191,0,180.19
PLY42,42104,EasyAll,2,3,253,2,56.474,189.87,0,Easy,90,1,155.07
PLY42,42104,EasyAll,2,3,254,20,239.84,196.2,1,Hard,191,1,136.25
PLY42,42104,EasyAll,2,3,255,1,25,158.15,0,Easy,90,1,105.11
PLY42,42104,EasyAll,2,3,256,7,78.368,167.68,0,Medium,90,1,310.22
PLY42,42104,EasyAll,2,3,257,11,68.789,113.78,0,Hard,90,1,75.686
PLY42,42104,EasyAll,2,3,258,13,131.74,177.19,0,Hard,90,1,406.16
PLY42,42104,EasyAll,2,3,259,13,131.74,177.19,0,Hard,191,0,340.81
PLY42,42104,EasyAll,2,3,260,18,176.89,132.78,1,Hard,191,1,560.62
PLY42,42104,EasyAll,2,3,261,9,141.32,231.09,0,Medium,191,0,461.18
PLY42,42104,EasyAll,2,3,262,30,285,151.82,1,Easy,191,1,135.62
PLY42,42104,EasyAll,2,3,263,6,46.895,135.96,0,Medium,90,1,50.472
PLY42,42104,EasyAll,2,3,264,27,189.21,56.691,1,Easy,191,1,230.68
PLY42,42104,EasyAll,2,3,265,26,157.74,25,1,Easy,191,1,250.45
PLY42,42104,EasyAll,2,3,266,11,68.789,113.78,0,Hard,90,1,190.59
PLY42,42104,EasyAll,2,3,267,23,198.79,110.6,1,Medium,191,1,95.522
PLY42,42104,EasyAll,2,3,268,19,208.37,164.5,1,Hard,191,1,225.72
PLY42,42104,EasyAll,2,3,269,8,109.84,199.37,0,Medium,90,1,30.449
PLY42,42104,EasyAll,2,3,270,7,78.368,167.68,0,Medium,90,1,90.266
PLY42,42104,EasyAll,2,3,271,20,239.84,196.2,1,Hard,191,1,5.0569
PLY42,42104,EasyAll,2,3,272,2,56.474,189.87,0,Easy,90,1,120.23
PLY42,42104,EasyAll,2,3,273,25,261.74,174.01,1,Medium,191,1,0.64782
PLY42,42104,EasyAll,2,3,274,25,261.74,174.01,1,Medium,191,1,0.36512
PLY42,42104,EasyAll,2,3,275,4,119.42,253.28,0,Easy,90,1,0.32344
PLY42,42104,EasyAll,2,3,276,4,119.42,253.28,0,Easy,90,1,0.67021
PLY42,42104,EasyAll,2,3,277,15,196.05,240.6,0,Hard,191,0,0.36823
PLY42,42104,EasyAll,2,3,278,1,25,158.15,0,Easy,90,1,0.32531
PLY42,42104,EasyAll,2,3,279,12,100.26,145.47,0,Hard,191,0,20.703
PLY42,42104,EasyAll,2,3,280,21,135.84,47.187,1,Medium,191,1,950.28
PLY42,42104,EasyAll,2,3,281,28,220.68,88.411,1,Easy,191,1,0.31442
PLY42,42104,EasyAll,2,3,282,5,150.89,285,0,Easy,90,1,56.29
PLY42,42104,EasyAll,2,3,283,24,230.26,142.32,1,Medium,191,1,95.719
PLY42,42104,EasyAll,2,3,284,1,25,158.15,0,Easy,90,1,30.905
PLY42,42104,EasyAll,2,3,285,10,172.79,262.78,0,Medium,191,0,515.74
PLY42,42104,EasyAll,2,3,286,14,163.21,208.88,0,Hard,191,0,125.3
PLY42,42104,EasyAll,2,3,287,5,150.89,285,0,Easy,90,1,285.18
PLY42,42104,EasyAll,2,3,288,22,167.32,78.878,1,Medium,191,1,265.91
PLY42,42104,EasyAll,2,3,289,8,109.84,199.37,0,Medium,90,1,325.51
PLY42,42104,EasyAll,2,3,290,9,141.32,231.09,0,Medium,90,1,55.327
PLY42,42104,EasyAll,2,3,291,4,119.42,253.28,0,Easy,90,1,80.537
PLY42,42104,EasyAll,2,3,292,14,163.21,208.88,0,Hard,191,0,170.25
PLY42,42104,EasyAll,2,3,293,30,285,151.82,1,Easy,191,1,195.84
PLY42,42104,EasyAll,2,3,294,3,87.947,221.56,0,Easy,90,1,0.63818
PLY42,42104,EasyAll,2,3,295,23,198.79,110.6,1,Medium,191,1,24.936
PLY42,42104,EasyAll,2,3,296,29,252.16,120.1,1,Easy,191,1,155.66
PLY42,42104,EasyAll,2,3,297,14,163.21,208.88,0,Hard,90,1,170.79
PLY42,42104,EasyAll,2,3,298,6,46.895,135.96,0,Medium,90,1,70.331
PLY42,42104,EasyAll,2,3,299,30,285,151.82,1,Easy,191,1,40.592
PLY42,42104,EasyAll,2,3,300,20,239.84,196.2,1,Hard,191,1,75.563
PLY42,42105,EasyAll,1,1,1,27,189.21,56.691,1,Easy,90,0,5642.7
PLY42,42105,EasyAll,1,1,2,26,157.74,25,1,Easy,90,0,1590.4
PLY42,42105,EasyAll,1,1,3,1,25,158.15,0,Easy,191,0,10.007
PLY42,42105,EasyAll,1,1,4,4,119.42,253.28,0,Easy,90,1,0.34645
PLY42,42105,EasyAll,1,1,5,1,25,158.15,0,Easy,191,0,5.6863
PLY42,42105,EasyAll,1,1,6,1,25,158.15,0,Easy,90,1,40.046
PLY42,42105,EasyAll,1,1,7,3,87.947,221.56,0,Easy,90,1,145.89
PLY42,42105,EasyAll,1,1,8,2,56.474,189.87,0,Easy,90,1,0.41519
PLY42,42105,EasyAll,1,1,9,3,87.947,221.56,0,Easy,90,1,0.31504
PLY42,42105,EasyAll,1,1,10,2,56.474,189.87,0,Easy,90,1,0.67923
PLY42,42105,EasyAll,1,1,11,5,150.89,285,0,Easy,90,1,60.53
PLY42,42105,EasyAll,1,1,12,5,150.89,285,0,Easy,90,1,120
PLY42,42105,EasyAll,1,1,13,5,150.89,285,0,Easy,90,1,0.45935
PLY42,42105,EasyAll,1,1,14,5,150.89,285,0,Easy,90,1,0.33122
PLY42,42105,EasyAll,1,1,15,30,285,151.82,1,Easy,90,0,0.55887
PLY42,42105,EasyAll,1,1,16,3,87.947,221.56,0,Easy,191,0,280.31
PLY42,42105,EasyAll,1,1,17,2,56.474,189.87,0,Easy,90,1,0.66741
PLY42,42105,EasyAll,1,1,18,29,252.16,120.1,1,Easy,191,1,65.286
PLY42,42105,EasyAll,1,1,19,26,157.74,25,1,Easy,90,0,110.82
PLY42,42105,EasyAll,1,1,20,5,150.89,285,0,Easy,90,1,25.329
PLY42,42105,EasyAll,1,1,21,5,150.89,285,0,Easy,90,1,0.41176
PLY42,42105,EasyAll,1,1,22,27,189.21,56.691,1,Easy,90,0,0.30882
PLY42,42105,EasyAll,1,1,23,1,25,158.15,0,Easy,90,1,0.67021
PLY42,42105,EasyAll,1,1,24,28,220.68,88.411,1,Easy,191,1,685.64
PLY42,42105,EasyAll,1,1,25,3,87.947,221.56,0,Easy,90,1,200.51
PLY42,42105,EasyAll,1,1,26,4,119.42,253.28,0,Easy,90,1,110.59
PLY42,42105,EasyAll,1,1,27,29,252.16,120.1,1,Easy,90,0,0.62169
PLY42,42105,EasyAll,1,1,28,28,220.68,88.411,1,Easy,191,1,60.258
PLY42,42105,EasyAll,1,1,29,26,157.74,25,1,Easy,191,1,75.814
PLY42,42105,EasyAll,1,1,30,28,220.68,88.411,1,Easy,191,1,0.65372
PLY42,42105,EasyAll,1,1,31,2,56.474,189.87,0,Easy,90,1,210.84
PLY42,42105,EasyAll,1,1,32,4,119.42,253.28,0,Easy,90,1,0.34117
PLY42,42105,EasyAll,1,1,33,4,119.42,253.28,0,Easy,90,1,5.2192
PLY42,42105,EasyAll,1,1,34,29,252.16,120.1,1,Easy,191,1,185.87
PLY42,42105,EasyAll,1,1,35,28,220.68,88.411,1,Easy,191,1,195.5
PLY42,42105,EasyAll,1,1,36,27,189.21,56.691,1,Easy,191,1,70.661
PLY42,42105,EasyAll,1,1,37,30,285,151.82,1,Easy,191,1,0.3816
PLY42,42105,EasyAll,1,1,38,5,150.89,285,0,Easy,90,1,0.36543
PLY42,42105,EasyAll,1,1,39,27,189.21,56.691,1,Easy,191,1,0.34956
PLY42,42105,EasyAll,1,1,40,3,87.947,221.56,0,Easy,90,1,110.62
PLY42,42105,EasyAll,1,1,41,4,119.42,253.28,0,Easy,90,1,40.115
PLY42,42105,EasyAll,1,1,42,28,220.68,88.411,1,Easy,191,1,505.88
PLY42,42105,EasyAll,1,1,43,5,150.89,285,0,Easy,191,0,80.15
PLY42,42105,EasyAll,1,1,44,4,119.42,253.28,0,Easy,90,1,55.937
PLY42,42105,EasyAll,1,1,45,27,189.21,56.691,1,Easy,191,1,0.30945
PLY42,42105,EasyAll,1,1,46,27,189.21,56.691,1,Easy,191,1,395.28
PLY42,42105,EasyAll,1,1,47,26,157.74,25,1,Easy,191,1,0.71312
PLY42,42105,EasyAll,1,1,48,30,285,151.82,1,Easy,191,1,15.376
PLY42,42105,EasyAll,1,1,49,26,157.74,25,1,Easy,191,1,141.14
PLY42,42105,EasyAll,1,1,50,1,25,158.15,0,Easy,90,1,205.93
PLY42,42105,EasyAll,1,2,51,3,87.947,221.56,0,Easy,90,1,115.08
PLY42,42105,EasyAll,1,2,52,29,252.16,120.1,1,Easy,191,1,0.61951
PLY42,42105,EasyAll,1,2,53,29,252.16,120.1,1,Easy,191,1,0.40088
PLY42,42105,EasyAll,1,2,54,29,252.16,120.1,1,Easy,191,1,0.34334
PLY42,42105,EasyAll,1,2,55,4,119.42,253.28,0,Easy,191,0,166.07
PLY42,42105,EasyAll,1,2,56,30,285,151.82,1,Easy,191,1,35.542
PLY42,42105,EasyAll,1,2,57,1,25,158.15,0,Easy,90,1,65.42
PLY42,42105,EasyAll,1,2,58,29,252.16,120.1,1,Easy,191,1,0.65777
PLY42,42105,EasyAll,1,2,59,3,87.947,221.56,0,Easy,90,1,125.03
PLY42,42105,EasyAll,1,2,60,30,285,151.82,1,Easy,191,1,25.837
PLY42,42105,EasyAll,1,2,61,5,150.89,285,0,Easy,90,1,145.59
PLY42,42105,EasyAll,1,2,62,28,220.68,88.411,1,Easy,191,1,190.9
PLY42,42105,EasyAll,1,2,63,30,285,151.82,1,Easy,191,1,0.69104
PLY42,42105,EasyAll,1,2,64,26,157.74,25,1,Easy,191,1,165.82
PLY42,42105,EasyAll,1,2,65,27,189.21,56.691,1,Easy,191,1,70.358
PLY42,42105,EasyAll,1,2,66,2,56.474,189.87,0,Easy,90,1,95.843
PLY42,42105,EasyAll,1,2,67,4,119.42,253.28,0,Easy,90,1,60.019
PLY42,42105,EasyAll,1,2,68,30,285,151.82,1,Easy,191,1,70.513
PLY42,42105,EasyAll,1,2,69,4,119.42,253.28,0,Easy,90,1,0.32437
PLY42,42105,EasyAll,1,2,70,26,157.74,25,1,Easy,191,1,56.182
PLY42,42105,EasyAll,1,2,71,28,220.68,88.411,1,Easy,90,0,0.31131
PLY42,42105,EasyAll,1,2,72,2,56.474,189.87,0,Easy,90,1,185.54
PLY42,42105,EasyAll,1,2,73,29,252.16,120.1,1,Easy,191,1,110.31
PLY42,42105,EasyAll,1,2,74,3,87.947,221.56,0,Easy,90,1,345.84
PLY42,42105,EasyAll,1,2,75,3,87.947,221.56,0,Easy,90,1,216.01
PLY42,42105,EasyAll,1,2,76,30,285,151.82,1,Easy,191,1,125.5
PLY42,42105,EasyAll,1,2,77,4,119.42,253.28,0,Easy,90,1,40.127
PLY42,42105,EasyAll,1,2,78,27,189.21,56.691,1,Easy,191,1,130.14
PLY42,42105,EasyAll,1,2,79,28,220.68,88.411,1,Easy,90,0,0.33868
PLY42,42105,EasyAll,1,2,80,1,25,158.15,0,Easy,90,1,280.23
PLY42,42105,EasyAll,1,2,81,2,56.474,189.87,0,Easy,90,1,124.98
PLY42,42105,EasyAll,1,2,82,2,56.474,189.87,0,Easy,90,1,165.54
PLY42,42105,EasyAll,1,2,83,3,87.947,221.56,0,Easy,90,1,236.02
PLY42,42105,EasyAll,1,2,84,28,220.68,88.411,1,Easy,191,1,35.818
PLY42,42105,EasyAll,1,2,85,2,56.474,189.87,0,Easy,90,1,175.62
PLY42,42105,EasyAll,1,2,86,28,220.68,88.411,1,Easy,191,1,100.54
PLY42,42105,EasyAll,1,2,87,3,87.947,221.56,0,Easy,90,1,120.67
PLY42,42105,EasyAll,1,2,88,5,150.89,285,0,Easy,90,1,30.487
PLY42,42105,EasyAll,1,2,89,26,157.74,25,1,Easy,191,1,219.95
PLY42,42105,EasyAll,1,2,90,26,157.74,25,1,Easy,191,1,0.34521
PLY42,42105,EasyAll,1,2,91,5,150.89,285,0,Easy,90,1,65.661
PLY42,42105,EasyAll,1,2,92,29,252.16,120.1,1,Easy,191,1,6.1575
PLY42,42105,EasyAll,1,2,93,28,220.68,88.411,1,Easy,191,1,40.3
PLY42,42105,EasyAll,1,2,94,27,189.21,56.691,1,Easy,191,1,85.149
PLY42,42105,EasyAll,1,2,95,2,56.474,189.87,0,Easy,191,0,55.98
PLY42,42105,EasyAll,1,2,96,29,252.16,120.1,1,Easy,191,1,20.93
PLY42,42105,EasyAll,1,2,97,1,25,158.15,0,Easy,90,1,0.31971
PLY42,42105,EasyAll,1,2,98,1,25,158.15,0,Easy,191,0,345.81
PLY42,42105,EasyAll,1,2,99,2,56.474,189.87,0,Easy,191,0,154.93
PLY42,42105,EasyAll,1,2,100,4,119.42,253.28,0,Easy,90,1,252.12
PLY42,42105,EasyAll,1,3,101,1,25,158.15,0,Easy,90,1,245.31
PLY42,42105,EasyAll,1,3,102,30,285,151.82,1,Easy,191,1,790.51
PLY42,42105,EasyAll,1,3,103,30,285,151.82,1,Easy,191,1,455.34
PLY42,42105,EasyAll,1,3,104,5,150.89,285,0,Easy,90,1,340.54
PLY42,42105,EasyAll,1,3,105,5,150.89,285,0,Easy,191,0,380.36
PLY42,42105,EasyAll,1,3,106,30,285,151.82,1,Easy,191,1,120.97
PLY42,42105,EasyAll,1,3,107,27,189.21,56.691,1,Easy,191,1,0.36387
PLY42,42105,EasyAll,1,3,108,26,157.74,25,1,Easy,191,1,135.86
PLY42,42105,EasyAll,1,3,109,4,119.42,253.28,0,Easy,90,1,170.73
PLY42,42105,EasyAll,1,3,110,2,56.474,189.87,0,Easy,191,0,395.22
PLY42,42105,EasyAll,1,3,111,1,25,158.15,0,Easy,90,1,166.06
PLY42,42105,EasyAll,1,3,112,28,220.68,88.411,1,Easy,191,1,165.84
PLY42,42105,EasyAll,1,3,113,1,25,158.15,0,Easy,191,0,85.399
PLY42,42105,EasyAll,1,3,114,29,252.16,120.1,1,Easy,191,1,105.23
PLY42,42105,EasyAll,1,3,115,1,25,158.15,0,Easy,90,1,210.38
PLY42,42105,EasyAll,1,3,116,30,285,151.82,1,Easy,191,1,0.63537
PLY42,42105,EasyAll,1,3,117,4,119.42,253.28,0,Easy,90,1,70.067
PLY42,42105,EasyAll,1,3,118,2,56.474,189.87,0,Easy,90,1,345.54
PLY42,42105,EasyAll,1,3,119,5,150.89,285,0,Easy,90,1,225.75
PLY42,42105,EasyAll,1,3,120,27,189.21,56.691,1,Easy,191,1,340.51
PLY42,42105,EasyAll,1,3,121,27,189.21,56.691,1,Easy,191,1,215.45
PLY42,42105,EasyAll,1,3,122,27,189.21,56.691,1,Easy,191,1,310.95
PLY42,42105,EasyAll,1,3,123,29,252.16,120.1,1,Easy,191,1,80.411
PLY42,42105,EasyAll,1,3,124,1,25,158.15,0,Easy,90,1,170.28
PLY42,42105,EasyAll,1,3,125,29,252.16,120.1,1,Easy,191,1,575.78
PLY42,42105,EasyAll,1,3,126,26,157.74,25,1,Easy,191,1,55.642
PLY42,42105,EasyAll,1,3,127,30,285,151.82,1,Easy,191,1,145.72
PLY42,42105,EasyAll,1,3,128,29,252.16,120.1,1,Easy,191,1,0.65808
PLY42,42105,EasyAll,1,3,129,26,157.74,25,1,Easy,191,1,200.17
PLY42,42105,EasyAll,1,3,130,28,220.68,88.411,1,Easy,191,1,100.26
PLY42,42105,EasyAll,1,3,131,4,119.42,253.28,0,Easy,90,1,25.452
PLY42,42105,EasyAll,1,3,132,1,25,158.15,0,Easy,90,1,20.701
PLY42,42105,EasyAll,1,3,133,3,87.947,221.56,0,Easy,90,1,435.37
PLY42,42105,EasyAll,1,3,134,2,56.474,189.87,0,Easy,90,1,50.184
PLY42,42105,EasyAll,1,3,135,27,189.21,56.691,1,Easy,191,1,0.72214
PLY42,42105,EasyAll,1,3,136,2,56.474,189.87,0,Easy,90,1,0.32251
PLY42,42105,EasyAll,1,3,137,26,157.74,25,1,Easy,191,1,70.726
PLY42,42105,EasyAll,1,3,138,5,150.89,285,0,Easy,90,1,130.25
PLY42,42105,EasyAll,1,3,139,27,189.21,56.691,1,Easy,191,1,30.078
PLY42,42105,EasyAll,1,3,140,26,157.74,25,1,Easy,191,1,10.916
PLY42,42105,EasyAll,1,3,141,4,119.42,253.28,0,Easy,191,0,0.34148
PLY42,42105,EasyAll,1,3,142,30,285,151.82,1,Easy,191,1,85.542
PLY42,42105,EasyAll,1,3,143,3,87.947,221.56,0,Easy,90,1,100.26
PLY42,42105,EasyAll,1,3,144,29,252.16,120.1,1,Easy,191,1,110.55
PLY42,42105,EasyAll,1,3,145,3,87.947,221.56,0,Easy,90,1,216.04
PLY42,42105,EasyAll,1,3,146,28,220.68,88.411,1,Easy,191,1,146.54
PLY42,42105,EasyAll,1,3,147,28,220.68,88.411,1,Easy,191,1,0.34303
PLY42,42105,EasyAll,1,3,148,30,285,151.82,1,Easy,191,1,355.88
PLY42,42105,EasyAll,1,3,149,26,157.74,25,1,Easy,191,1,60.017
PLY42,42105,EasyAll,1,3,150,3,87.947,221.56,0,Easy,90,1,65.558
PLY42,42105,EasyAll,2,1,151,16,112.58,69.373,1,Hard,191,1,810.29
PLY42,42105,EasyAll,2,1,152,22,167.32,78.878,1,Medium,191,1,120.79
PLY42,42105,EasyAll,2,1,153,18,176.89,132.78,1,Hard,191,1,0.36605
PLY42,42105,EasyAll,2,1,154,21,135.84,47.187,1,Medium,191,1,30.427
PLY42,42105,EasyAll,2,1,155,30,285,151.82,1,Easy,191,1,15.061
PLY42,42105,EasyAll,2,1,156,18,176.89,132.78,1,Hard,191,1,35.74
PLY42,42105,EasyAll,2,1,157,19,208.37,164.5,1,Hard,191,1,0.65092
PLY42,42105,EasyAll,2,1,158,14,163.21,208.88,0,Hard,191,0,11.179
PLY42,42105,EasyAll,2,1,159,2,56.474,189.87,0,Easy,90,1,100.27
PLY42,42105,EasyAll,2,1,160,2,56.474,189.87,0,Easy,90,1,0.66305
PLY42,42105,EasyAll,2,1,161,5,150.89,285,0,Easy,90,1,0.37009
PLY42,42105,EasyAll,2,1,162,25,261.74,174.01,1,Medium,191,1,280.74
PLY42,42105,EasyAll,2,1,163,8,109.84,199.37,0,Medium,191,0,140.55
PLY42,42105,EasyAll,2,1,164,24,230.26,142.32,1,Medium,191,1,60.352
PLY42,42105,EasyAll,2,1,165,26,157.74,25,1,Easy,191,1,70.828
PLY42,42105,EasyAll,2,1,166,23,198.79,110.6,1,Medium,191,1,170.39
PLY42,42105,EasyAll,2,1,167,11,68.789,113.78,0,Hard,90,1,170.87
PLY42,42105,EasyAll,2,1,168,1,25,158.15,0,Easy,90,1,25.199
PLY42,42105,EasyAll,2,1,169,29,252.16,120.1,1,Easy,191,1,45.915
PLY42,42105,EasyAll,2,1,170,13,131.74,177.19,0,Hard,191,0,90.014
PLY42,42105,EasyAll,2,1,171,3,87.947,221.56,0,Easy,90,1,490.91
PLY42,42105,EasyAll,2,1,172,28,220.68,88.411,1,Easy,191,1,125.67
PLY42,42105,EasyAll,2,1,173,19,208.37,164.5,1,Hard,191,1,90.592
PLY42,42105,EasyAll,2,1,174,28,220.68,88.411,1,Easy,191,1,60.398
PLY42,42105,EasyAll,2,1,175,9,141.32,231.09,0,Medium,90,1,281.95
PLY42,42105,EasyAll,2,1,176,17,145.42,101.09,1,Hard,191,1,850.77
PLY42,42105,EasyAll,2,1,177,17,145.42,101.09,1,Hard,191,1,0.63569
PLY42,42105,EasyAll,2,1,178,5,150.89,285,0,Easy,90,1,0.41083
PLY42,42105,EasyAll,2,1,179,13,131.74,177.19,0,Hard,191,0,75.2
PLY42,42105,EasyAll,2,1,180,26,157.74,25,1,Easy,191,1,146.15
PLY42,42105,EasyAll,2,1,181,21,135.84,47.187,1,Medium,90,0,230.21
PLY42,42105,EasyAll,2,1,182,18,176.89,132.78,1,Hard,191,1,351.21
PLY42,42105,EasyAll,2,1,183,6,46.895,135.96,0,Medium,90,1,265.3
PLY42,42105,EasyAll,2,1,184,15,196.05,240.6,0,Hard,90,1,130.82
PLY42,42105,EasyAll,2,1,185,10,172.79,262.78,0,Medium,90,1,45.628
PLY42,42105,EasyAll,2,1,186,3,87.947,221.56,0,Easy,191,0,0.34956
PLY42,42105,EasyAll,2,1,187,11,68.789,113.78,0,Hard,191,0,160.99
PLY42,42105,EasyAll,2,1,188,10,172.79,262.78,0,Medium,90,1,30.232
PLY42,42105,EasyAll,2,1,189,24,230.26,142.32,1,Medium,191,1,0.63444
PLY42,42105,EasyAll,2,1,190,22,167.32,78.878,1,Medium,191,1,65.444
PLY42,42105,EasyAll,2,1,191,8,109.84,199.37,0,Medium,191,0,245.92
PLY42,42105,EasyAll,2,1,192,20,239.84,196.2,1,Hard,191,1,80.114
PLY42,42105,EasyAll,2,1,193,18,176.89,132.78,1,Hard,191,1,20.987
PLY42,42105,EasyAll,2,1,194,15,196.05,240.6,0,Hard,191,0,10.19
PLY42,42105,EasyAll,2,1,195,5,150.89,285,0,Easy,90,1,85.585
PLY42,42105,EasyAll,2,1,196,18,176.89,132.78,1,Hard,191,1,50.395
PLY42,42105,EasyAll,2,1,197,22,167.32,78.878,1,Medium,191,1,230.56
PLY42,42105,EasyAll,2,1,198,3,87.947,221.56,0,Easy,90,1,130.39
PLY42,42105,EasyAll,2,1,199,3,87.947,221.56,0,Easy,90,1,385.27
PLY42,42105,EasyAll,2,1,200,6,46.895,135.96,0,Medium,90,1,150.84
PLY42,42105,EasyAll,2,2,201,13,131.74,177.19,0,Hard,191,0,630.22
PLY42,42105,EasyAll,2,2,202,30,285,151.82,1,Easy,191,1,311.18
PLY42,42105,EasyAll,2,2,203,26,157.74,25,1,Easy,191,1,150.6
PLY42,42105,EasyAll,2,2,204,28,220.68,88.411,1,Easy,191,1,415.83
PLY42,42105,EasyAll,2,2,205,27,189.21,56.691,1,Easy,191,1,490.29
PLY42,42105,EasyAll,2,2,206,4,119.42,253.28,0,Easy,90,1,100.75
PLY42,42105,EasyAll,2,2,207,14,163.21,208.88,0,Hard,191,0,10.117
PLY42,42105,EasyAll,2,2,208,20,239.84,196.2,1,Hard,191,1,180.46
PLY42,42105,EasyAll,2,2,209,22,167.32,78.878,1,Medium,191,1,60.364
PLY42,42105,EasyAll,2,2,210,17,145.42,101.09,1,Hard,191,1,95.82
PLY42,42105,EasyAll,2,2,211,6,46.895,135.96,0,Medium,90,1,465.02
PLY42,42105,EasyAll,2,2,212,26,157.74,25,1,Easy,191,1,95.52
PLY42,42105,EasyAll,2,2,213,2,56.474,189.87,0,Easy,90,1,25.691
PLY42,42105,EasyAll,2,2,214,16,112.58,69.373,1,Hard,90,0,395.56
PLY42,42105,EasyAll,2,2,215,4,119.42,253.28,0,Easy,90,1,200.68
PLY42,42105,EasyAll,2,2,216,15,196.05,240.6,0,Hard,90,1,110.88
PLY42,42105,EasyAll,2,2,217,29,252.16,120.1,1,Easy,191,1,611.32
PLY42,42105,EasyAll,2,2,218,1,25,158.15,0,Easy,191,0,135.88
PLY42,42105,EasyAll,2,2,219,4,119.42,253.28,0,Easy,90,1,375.73
PLY42,42105,EasyAll,2,2,220,12,100.26,145.47,0,Hard,90,1,80.56
PLY42,42105,EasyAll,2,2,221,6,46.895,135.96,0,Medium,90,1,145.37
PLY42,42105,EasyAll,2,2,222,19,208.37,164.5,1,Hard,191,1,135.6
PLY42,42105,EasyAll,2,2,223,24,230.26,142.32,1,Medium,191,1,140.34
PLY42,42105,EasyAll,2,2,224,26,157.74,25,1,Easy,191,1,370.24
PLY42,42105,EasyAll,2,2,225,2,56.474,189.87,0,Easy,90,1,145.69
PLY42,42105,EasyAll,2,2,226,4,119.42,253.28,0,Easy,90,1,215.91
PLY42,42105,EasyAll,2,2,227,30,285,151.82,1,Easy,191,1,70.418
PLY42,42105,EasyAll,2,2,228,23,198.79,110.6,1,Medium,191,1,140.95
PLY42,42105,EasyAll,2,2,229,21,135.84,47.187,1,Medium,191,1,250.73
PLY42,42105,EasyAll,2,2,230,21,135.84,47.187,1,Medium,191,1,0.66834
PLY42,42105,EasyAll,2,2,231,23,198.79,110.6,1,Medium,191,1,115.11
PLY42,42105,EasyAll,2,2,232,7,78.368,167.68,0,Medium,191,0,135.55
PLY42,42105,EasyAll,2,2,233,4,119.42,253.28,0,Easy,90,1,160.39
PLY42,42105,EasyAll,2,2,234,8,109.84,199.37,0,Medium,191,0,45.848
PLY42,42105,EasyAll,2,2,235,30,285,151.82,1,Easy,191,1,26.075
PLY42,42105,EasyAll,2,2,236,6,46.895,135.96,0,Medium,90,1,95.077
PLY42,42105,EasyAll,2,2,237,12,100.26,145.47,0,Hard,90,1,0.71126
PLY42,42105,EasyAll,2,2,238,11,68.789,113.78,0,Hard,90,1,55.217
PLY42,42105,EasyAll,2,2,239,24,230.26,142.32,1,Medium,191,1,130.46
PLY42,42105,EasyAll,2,2,240,5,150.89,285,0,Easy,90,1,96.525
PLY42,42105,EasyAll,2,2,241,16,112.58,69.373,1,Hard,191,1,190.68
PLY42,42105,EasyAll,2,2,242,20,239.84,196.2,1,Hard,191,1,15.316
PLY42,42105,EasyAll,2,2,243,29,252.16,120.1,1,Easy,191,1,25.211
PLY42,42105,EasyAll,2,2,244,2,56.474,189.87,0,Easy,90,1,85.761
PLY42,42105,EasyAll,2,2,245,14,163.21,208.88,0,Hard,90,1,40.714
PLY42,42105,EasyAll,2,2,246,7,78.368,167.68,0,Medium,90,1,85.513
PLY42,42105,EasyAll,2,2,247,29,252.16,120.1,1,Easy,191,1,170.39
PLY42,42105,EasyAll,2,2,248,19,208.37,164.5,1,Hard,191,1,31.468
PLY42,42105,EasyAll,2,2,249,7,78.368,167.68,0,Medium,90,1,220.7
PLY42,42105,EasyAll,2,2,250,17,145.42,101.09,1,Hard,191,1,161.18
PLY42,42105,EasyAll,2,3,251,8,109.84,199.37,0,Medium,90,1,100.68
PLY42,42105,EasyAll,2,3,252,10,172.79,262.78,0,Medium,90,1,540.86
PLY42,42105,EasyAll,2,3,253,15,196.05,240.6,0,Hard,90,1,285.7
PLY42,42105,EasyAll,2,3,254,27,189.21,56.691,1,Easy,191,1,80.548
PLY42,42105,EasyAll,2,3,255,24,230.26,142.32,1,Medium,191,1,370.33
PLY42,42105,EasyAll,2,3,256,9,141.32,231.09,0,Medium,90,1,185.87
PLY42,42105,EasyAll,2,3,257,25,261.74,174.01,1,Medium,191,1,95.736
PLY42,42105,EasyAll,2,3,258,22,167.32,78.878,1,Medium,191,1,130.93
PLY42,42105,EasyAll,2,3,259,9,141.32,231.09,0,Medium,90,1,915.76
PLY42,42105,EasyAll,2,3,260,23,198.79,110.6,1,Medium,191,1,45.237
PLY42,42105,EasyAll,2,3,261,12,100.26,145.47,0,Hard,90,1,290.46
PLY42,42105,EasyAll,2,3,262,3,87.947,221.56,0,Easy,90,1,285.21
PLY42,42105,EasyAll,2,3,263,12,100.26,145.47,0,Hard,90,1,206.16
PLY42,42105,EasyAll,2,3,264,17,145.42,101.09,1,Hard,191,1,180.28
PLY42,42105,EasyAll,2,3,265,7,78.368,167.68,0,Medium,90,1,786.19
PLY42,42105,EasyAll,2,3,266,11,68.789,113.78,0,Hard,90,1,40.751
PLY42,42105,EasyAll,2,3,267,23,198.79,110.6,1,Medium,191,1,95.774
PLY42,42105,EasyAll,2,3,268,13,131.74,177.19,0,Hard,90,1,0.3959
PLY42,42105,EasyAll,2,3,269,1,25,158.15,0,Easy,90,1,36.165
PLY42,42105,EasyAll,2,3,270,1,25,158.15,0,Easy,90,1,306.01
PLY42,42105,EasyAll,2,3,271,28,220.68,88.411,1,Easy,191,1,170.76
PLY42,42105,EasyAll,2,3,272,16,112.58,69.373,1,Hard,191,1,105.91
PLY42,42105,EasyAll,2,3,273,10,172.79,262.78,0,Medium,90,1,375.85
PLY42,42105,EasyAll,2,3,274,11,68.789,113.78,0,Hard,191,0,570.66
PLY42,42105,EasyAll,2,3,275,21,135.84,47.187,1,Medium,191,1,186.2
PLY42,42105,EasyAll,2,3,276,8,109.84,199.37,0,Medium,90,1,625.04
PLY42,42105,EasyAll,2,3,277,27,189.21,56.691,1,Easy,191,1,230.84
PLY42,42105,EasyAll,2,3,278,7,78.368,167.68,0,Medium,90,1,115.7
PLY42,42105,EasyAll,2,3,279,28,220.68,88.411,1,Easy,191,1,295.2
PLY42,42105,EasyAll,2,3,280,25,261.74,174.01,1,Medium,191,1,15.367
PLY42,42105,EasyAll,2,3,281,9,141.32,231.09,0,Medium,90,1,60.898
PLY42,42105,EasyAll,2,3,282,27,189.21,56.691,1,Easy,191,1,166.17
PLY42,42105,EasyAll,2,3,283,12,100.26,145.47,0,Hard,90,1,760.86
PLY42,42105,EasyAll,2,3,284,29,252.16,120.1,1,Easy,191,1,190.41
PLY42,42105,EasyAll,2,3,285,15,196.05,240.6,0,Hard,90,1,565.2
PLY42,42105,EasyAll,2,3,286,5,150.89,285,0,Easy,90,1,130.83
PLY42,42105,EasyAll,2,3,287,13,131.74,177.19,0,Hard,191,0,540.64
PLY42,42105,EasyAll,2,3,288,14,163.21,208.88,0,Hard,90,1,365.41
PLY42,42105,EasyAll,2,3,289,14,163.21,208.88,0,Hard,90,1,4.6899
PLY42,42105,EasyAll,2,3,290,25,261.74,174.01,1,Medium,191,1,331.19
PLY42,42105,EasyAll,2,3,291,1,25,158.15,0,Easy,90,1,100.97
PLY42,42105,EasyAll,2,3,292,27,189.21,56.691,1,Easy,191,1,181.17
PLY42,42105,EasyAll,2,3,293,30,285,151.82,1,Easy,191,1,269.97
PLY42,42105,EasyAll,2,3,294,16,112.58,69.373,1,Hard,90,0,30.315
PLY42,42105,EasyAll,2,3,295,20,239.84,196.2,1,Hard,90,0,885.37
PLY42,42105,EasyAll,2,3,296,20,239.84,196.2,1,Hard,191,1,336.25
PLY42,42105,EasyAll,2,3,297,9,141.32,231.09,0,Medium,90,1,351.07
PLY42,42105,EasyAll,2,3,298,10,172.79,262.78,0,Medium,90,1,310.22
PLY42,42105,EasyAll,2,3,299,25,261.74,174.01,1,Medium,191,1,130.7
PLY42,42105,EasyAll,2,3,300,19,208.37,164.5,1,Hard,191,1,95.549
PLY42,42106,EasyAll,1,1,1,4,119.42,253.28,0,Easy,191,0,1372.5
PLY42,42106,EasyAll,1,1,2,27,189.21,56.691,1,Easy,90,0,546.01
PLY42,42106,EasyAll,1,1,3,27,189.21,56.691,1,Easy,191,1,431.24
PLY42,42106,EasyAll,1,1,4,4,119.42,253.28,0,Easy,90,1,205.02
PLY42,42106,EasyAll,1,1,5,1,25,158.15,0,Easy,191,0,145.57
PLY42,42106,EasyAll,1,1,6,30,285,151.82,1,Easy,191,1,610.01
PLY42,42106,EasyAll,1,1,7,28,220.68,88.411,1,Easy,191,1,120.54
PLY42,42106,EasyAll,1,1,8,4,119.42,253.28,0,Easy,90,1,311.09
PLY42,42106,EasyAll,1,1,9,28,220.68,88.411,1,Easy,191,1,120.56
PLY42,42106,EasyAll,1,1,10,26,157.74,25,1,Easy,191,1,196.11
PLY42,42106,EasyAll,1,1,11,5,150.89,285,0,Easy,191,0,135.19
PLY42,42106,EasyAll,1,1,12,26,157.74,25,1,Easy,191,1,715.06
PLY42,42106,EasyAll,1,1,13,2,56.474,189.87,0,Easy,191,0,400.6
PLY42,42106,EasyAll,1,1,14,2,56.474,189.87,0,Easy,90,1,410.78
PLY42,42106,EasyAll,1,1,15,27,189.21,56.691,1,Easy,191,1,110.2
PLY42,42106,EasyAll,1,1,16,4,119.42,253.28,0,Easy,90,1,415.79
PLY42,42106,EasyAll,1,1,17,26,157.74,25,1,Easy,191,1,30.23
PLY42,42106,EasyAll,1,1,18,5,150.89,285,0,Easy,90,1,145.23
PLY42,42106,EasyAll,1,1,19,28,220.68,88.411,1,Easy,90,0,635.31
PLY42,42106,EasyAll,1,1,20,2,56.474,189.87,0,Easy,191,0,1080.2
PLY42,42106,EasyAll,1,1,21,2,56.474,189.87,0,Easy,90,1,295
PLY42,42106,EasyAll,1,1,22,27,189.21,56.691,1,Easy,191,1,0.37133
PLY42,42106,EasyAll,1,1,23,26,157.74,25,1,Easy,191,1,425.39
PLY42,42106,EasyAll,1,1,24,3,87.947,221.56,0,Easy,90,1,101.25
PLY42,42106,EasyAll,1,1,25,27,189.21,56.691,1,Easy,191,1,390.42
PLY42,42106,EasyAll,1,1,26,3,87.947,221.56,0,Easy,90,1,110.24
PLY42,42106,EasyAll,1,1,27,30,285,151.82,1,Easy,191,1,0.67176
PLY42,42106,EasyAll,1,1,28,4,119.42,253.28,0,Easy,90,1,110.91
PLY42,42106,EasyAll,1,1,29,30,285,151.82,1,Easy,191,1,935.43
PLY42,42106,EasyAll,1,1,30,26,157.74,25,1,Easy,191,1,80.291
PLY42,42106,EasyAll,1,1,31,29,252.16,120.1,1,Easy,191,1,40.044
PLY42,42106,EasyAll,1,1,32,29,252.16,120.1,1,Easy,191,1,5.7585
PLY42,42106,EasyAll,1,1,33,1,25,158.15,0,Easy,90,1,101.15
PLY42,42106,EasyAll,1,1,34,29,252.16,120.1,1,Easy,191,1,15.26
PLY42,42106,EasyAll,1,1,35,1,25,158.15,0,Easy,90,1,155.78
PLY42,42106,EasyAll,1,1,36,28,220.68,88.411,1,Easy,191,1,781
PLY42,42106,EasyAll,1,1,37,2,56.474,189.87,0,Easy,90,1,155.75
PLY42,42106,EasyAll,1,1,38,5,150.89,285,0,Easy,90,1,120.98
PLY42,42106,EasyAll,1,1,39,5,150.89,285,0,Easy,90,1,125.46
PLY42,42106,EasyAll,1,1,40,30,285,151.82,1,Easy,191,1,565.31
PLY42,42106,EasyAll,1,1,41,30,285,151.82,1,Easy,191,1,50.835
PLY42,42106,EasyAll,1,1,42,4,119.42,253.28,0,Easy,90,1,46.006
PLY42,42106,EasyAll,1,1,43,3,87.947,221.56,0,Easy,90,1,155.2
PLY42,42106,EasyAll,1,1,44,30,285,151.82,1,Easy,191,1,0.40959
PLY42,42106,EasyAll,1,1,45,5,150.89,285,0,Easy,90,1,60.391
PLY42,42106,EasyAll,1,1,46,1,25,158.15,0,Easy,90,1,44.962
PLY42,42106,EasyAll,1,1,47,5,150.89,285,0,Easy,90,1,65.181
PLY42,42106,EasyAll,1,1,48,5,150.89,285,0,Easy,191,0,155.55
PLY42,42106,EasyAll,1,1,49,27,189.21,56.691,1,Easy,191,1,75.799
PLY42,42106,EasyAll,1,1,50,29,252.16,120.1,1,Easy,191,1,0.35205
PLY42,42106,EasyAll,1,2,51,3,87.947,221.56,0,Easy,90,1,100.75
PLY42,42106,EasyAll,1,2,52,4,119.42,253.28,0,Easy,90,1,335.96
PLY42,42106,EasyAll,1,2,53,29,252.16,120.1,1,Easy,191,1,486.1
PLY42,42106,EasyAll,1,2,54,3,87.947,221.56,0,Easy,90,1,275.68
PLY42,42106,EasyAll,1,2,55,3,87.947,221.56,0,Easy,90,1,60.454
PLY42,42106,EasyAll,1,2,56,29,252.16,120.1,1,Easy,191,1,521.02
PLY42,42106,EasyAll,1,2,57,29,252.16,120.1,1,Easy,191,1,0.38782
PLY42,42106,EasyAll,1,2,58,3,87.947,221.56,0,Easy,90,1,25.615
PLY42,42106,EasyAll,1,2,59,26,157.74,25,1,Easy,191,1,110.47
PLY42,42106,EasyAll,1,2,60,3,87.947,221.56,0,Easy,90,1,0.41674
PLY42,42106,EasyAll,1,2,61,26,157.74,25,1,Easy,191,1,0.31846
PLY42,42106,EasyAll,1,2,62,27,189.21,56.691,1,Easy,191,1,20.123
PLY42,42106,EasyAll,1,2,63,5,150.89,285,0,Easy,90,1,565.78
PLY42,42106,EasyAll,1,2,64,1,25,158.15,0,Easy,90,1,175.31
PLY42,42106,EasyAll,1,2,65,30,285,151.82,1,Easy,191,1,175.81
PLY42,42106,EasyAll,1,2,66,2,56.474,189.87,0,Easy,90,1,60.648
PLY42,42106,EasyAll,1,2,67,1,25,158.15,0,Easy,90,1,145.2
PLY42,42106,EasyAll,1,2,68,4,119.42,253.28,0,Easy,90,1,105.25
PLY42,42106,EasyAll,1,2,69,3,87.947,221.56,0,Easy,90,1,50.388
PLY42,42106,EasyAll,1,2,70,1,25,158.15,0,Easy,90,1,40.387
PLY42,42106,EasyAll,1,2,71,3,87.947,221.56,0,Easy,90,1,360.76
PLY42,42106,EasyAll,1,2,72,26,157.74,25,1,Easy,191,1,705.94
PLY42,42106,EasyAll,1,2,73,2,56.474,189.87,0,Easy,90,1,395.17
PLY42,42106,EasyAll,1,2,74,2,56.474,189.87,0,Easy,90,1,75.302
PLY42,42106,EasyAll,1,2,75,28,220.68,88.411,1,Easy,191,1,291.2
PLY42,42106,EasyAll,1,2,76,28,220.68,88.411,1,Easy,191,1,536.05
PLY42,42106,EasyAll,1,2,77,27,189.21,56.691,1,Easy,191,1,160.88
PLY42,42106,EasyAll,1,2,78,26,157.74,25,1,Easy,191,1,175.43
PLY42,42106,EasyAll,1,2,79,4,119.42,253.28,0,Easy,90,1,300.19
PLY42,42106,EasyAll,1,2,80,28,220.68,88.411,1,Easy,90,0,130.37
PLY42,42106,EasyAll,1,2,81,28,220.68,88.411,1,Easy,191,1,0.68545
PLY42,42106,EasyAll,1,2,82,4,119.42,253.28,0,Easy,90,1,145.4
PLY42,42106,EasyAll,1,2,83,5,150.89,285,0,Easy,90,1,110.57
PLY42,42106,EasyAll,1,2,84,27,189.21,56.691,1,Easy,191,1,0.67674
PLY42,42106,EasyAll,1,2,85,1,25,158.15,0,Easy,191,0,30.203
PLY42,42106,EasyAll,1,2,86,5,150.89,285,0,Easy,191,0,890.05
PLY42,42106,EasyAll,1,2,87,26,157.74,25,1,Easy,191,1,115.92
PLY42,42106,EasyAll,1,2,88,3,87.947,221.56,0,Easy,90,1,145.4
PLY42,42106,EasyAll,1,2,89,28,220.68,88.411,1,Easy,191,1,85.602
PLY42,42106,EasyAll,1,2,90,30,285,151.82,1,Easy,191,1,135.35
PLY42,42106,EasyAll,1,2,91,28,220.68,88.411,1,Easy,191,1,40.202
PLY42,42106,EasyAll,1,2,92,29,252.16,120.1,1,Easy,191,1,0.63631
PLY42,42106,EasyAll,1,2,93,30,285,151.82,1,Easy,191,1,0.67363
PLY42,42106,EasyAll,1,2,94,1,25,158.15,0,Easy,90,1,20.117
PLY42,42106,EasyAll,1,2,95,2,56.474,189.87,0,Easy,90,1,200.92
PLY42,42106,EasyAll,1,2,96,26,157.74,25,1,Easy,90,0,421.11
PLY42,42106,EasyAll,1,2,97,2,56.474,189.87,0,Easy,90,1,325.59
PLY42,42106,EasyAll,1,2,98,30,285,151.82,1,Easy,191,1,290.38
PLY42,42106,EasyAll,1,2,99,2,56.474,189.87,0,Easy,90,1,160.22
PLY42,42106,EasyAll,1,2,100,4,119.42,253.28,0,Easy,90,1,360.79
PLY42,42106,EasyAll,1,3,101,28,220.68,88.411,1,Easy,191,1,15.025
PLY42,42106,EasyAll,1,3,102,4,119.42,253.28,0,Easy,90,1,115.79
PLY42,42106,EasyAll,1,3,103,5,150.89,285,0,Easy,191,0,125.24
PLY42,42106,EasyAll,1,3,104,29,252.16,120.1,1,Easy,191,1,195.11
PLY42,42106,EasyAll,1,3,105,1,25,158.15,0,Easy,90,1,225.27
PLY42,42106,EasyAll,1,3,106,30,285,151.82,1,Easy,191,1,125.4
PLY42,42106,EasyAll,1,3,107,26,157.74,25,1,Easy,90,0,440.88
PLY42,42106,EasyAll,1,3,108,27,189.21,56.691,1,Easy,191,1,0.34334
PLY42,42106,EasyAll,1,3,109,3,87.947,221.56,0,Easy,90,1,140.95
PLY42,42106,EasyAll,1,3,110,30,285,151.82,1,Easy,191,1,115.78
PLY42,42106,EasyAll,1,3,111,1,25,158.15,0,Easy,90,1,125.3
PLY42,42106,EasyAll,1,3,112,1,25,158.15,0,Easy,90,1,101.11
PLY42,42106,EasyAll,1,3,113,28,220.68,88.411,1,Easy,191,1,15.285
PLY42,42106,EasyAll,1,3,114,5,150.89,285,0,Easy,90,1,310.77
PLY42,42106,EasyAll,1,3,115,5,150.89,285,0,Easy,90,1,60.215
PLY42,42106,EasyAll,1,3,116,27,189.21,56.691,1,Easy,191,1,35.759
PLY42,42106,EasyAll,1,3,117,3,87.947,221.56,0,Easy,90,1,80.633
PLY42,42106,EasyAll,1,3,118,1,25,158.15,0,Easy,90,1,225.4
PLY42,42106,EasyAll,1,3,119,29,252.16,120.1,1,Easy,191,1,61.288
PLY42,42106,EasyAll,1,3,120,29,252.16,120.1,1,Easy,191,1,50.749
PLY42,42106,EasyAll,1,3,121,29,252.16,120.1,1,Easy,191,1,0.63724
PLY42,42106,EasyAll,1,3,122,1,25,158.15,0,Easy,191,0,0.67176
PLY42,42106,EasyAll,1,3,123,28,220.68,88.411,1,Easy,191,1,0.31038
PLY42,42106,EasyAll,1,3,124,4,119.42,253.28,0,Easy,90,1,45.403
PLY42,42106,EasyAll,1,3,125,3,87.947,221.56,0,Easy,90,1,41.108
PLY42,42106,EasyAll,1,3,126,28,220.68,88.411,1,Easy,191,1,15.14
PLY42,42106,EasyAll,1,3,127,2,56.474,189.87,0,Easy,90,1,325.84
PLY42,42106,EasyAll,1,3,128,27,189.21,56.691,1,Easy,191,1,0.3648
PLY42,42106,EasyAll,1,3,129,30,285,151.82,1,Easy,191,1,105.89
PLY42,42106,EasyAll,1,3,130,1,25,158.15,0,Easy,90,1,221.07
PLY42,42106,EasyAll,1,3,131,29,252.16,120.1,1,Easy,191,1,0.8848
PLY42,42106,EasyAll,1,3,132,27,189.21,56.691,1,Easy,191,1,250.64
PLY42,42106,EasyAll,1,3,133,26,157.74,25,1,Easy,191,1,180.83
PLY42,42106,EasyAll,1,3,134,26,157.74,25,1,Easy,191,1,90.701
PLY42,42106,EasyAll,1,3,135,5,150.89,285,0,Easy,191,0,380.58
PLY42,42106,EasyAll,1,3,136,26,157.74,25,1,Easy,191,1,195.4
PLY42,42106,EasyAll,1,3,137,27,189.21,56.691,1,Easy,191,1,130.55
PLY42,42106,EasyAll,1,3,138,30,285,151.82,1,Easy,191,1,125.37
PLY42,42106,EasyAll,1,3,139,2,56.474,189.87,0,Easy,90,1,210.19
PLY42,42106,EasyAll,1,3,140,3,87.947,221.56,0,Easy,90,1,185.66
PLY42,42106,EasyAll,1,3,141,30,285,151.82,1,Easy,191,1,295.57
PLY42,42106,EasyAll,1,3,142,4,119.42,253.28,0,Easy,90,1,180.76
PLY42,42106,EasyAll,1,3,143,29,252.16,120.1,1,Easy,191,1,360.6
PLY42,42106,EasyAll,1,3,144,4,119.42,253.28,0,Easy,90,1,450.14
PLY42,42106,EasyAll,1,3,145,28,220.68,88.411,1,Easy,191,1,740.24
PLY42,42106,EasyAll,1,3,146,5,150.89,285,0,Easy,90,1,340.2
PLY42,42106,EasyAll,1,3,147,29,252.16,120.1,1,Easy,191,1,124.98
PLY42,42106,EasyAll,1,3,148,2,56.474,189.87,0,Easy,90,1,390.56
PLY42,42106,EasyAll,1,3,149,27,189.21,56.691,1,Easy,191,1,165.34
PLY42,42106,EasyAll,1,3,150,2,56.474,189.87,0,Easy,90,1,0.34677
PLY42,42106,EasyAll,2,1,151,11,68.789,113.78,0,Hard,191,0,1315.6
PLY42,42106,EasyAll,2,1,152,1,25,158.15,0,Easy,90,1,51.179
PLY42,42106,EasyAll,2,1,153,3,87.947,221.56,0,Easy,191,0,125.48
PLY42,42106,EasyAll,2,1,154,29,252.16,120.1,1,Easy,191,1,55.156
PLY42,42106,EasyAll,2,1,155,4,119.42,253.28,0,Easy,90,1,205.29
PLY42,42106,EasyAll,2,1,156,30,285,151.82,1,Easy,191,1,0.67705
PLY42,42106,EasyAll,2,1,157,12,100.26,145.47,0,Hard,90,1,175.67
PLY42,42106,EasyAll,2,1,158,16,112.58,69.373,1,Hard,90,0,160.4
PLY42,42106,EasyAll,2,1,159,22,167.32,78.878,1,Medium,191,1,4.7745
PLY42,42106,EasyAll,2,1,160,27,189.21,56.691,1,Easy,191,1,180.08
PLY42,42106,EasyAll,2,1,161,9,141.32,231.09,0,Medium,191,0,155.94
PLY42,42106,EasyAll,2,1,162,29,252.16,120.1,1,Easy,191,1,205.14
PLY42,42106,EasyAll,2,1,163,2,56.474,189.87,0,Easy,90,1,160.27
PLY42,42106,EasyAll,2,1,164,7,78.368,167.68,0,Medium,90,1,150.7
PLY42,42106,EasyAll,2,1,165,26,157.74,25,1,Easy,191,1,295.98
PLY42,42106,EasyAll,2,1,166,16,112.58,69.373,1,Hard,191,1,240.15
PLY42,42106,EasyAll,2,1,167,21,135.84,47.187,1,Medium,191,1,310.99
PLY42,42106,EasyAll,2,1,168,17,145.42,101.09,1,Hard,191,1,40.409
PLY42,42106,EasyAll,2,1,169,19,208.37,164.5,1,Hard,191,1,140.31
PLY42,42106,EasyAll,2,1,170,27,189.21,56.691,1,Easy,191,1,230.21
PLY42,42106,EasyAll,2,1,171,5,150.89,285,0,Easy,90,1,90.977
PLY42,42106,EasyAll,2,1,172,24,230.26,142.32,1,Medium,191,1,115.82
PLY42,42106,EasyAll,2,1,173,1,25,158.15,0,Easy,90,1,55.318
PLY42,42106,EasyAll,2,1,174,28,220.68,88.411,1,Easy,191,1,160.41
PLY42,42106,EasyAll,2,1,175,23,198.79,110.6,1,Medium,191,1,80.056
PLY42,42106,EasyAll,2,1,176,25,261.74,174.01,1,Medium,191,1,50.817
PLY42,42106,EasyAll,2,1,177,18,176.89,132.78,1,Hard,191,1,120.95
PLY42,42106,EasyAll,2,1,178,10,172.79,262.78,0,Medium,191,0,535.35
PLY42,42106,EasyAll,2,1,179,21,135.84,47.187,1,Medium,191,1,120.29
PLY42,42106,EasyAll,2,1,180,9,141.32,231.09,0,Medium,191,0,130.81
PLY42,42106,EasyAll,2,1,181,11,68.789,113.78,0,Hard,90,1,115.65
PLY42,42106,EasyAll,2,1,182,8,109.84,199.37,0,Medium,90,1,135.14
PLY42,42106,EasyAll,2,1,183,3,87.947,221.56,0,Easy,90,1,55.903
PLY42,42106,EasyAll,2,1,184,24,230.26,142.32,1,Medium,191,1,0.37009
PLY42,42106,EasyAll,2,1,185,19,208.37,164.5,1,Hard,191,1,0.33526
PLY42,42106,EasyAll,2,1,186,20,239.84,196.2,1,Hard,90,0,45.444
PLY42,42106,EasyAll,2,1,187,16,112.58,69.373,1,Hard,90,0,105.56
PLY42,42106,EasyAll,2,1,188,23,198.79,110.6,1,Medium,191,1,0.33712
PLY42,42106,EasyAll,2,1,189,5,150.89,285,0,Easy,191,0,35.945
PLY42,42106,EasyAll,2,1,190,24,230.26,142.32,1,Medium,191,1,230.81
PLY42,42106,EasyAll,2,1,191,4,119.42,253.28,0,Easy,90,1,220.58
PLY42,42106,EasyAll,2,1,192,6,46.895,135.96,0,Medium,90,1,186.07
PLY42,42106,EasyAll,2,1,193,8,109.84,199.37,0,Medium,90,1,506.96
PLY42,42106,EasyAll,2,1,194,15,196.05,240.6,0,Hard,191,0,290.23
PLY42,42106,EasyAll,2,1,195,30,285,151.82,1,Easy,191,1,26.167
PLY42,42106,EasyAll,2,1,196,12,100.26,145.47,0,Hard,90,1,310.76
PLY42,42106,EasyAll,2,1,197,5,150.89,285,0,Easy,90,1,180.3
PLY42,42106,EasyAll,2,1,198,17,145.42,101.09,1,Hard,90,0,191.14
PLY42,42106,EasyAll,2,1,199,23,198.79,110.6,1,Medium,191,1,535.98
PLY42,42106,EasyAll,2,1,200,13,131.74,177.19,0,Hard,90,1,326.15
PLY42,42106,EasyAll,2,2,201,11,68.789,113.78,0,Hard,90,1,250.68
PLY42,42106,EasyAll,2,2,202,14,163.21,208.88,0,Hard,191,0,340.87
PLY42,42106,EasyAll,2,2,203,1,25,158.15,0,Easy,90,1,395.73
PLY42,42106,EasyAll,2,2,204,26,157.74,25,1,Easy,191,1,405.89
PLY42,42106,EasyAll,2,2,205,18,176.89,132.78,1,Hard,191,1,436.12
PLY42,42106,EasyAll,2,2,206,1,25,158.15,0,Easy,90,1,140.92
PLY42,42106,EasyAll,2,2,207,7,78.368,167.68,0,Medium,90,1,300.7
PLY42,42106,EasyAll,2,2,208,20,239.84,196.2,1,Hard,191,1,280.98
PLY42,42106,EasyAll,2,2,209,21,135.84,47.187,1,Medium,90,0,100.73
PLY42,42106,EasyAll,2,2,210,12,100.26,145.47,0,Hard,90,1,95.936
PLY42,42106,EasyAll,2,2,211,13,131.74,177.19,0,Hard,90,1,231.13
PLY42,42106,EasyAll,2,2,212,29,252.16,120.1,1,Easy,191,1,210.91
PLY42,42106,EasyAll,2,2,213,22,167.32,78.878,1,Medium,191,1,400.48
PLY42,42106,EasyAll,2,2,214,2,56.474,189.87,0,Easy,90,1,105.58
PLY42,42106,EasyAll,2,2,215,20,239.84,196.2,1,Hard,191,1,155.79
PLY42,42106,EasyAll,2,2,216,29,252.16,120.1,1,Easy,191,1,160.95
PLY42,42106,EasyAll,2,2,217,15,196.05,240.6,0,Hard,191,0,295.47
PLY42,42106,EasyAll,2,2,218,5,150.89,285,0,Easy,90,1,420.64
PLY42,42106,EasyAll,2,2,219,11,68.789,113.78,0,Hard,90,1,175.19
PLY42,42106,EasyAll,2,2,220,20,239.84,196.2,1,Hard,191,1,136.01
PLY42,42106,EasyAll,2,2,221,22,167.32,78.878,1,Medium,191,1,45.783
PLY42,42106,EasyAll,2,2,222,6,46.895,135.96,0,Medium,90,1,325.93
PLY42,42106,EasyAll,2,2,223,11,68.789,113.78,0,Hard,90,1,346.58
PLY42,42106,EasyAll,2,2,224,14,163.21,208.88,0,Hard,90,1,270.03
PLY42,42106,EasyAll,2,2,225,26,157.74,25,1,Easy,191,1,230.49
PLY42,42106,EasyAll,2,2,226,19,208.37,164.5,1,Hard,191,1,130.35
PLY42,42106,EasyAll,2,2,227,1,25,158.15,0,Easy,90,1,220.24
PLY42,42106,EasyAll,2,2,228,17,145.42,101.09,1,Hard,90,0,435.68
PLY42,42106,EasyAll,2,2,229,28,220.68,88.411,1,Easy,191,1,0.40368
PLY42,42106,EasyAll,2,2,230,21,135.84,47.187,1,Medium,90,0,285.7
PLY42,42106,EasyAll,2,2,231,3,87.947,221.56,0,Easy,90,1,265.52
PLY42,42106,EasyAll,2,2,232,27,189.21,56.691,1,Easy,191,1,0.6814
PLY42,42106,EasyAll,2,2,233,2,56.474,189.87,0,Easy,90,1,90.206
PLY42,42106,EasyAll,2,2,234,6,46.895,135.96,0,Medium,90,1,141.03
PLY42,42106,EasyAll,2,2,235,27,189.21,56.691,1,Easy,191,1,186.54
PLY42,42106,EasyAll,2,2,236,4,119.42,253.28,0,Easy,90,1,210.74
PLY42,42106,EasyAll,2,2,237,9,141.32,231.09,0,Medium,191,0,466.2
PLY42,42106,EasyAll,2,2,238,6,46.895,135.96,0,Medium,90,1,465.72
PLY42,42106,EasyAll,2,2,239,13,131.74,177.19,0,Hard,191,0,865.13
PLY42,42106,EasyAll,2,2,240,3,87.947,221.56,0,Easy,90,1,160.8
PLY42,42106,EasyAll,2,2,241,30,285,151.82,1,Easy,191,1,0.65279
PLY42,42106,EasyAll,2,2,242,30,285,151.82,1,Easy,191,1,45.394
PLY42,42106,EasyAll,2,2,243,15,196.05,240.6,0,Hard,191,0,170.77
PLY42,42106,EasyAll,2,2,244,19,208.37,164.5,1,Hard,191,1,85.092
PLY42,42106,EasyAll,2,2,245,18,176.89,132.78,1,Hard,191,1,195.94
PLY42,42106,EasyAll,2,2,246,12,100.26,145.47,0,Hard,90,1,0.59588
PLY42,42106,EasyAll,2,2,247,13,131.74,177.19,0,Hard,90,1,370.25
PLY42,42106,EasyAll,2,2,248,29,252.16,120.1,1,Easy,191,1,0.40026
PLY42,42106,EasyAll,2,2,249,25,261.74,174.01,1,Medium,191,1,40.906
PLY42,42106,EasyAll,2,2,250,21,135.84,47.187,1,Medium,90,0,410.77
PLY42,42106,EasyAll,2,3,251,23,198.79,110.6,1,Medium,191,1,0.41705
PLY42,42106,EasyAll,2,3,252,16,112.58,69.373,1,Hard,191,1,430.41
PLY42,42106,EasyAll,2,3,253,7,78.368,167.68,0,Medium,90,1,265.31
PLY42,42106,EasyAll,2,3,254,6,46.895,135.96,0,Medium,90,1,285.83
PLY42,42106,EasyAll,2,3,255,10,172.79,262.78,0,Medium,191,0,530.66
PLY42,42106,EasyAll,2,3,256,15,196.05,240.6,0,Hard,191,0,280.46
PLY42,42106,EasyAll,2,3,257,14,163.21,208.88,0,Hard,90,1,300.98
PLY42,42106,EasyAll,2,3,258,17,145.42,101.09,1,Hard,191,1,870.18
PLY42,42106,EasyAll,2,3,259,18,176.89,132.78,1,Hard,191,1,50.692
PLY42,42106,EasyAll,2,3,260,8,109.84,199.37,0,Medium,90,1,645.93
PLY42,42106,EasyAll,2,3,261,14,163.21,208.88,0,Hard,191,0,131.07
PLY42,42106,EasyAll,2,3,262,2,56.474,189.87,0,Easy,90,1,215.11
PLY42,42106,EasyAll,2,3,263,26,157.74,25,1,Easy,191,1,89.977
PLY42,42106,EasyAll,2,3,264,14,163.21,208.88,0,Hard,191,0,615.06
PLY42,42106,EasyAll,2,3,265,23,198.79,110.6,1,Medium,191,1,115.43
PLY42,42106,EasyAll,2,3,266,7,78.368,167.68,0,Medium,90,1,100.22
PLY42,42106,EasyAll,2,3,267,19,208.37,164.5,1,Hard,191,1,0.64346
PLY42,42106,EasyAll,2,3,268,10,172.79,262.78,0,Medium,191,0,195.33
PLY42,42106,EasyAll,2,3,269,12,100.26,145.47,0,Hard,191,0,80.059
PLY42,42106,EasyAll,2,3,270,30,285,151.82,1,Easy,191,1,24.794
PLY42,42106,EasyAll,2,3,271,15,196.05,240.6,0,Hard,191,0,480.5
PLY42,42106,EasyAll,2,3,272,24,230.26,142.32,1,Medium,191,1,115.41
PLY42,42106,EasyAll,2,3,273,2,56.474,189.87,0,Easy,191,0,405.78
PLY42,42106,EasyAll,2,3,274,8,109.84,199.37,0,Medium,90,1,551.98
PLY42,42106,EasyAll,2,3,275,22,167.32,78.878,1,Medium,191,1,201.19
PLY42,42106,EasyAll,2,3,276,18,176.89,132.78,1,Hard,191,1,845.29
PLY42,42106,EasyAll,2,3,277,17,145.42,101.09,1,Hard,191,1,410.54
PLY42,42106,EasyAll,2,3,278,10,172.79,262.78,0,Medium,90,1,490.09
PLY42,42106,EasyAll,2,3,279,28,220.68,88.411,1,Easy,191,1,115.87
PLY42,42106,EasyAll,2,3,280,20,239.84,196.2,1,Hard,191,1,30.369
PLY42,42106,EasyAll,2,3,281,9,141.32,231.09,0,Medium,90,1,401.27
PLY42,42106,EasyAll,2,3,282,10,172.79,262.78,0,Medium,90,1,480.43
PLY42,42106,EasyAll,2,3,283,4,119.42,253.28,0,Easy,90,1,825.36
PLY42,42106,EasyAll,2,3,284,24,230.26,142.32,1,Medium,191,1,31.191
PLY42,42106,EasyAll,2,3,285,28,220.68,88.411,1,Easy,191,1,196
PLY42,42106,EasyAll,2,3,286,27,189.21,56.691,1,Easy,191,1,131.18
PLY42,42106,EasyAll,2,3,287,8,109.84,199.37,0,Medium,90,1,210.04
PLY42,42106,EasyAll,2,3,288,7,78.368,167.68,0,Medium,90,1,105.46
PLY42,42106,EasyAll,2,3,289,3,87.947,221.56,0,Easy,90,1,345.7
PLY42,42106,EasyAll,2,3,290,28,220.68,88.411,1,Easy,191,1,0.38471
PLY42,42106,EasyAll,2,3,291,9,141.32,231.09,0,Medium,90,1,296.01
PLY42,42106,EasyAll,2,3,292,25,261.74,174.01,1,Medium,191,1,26.208
PLY42,42106,EasyAll,2,3,293,25,261.74,174.01,1,Medium,191,1,44.965
PLY42,42106,EasyAll,2,3,294,16,112.58,69.373,1,Hard,90,0,211.2
PLY42,42106,EasyAll,2,3,295,25,261.74,174.01,1,Medium,191,1,80.683
PLY42,42106,EasyAll,2,3,296,22,167.32,78.878,1,Medium,191,1,0.35081
PLY42,42106,EasyAll,2,3,297,13,131.74,177.19,0,Hard,90,1,385.63
PLY42,42106,EasyAll,2,3,298,26,157.74,25,1,Easy,191,1,400.44
PLY42,42106,EasyAll,2,3,299,5,150.89,285,0,Easy,90,1,190.61
PLY42,42106,EasyAll,2,3,300,4,119.42,253.28,0,Easy,90,1,235.57
PLY42,42107,EasyAll,1,1,1,29,252.16,120.1,1,Easy,90,0,2012.5
PLY42,42107,EasyAll,1,1,2,30,285,151.82,1,Easy,191,1,2185.6
PLY42,42107,EasyAll,1,1,3,26,157.74,25,1,Easy,191,1,985.98
PLY42,42107,EasyAll,1,1,4,30,285,151.82,1,Easy,191,1,720.66
PLY42,42107,EasyAll,1,1,5,26,157.74,25,1,Easy,191,1,611.19
PLY42,42107,EasyAll,1,1,6,5,150.89,285,0,Easy,90,1,460.66
PLY42,42107,EasyAll,1,1,7,27,189.21,56.691,1,Easy,191,1,305.23
PLY42,42107,EasyAll,1,1,8,4,119.42,253.28,0,Easy,90,1,440.3
PLY42,42107,EasyAll,1,1,9,28,220.68,88.411,1,Easy,191,1,520.17
PLY42,42107,EasyAll,1,1,10,29,252.16,120.1,1,Easy,191,1,610.73
PLY42,42107,EasyAll,1,1,11,3,87.947,221.56,0,Easy,90,1,535.27
PLY42,42107,EasyAll,1,1,12,28,220.68,88.411,1,Easy,191,1,461.22
PLY42,42107,EasyAll,1,1,13,1,25,158.15,0,Easy,191,0,755.67
PLY42,42107,EasyAll,1,1,14,29,252.16,120.1,1,Easy,191,1,1295.9
PLY42,42107,EasyAll,1,1,15,26,157.74,25,1,Easy,191,1,1356.2
PLY42,42107,EasyAll,1,1,16,27,189.21,56.691,1,Easy,191,1,705.95
PLY42,42107,EasyAll,1,1,17,30,285,151.82,1,Easy,90,0,595.5
PLY42,42107,EasyAll,1,1,18,28,220.68,88.411,1,Easy,191,1,525.76
PLY42,42107,EasyAll,1,1,19,29,252.16,120.1,1,Easy,191,1,500.62
PLY42,42107,EasyAll,1,1,20,28,220.68,88.411,1,Easy,191,1,445.85
PLY42,42107,EasyAll,1,1,21,29,252.16,120.1,1,Easy,191,1,425.06
PLY42,42107,EasyAll,1,1,22,26,157.74,25,1,Easy,191,1,645.91
PLY42,42107,EasyAll,1,1,23,1,25,158.15,0,Easy,90,1,561.05
PLY42,42107,EasyAll,1,1,24,27,189.21,56.691,1,Easy,191,1,370.54
PLY42,42107,EasyAll,1,1,25,5,150.89,285,0,Easy,90,1,985.17
PLY42,42107,EasyAll,1,1,26,3,87.947,221.56,0,Easy,191,0,471.08
PLY42,42107,EasyAll,1,1,27,3,87.947,221.56,0,Easy,90,1,505.46
PLY42,42107,EasyAll,1,1,28,28,220.68,88.411,1,Easy,191,1,445.7
PLY42,42107,EasyAll,1,1,29,1,25,158.15,0,Easy,90,1,570.87
PLY42,42107,EasyAll,1,1,30,30,285,151.82,1,Easy,191,1,520.45
PLY42,42107,EasyAll,1,1,31,4,119.42,253.28,0,Easy,90,1,461.95
PLY42,42107,EasyAll,1,1,32,3,87.947,221.56,0,Easy,90,1,470.46
PLY42,42107,EasyAll,1,1,33,30,285,151.82,1,Easy,191,1,510.96
PLY42,42107,EasyAll,1,1,34,27,189.21,56.691,1,Easy,191,1,480.56
PLY42,42107,EasyAll,1,1,35,5,150.89,285,0,Easy,90,1,540.4
PLY42,42107,EasyAll,1,1,36,29,252.16,120.1,1,Easy,191,1,695.22
PLY42,42107,EasyAll,1,1,37,30,285,151.82,1,Easy,191,1,605.96
PLY42,42107,EasyAll,1,1,38,26,157.74,25,1,Easy,191,1,510.64
PLY42,42107,EasyAll,1,1,39,27,189.21,56.691,1,Easy,191,1,551.14
PLY42,42107,EasyAll,1,1,40,3,87.947,221.56,0,Easy,90,1,415.26
PLY42,42107,EasyAll,1,1,41,5,150.89,285,0,Easy,90,1,500.79
PLY42,42107,EasyAll,1,1,42,2,56.474,189.87,0,Easy,191,0,660.77
PLY42,42107,EasyAll,1,1,43,1,25,158.15,0,Easy,90,1,375.49
PLY42,42107,EasyAll,1,1,44,30,285,151.82,1,Easy,191,1,455.47
PLY42,42107,EasyAll,1,1,45,26,157.74,25,1,Easy,191,1,530.63
PLY42,42107,EasyAll,1,1,46,29,252.16,120.1,1,Easy,191,1,635.55
PLY42,42107,EasyAll,1,1,47,29,252.16,120.1,1,Easy,191,1,640.36
PLY42,42107,EasyAll,1,1,48,30,285,151.82,1,Easy,191,1,700.2
PLY42,42107,EasyAll,1,1,49,4,119.42,253.28,0,Easy,90,1,490.42
PLY42,42107,EasyAll,1,1,50,26,157.74,25,1,Easy,191,1,450.15
PLY42,42107,EasyAll,1,2,51,5,150.89,285,0,Easy,90,1,465.47
PLY42,42107,EasyAll,1,2,52,30,285,151.82,1,Easy,191,1,520.9
PLY42,42107,EasyAll,1,2,53,2,56.474,189.87,0,Easy,90,1,420.49
PLY42,42107,EasyAll,1,2,54,28,220.68,88.411,1,Easy,191,1,391
PLY42,42107,EasyAll,1,2,55,28,220.68,88.411,1,Easy,191,1,495.85
PLY42,42107,EasyAll,1,2,56,30,285,151.82,1,Easy,191,1,420.04
PLY42,42107,EasyAll,1,2,57,2,56.474,189.87,0,Easy,90,1,425.6
PLY42,42107,EasyAll,1,2,58,27,189.21,56.691,1,Easy,191,1,540.38
PLY42,42107,EasyAll,1,2,59,29,252.16,120.1,1,Easy,191,1,565.27
PLY42,42107,EasyAll,1,2,60,3,87.947,221.56,0,Easy,90,1,385.77
PLY42,42107,EasyAll,1,2,61,30,285,151.82,1,Easy,191,1,505.67
PLY42,42107,EasyAll,1,2,62,28,220.68,88.411,1,Easy,191,1,730.88
PLY42,42107,EasyAll,1,2,63,4,119.42,253.28,0,Easy,90,1,411.39
PLY42,42107,EasyAll,1,2,64,4,119.42,253.28,0,Easy,90,1,410.25
PLY42,42107,EasyAll,1,2,65,5,150.89,285,0,Easy,90,1,360.74
PLY42,42107,EasyAll,1,2,66,4,119.42,253.28,0,Easy,90,1,385.27
PLY42,42107,EasyAll,1,2,67,5,150.89,285,0,Easy,90,1,350.17
PLY42,42107,EasyAll,1,2,68,4,119.42,253.28,0,Easy,90,1,405.31
PLY42,42107,EasyAll,1,2,69,28,220.68,88.411,1,Easy,191,1,357.46
PLY42,42107,EasyAll,1,2,70,5,150.89,285,0,Easy,90,1,395.64
PLY42,42107,EasyAll,1,2,71,2,56.474,189.87,0,Easy,90,1,465.82
PLY42,42107,EasyAll,1,2,72,4,119.42,253.28,0,Easy,90,1,590.33
PLY42,42107,EasyAll,1,2,73,27,189.21,56.691,1,Easy,191,1,475.58
PLY42,42107,EasyAll,1,2,74,2,56.474,189.87,0,Easy,90,1,535.4
PLY42,42107,EasyAll,1,2,75,3,87.947,221.56,0,Easy,90,1,560.19
PLY42,42107,EasyAll,1,2,76,29,252.16,120.1,1,Easy,191,1,390.83
PLY42,42107,EasyAll,1,2,77,2,56.474,189.87,0,Easy,90,1,445.54
PLY42,42107,EasyAll,1,2,78,30,285,151.82,1,Easy,191,1,550.84
PLY42,42107,EasyAll,1,2,79,26,157.74,25,1,Easy,191,1,526.71
PLY42,42107,EasyAll,1,2,80,2,56.474,189.87,0,Easy,90,1,535.86
PLY42,42107,EasyAll,1,2,81,26,157.74,25,1,Easy,191,1,450.76
PLY42,42107,EasyAll,1,2,82,5,150.89,285,0,Easy,90,1,375.85
PLY42,42107,EasyAll,1,2,83,27,189.21,56.691,1,Easy,191,1,450.8
PLY42,42107,EasyAll,1,2,84,28,220.68,88.411,1,Easy,191,1,385.92
PLY42,42107,EasyAll,1,2,85,29,252.16,120.1,1,Easy,191,1,445.83
PLY42,42107,EasyAll,1,2,86,30,285,151.82,1,Easy,191,1,426.06
PLY42,42107,EasyAll,1,2,87,28,220.68,88.411,1,Easy,191,1,865.83
PLY42,42107,EasyAll,1,2,88,1,25,158.15,0,Easy,90,1,485.31
PLY42,42107,EasyAll,1,2,89,3,87.947,221.56,0,Easy,191,0,415.22
PLY42,42107,EasyAll,1,2,90,26,157.74,25,1,Easy,191,1,1250.8
PLY42,42107,EasyAll,1,2,91,27,189.21,56.691,1,Easy,191,1,486.03
PLY42,42107,EasyAll,1,2,92,4,119.42,253.28,0,Easy,90,1,410.88
PLY42,42107,EasyAll,1,2,93,2,56.474,189.87,0,Easy,90,1,575.33
PLY42,42107,EasyAll,1,2,94,5,150.89,285,0,Easy,90,1,421.16
PLY42,42107,EasyAll,1,2,95,3,87.947,221.56,0,Easy,90,1,530.73
PLY42,42107,EasyAll,1,2,96,3,87.947,221.56,0,Easy,90,1,435.72
PLY42,42107,EasyAll,1,2,97,1,25,158.15,0,Easy,90,1,530.45
PLY42,42107,EasyAll,1,2,98,3,87.947,221.56,0,Easy,90,1,520.34
PLY42,42107,EasyAll,1,2,99,2,56.474,189.87,0,Easy,90,1,355.84
PLY42,42107,EasyAll,1,2,100,26,157.74,25,1,Easy,191,1,459.97
PLY42,42107,EasyAll,1,3,101,4,119.42,253.28,0,Easy,90,1,395.49
PLY42,42107,EasyAll,1,3,102,4,119.42,253.28,0,Easy,90,1,345.59
PLY42,42107,EasyAll,1,3,103,1,25,158.15,0,Easy,90,1,395.91
PLY42,42107,EasyAll,1,3,104,1,25,158.15,0,Easy,90,1,411.09
PLY42,42107,EasyAll,1,3,105,28,220.68,88.411,1,Easy,191,1,390.54
PLY42,42107,EasyAll,1,3,106,26,157.74,25,1,Easy,191,1,310.45
PLY42,42107,EasyAll,1,3,107,5,150.89,285,0,Easy,90,1,351.02
PLY42,42107,EasyAll,1,3,108,2,56.474,189.87,0,Easy,90,1,470.11
PLY42,42107,EasyAll,1,3,109,2,56.474,189.87,0,Easy,90,1,280.65
PLY42,42107,EasyAll,1,3,110,27,189.21,56.691,1,Easy,191,1,605.56
PLY42,42107,EasyAll,1,3,111,30,285,151.82,1,Easy,191,1,491.61
PLY42,42107,EasyAll,1,3,112,1,25,158.15,0,Easy,90,1,435.95
PLY42,42107,EasyAll,1,3,113,4,119.42,253.28,0,Easy,90,1,395.78
PLY42,42107,EasyAll,1,3,114,2,56.474,189.87,0,Easy,90,1,615.88
PLY42,42107,EasyAll,1,3,115,26,157.74,25,1,Easy,191,1,565.52
PLY42,42107,EasyAll,1,3,116,3,87.947,221.56,0,Easy,90,1,476
PLY42,42107,EasyAll,1,3,117,5,150.89,285,0,Easy,90,1,420.78
PLY42,42107,EasyAll,1,3,118,3,87.947,221.56,0,Easy,90,1,330.28
PLY42,42107,EasyAll,1,3,119,26,157.74,25,1,Easy,191,1,365.2
PLY42,42107,EasyAll,1,3,120,29,252.16,120.1,1,Easy,191,1,525.71
PLY42,42107,EasyAll,1,3,121,3,87.947,221.56,0,Easy,90,1,555.6
PLY42,42107,EasyAll,1,3,122,5,150.89,285,0,Easy,90,1,485.79
PLY42,42107,EasyAll,1,3,123,1,25,158.15,0,Easy,90,1,495.65
PLY42,42107,EasyAll,1,3,124,28,220.68,88.411,1,Easy,191,1,435.81
PLY42,42107,EasyAll,1,3,125,29,252.16,120.1,1,Easy,191,1,600.52
PLY42,42107,EasyAll,1,3,126,26,157.74,25,1,Easy,191,1,460.88
PLY42,42107,EasyAll,1,3,127,28,220.68,88.411,1,Easy,191,1,385.34
PLY42,42107,EasyAll,1,3,128,27,189.21,56.691,1,Easy,191,1,335.24
PLY42,42107,EasyAll,1,3,129,1,25,158.15,0,Easy,90,1,455.05
PLY42,42107,EasyAll,1,3,130,2,56.474,189.87,0,Easy,90,1,410.26
PLY42,42107,EasyAll,1,3,131,4,119.42,253.28,0,Easy,90,1,400.8
PLY42,42107,EasyAll,1,3,132,1,25,158.15,0,Easy,90,1,340.94
PLY42,42107,EasyAll,1,3,133,2,56.474,189.87,0,Easy,90,1,720.78
PLY42,42107,EasyAll,1,3,134,29,252.16,120.1,1,Easy,191,1,510.29
PLY42,42107,EasyAll,1,3,135,5,150.89,285,0,Easy,90,1,530.76
PLY42,42107,EasyAll,1,3,136,4,119.42,253.28,0,Easy,90,1,715.7
PLY42,42107,EasyAll,1,3,137,27,189.21,56.691,1,Easy,191,1,570.27
PLY42,42107,EasyAll,1,3,138,30,285,151.82,1,Easy,191,1,490.76
PLY42,42107,EasyAll,1,3,139,1,25,158.15,0,Easy,191,0,630.65
PLY42,42107,EasyAll,1,3,140,1,25,158.15,0,Easy,90,1,580.55
PLY42,42107,EasyAll,1,3,141,27,189.21,56.691,1,Easy,191,1,535.45
PLY42,42107,EasyAll,1,3,142,2,56.474,189.87,0,Easy,191,0,480.15
PLY42,42107,EasyAll,1,3,143,4,119.42,253.28,0,Easy,90,1,410.36
PLY42,42107,EasyAll,1,3,144,5,150.89,285,0,Easy,90,1,400.61
PLY42,42107,EasyAll,1,3,145,1,25,158.15,0,Easy,90,1,565.78
PLY42,42107,EasyAll,1,3,146,27,189.21,56.691,1,Easy,90,0,470.27
PLY42,42107,EasyAll,1,3,147,3,87.947,221.56,0,Easy,90,1,465.85
PLY42,42107,EasyAll,1,3,148,27,189.21,56.691,1,Easy,191,1,405.37
PLY42,42107,EasyAll,1,3,149,28,220.68,88.411,1,Easy,191,1,490.54
PLY42,42107,EasyAll,1,3,150,29,252.16,120.1,1,Easy,191,1,565.41
PLY42,42107,EasyAll,2,1,151,17,145.42,101.09,1,Hard,90,0,1470.6
PLY42,42107,EasyAll,2,1,152,2,56.474,189.87,0,Easy,191,0,491.18
PLY42,42107,EasyAll,2,1,153,9,141.32,231.09,0,Medium,90,1,405.98
PLY42,42107,EasyAll,2,1,154,6,46.895,135.96,0,Medium,90,1,411.18
PLY42,42107,EasyAll,2,1,155,19,208.37,164.5,1,Hard,90,0,335.65
PLY42,42107,EasyAll,2,1,156,15,196.05,240.6,0,Hard,90,1,280.5
PLY42,42107,EasyAll,2,1,157,17,145.42,101.09,1,Hard,191,1,290.21
PLY42,42107,EasyAll,2,1,158,21,135.84,47.187,1,Medium,191,1,495.17
PLY42,42107,EasyAll,2,1,159,8,109.84,199.37,0,Medium,90,1,410.37
PLY42,42107,EasyAll,2,1,160,11,68.789,113.78,0,Hard,90,1,431.87
PLY42,42107,EasyAll,2,1,161,19,208.37,164.5,1,Hard,90,0,650.73
PLY42,42107,EasyAll,2,1,162,23,198.79,110.6,1,Medium,191,1,460.97
PLY42,42107,EasyAll,2,1,163,3,87.947,221.56,0,Easy,90,1,435.48
PLY42,42107,EasyAll,2,1,164,28,220.68,88.411,1,Easy,191,1,470.36
PLY42,42107,EasyAll,2,1,165,13,131.74,177.19,0,Hard,191,0,540.8
PLY42,42107,EasyAll,2,1,166,14,163.21,208.88,0,Hard,90,1,345.76
PLY42,42107,EasyAll,2,1,167,4,119.42,253.28,0,Easy,90,1,665.94
PLY42,42107,EasyAll,2,1,168,18,176.89,132.78,1,Hard,191,1,575.49
PLY42,42107,EasyAll,2,1,169,22,167.32,78.878,1,Medium,191,1,715.32
PLY42,42107,EasyAll,2,1,170,1,25,158.15,0,Easy,191,0,600.04
PLY42,42107,EasyAll,2,1,171,5,150.89,285,0,Easy,90,1,350.63
PLY42,42107,EasyAll,2,1,172,2,56.474,189.87,0,Easy,90,1,380.88
PLY42,42107,EasyAll,2,1,173,23,198.79,110.6,1,Medium,90,0,575.13
PLY42,42107,EasyAll,2,1,174,16,112.58,69.373,1,Hard,191,1,731.04
PLY42,42107,EasyAll,2,1,175,30,285,151.82,1,Easy,90,0,580.38
PLY42,42107,EasyAll,2,1,176,9,141.32,231.09,0,Medium,90,1,330.08
PLY42,42107,EasyAll,2,1,177,18,176.89,132.78,1,Hard,191,1,465.2
PLY42,42107,EasyAll,2,1,178,29,252.16,120.1,1,Easy,191,1,325.11
PLY42,42107,EasyAll,2,1,179,6,46.895,135.96,0,Medium,191,0,325.9
PLY42,42107,EasyAll,2,1,180,19,208.37,164.5,1,Hard,191,1,430.72
PLY42,42107,EasyAll,2,1,181,3,87.947,221.56,0,Easy,90,1,300.58
PLY42,42107,EasyAll,2,1,182,18,176.89,132.78,1,Hard,191,1,507.21
PLY42,42107,EasyAll,2,1,183,11,68.789,113.78,0,Hard,191,0,550.98
PLY42,42107,EasyAll,2,1,184,23,198.79,110.6,1,Medium,191,1,456.2
PLY42,42107,EasyAll,2,1,185,15,196.05,240.6,0,Hard,90,1,345.3
PLY42,42107,EasyAll,2,1,186,27,189.21,56.691,1,Easy,191,1,465.49
PLY42,42107,EasyAll,2,1,187,11,68.789,113.78,0,Hard,90,1,0.34583
PLY42,42107,EasyAll,2,1,188,7,78.368,167.68,0,Medium,90,1,421.21
PLY42,42107,EasyAll,2,1,189,18,176.89,132.78,1,Hard,191,1,290.6
PLY42,42107,EasyAll,2,1,190,24,230.26,142.32,1,Medium,191,1,350.57
PLY42,42107,EasyAll,2,1,191,12,100.26,145.47,0,Hard,90,1,620.75
PLY42,42107,EasyAll,2,1,192,12,100.26,145.47,0,Hard,90,1,345.2
PLY42,42107,EasyAll,2,1,193,15,196.05,240.6,0,Hard,90,1,360.37
PLY42,42107,EasyAll,2,1,194,16,112.58,69.373,1,Hard,90,0,505.93
PLY42,42107,EasyAll,2,1,195,1,25,158.15,0,Easy,90,1,530.21
PLY42,42107,EasyAll,2,1,196,10,172.79,262.78,0,Medium,191,0,0.59525
PLY42,42107,EasyAll,2,1,197,8,109.84,199.37,0,Medium,191,0,586.19
PLY42,42107,EasyAll,2,1,198,20,239.84,196.2,1,Hard,90,0,606.77
PLY42,42107,EasyAll,2,1,199,10,172.79,262.78,0,Medium,90,1,405.21
PLY42,42107,EasyAll,2,1,200,24,230.26,142.32,1,Medium,90,0,685.4
PLY42,42107,EasyAll,2,2,201,2,56.474,189.87,0,Easy,90,1,391.28
PLY42,42107,EasyAll,2,2,202,29,252.16,120.1,1,Easy,191,1,500.08
PLY42,42107,EasyAll,2,2,203,4,119.42,253.28,0,Easy,90,1,251.21
PLY42,42107,EasyAll,2,2,204,24,230.26,142.32,1,Medium,191,1,235.45
PLY42,42107,EasyAll,2,2,205,12,100.26,145.47,0,Hard,191,0,465.26
PLY42,42107,EasyAll,2,2,206,24,230.26,142.32,1,Medium,90,0,170.7
PLY42,42107,EasyAll,2,2,207,26,157.74,25,1,Easy,191,1,1020.4
PLY42,42107,EasyAll,2,2,208,10,172.79,262.78,0,Medium,90,1,400.85
PLY42,42107,EasyAll,2,2,209,13,131.74,177.19,0,Hard,191,0,455.08
PLY42,42107,EasyAll,2,2,210,14,163.21,208.88,0,Hard,90,1,105.26
PLY42,42107,EasyAll,2,2,211,20,239.84,196.2,1,Hard,90,0,635.45
PLY42,42107,EasyAll,2,2,212,12,100.26,145.47,0,Hard,90,1,530.27
PLY42,42107,EasyAll,2,2,213,29,252.16,120.1,1,Easy,191,1,536.15
PLY42,42107,EasyAll,2,2,214,2,56.474,189.87,0,Easy,90,1,445.92
PLY42,42107,EasyAll,2,2,215,6,46.895,135.96,0,Medium,90,1,500.18
PLY42,42107,EasyAll,2,2,216,4,119.42,253.28,0,Easy,90,1,410.31
PLY42,42107,EasyAll,2,2,217,16,112.58,69.373,1,Hard,191,1,430.91
PLY42,42107,EasyAll,2,2,218,28,220.68,88.411,1,Easy,191,1,440.75
PLY42,42107,EasyAll,2,2,219,28,220.68,88.411,1,Easy,191,1,375.55
PLY42,42107,EasyAll,2,2,220,30,285,151.82,1,Easy,191,1,295.42
PLY42,42107,EasyAll,2,2,221,16,112.58,69.373,1,Hard,191,1,455.54
PLY42,42107,EasyAll,2,2,222,18,176.89,132.78,1,Hard,191,1,395.79
PLY42,42107,EasyAll,2,2,223,21,135.84,47.187,1,Medium,191,1,375.96
PLY42,42107,EasyAll,2,2,224,9,141.32,231.09,0,Medium,90,1,510.8
PLY42,42107,EasyAll,2,2,225,14,163.21,208.88,0,Hard,90,1,475.26
PLY42,42107,EasyAll,2,2,226,21,135.84,47.187,1,Medium,191,1,420.22
PLY42,42107,EasyAll,2,2,227,9,141.32,231.09,0,Medium,90,1,385.73
PLY42,42107,EasyAll,2,2,228,19,208.37,164.5,1,Hard,90,0,480.56
PLY42,42107,EasyAll,2,2,229,22,167.32,78.878,1,Medium,191,1,425.46
PLY42,42107,EasyAll,2,2,230,13,131.74,177.19,0,Hard,191,0,30.063
PLY42,42107,EasyAll,2,2,231,25,261.74,174.01,1,Medium,90,0,291.19
PLY42,42107,EasyAll,2,2,232,26,157.74,25,1,Easy,90,0,420.94
PLY42,42107,EasyAll,2,2,233,8,109.84,199.37,0,Medium,90,1,90.343
PLY42,42107,EasyAll,2,2,234,15,196.05,240.6,0,Hard,90,1,350.32
PLY42,42107,EasyAll,2,2,235,21,135.84,47.187,1,Medium,191,1,295.46
PLY42,42107,EasyAll,2,2,236,21,135.84,47.187,1,Medium,191,1,360.69
PLY42,42107,EasyAll,2,2,237,7,78.368,167.68,0,Medium,191,0,606.15
PLY42,42107,EasyAll,2,2,238,29,252.16,120.1,1,Easy,191,1,440.36
PLY42,42107,EasyAll,2,2,239,5,150.89,285,0,Easy,90,1,380.21
PLY42,42107,EasyAll,2,2,240,2,56.474,189.87,0,Easy,90,1,416.09
PLY42,42107,EasyAll,2,2,241,11,68.789,113.78,0,Hard,90,1,310.6
PLY42,42107,EasyAll,2,2,242,16,112.58,69.373,1,Hard,90,0,391.13
PLY42,42107,EasyAll,2,2,243,7,78.368,167.68,0,Medium,90,1,520.91
PLY42,42107,EasyAll,2,2,244,14,163.21,208.88,0,Hard,90,1,440.44
PLY42,42107,EasyAll,2,2,245,12,100.26,145.47,0,Hard,90,1,715.26
PLY42,42107,EasyAll,2,2,246,10,172.79,262.78,0,Medium,90,1,521.84
PLY42,42107,EasyAll,2,2,247,17,145.42,101.09,1,Hard,90,0,465.39
PLY42,42107,EasyAll,2,2,248,22,167.32,78.878,1,Medium,90,0,460.91
PLY42,42107,EasyAll,2,2,249,4,119.42,253.28,0,Easy,90,1,470.46
PLY42,42107,EasyAll,2,2,250,26,157.74,25,1,Easy,191,1,425.83
PLY42,42107,EasyAll,2,3,251,5,150.89,285,0,Easy,90,1,455.71
PLY42,42107,EasyAll,2,3,252,17,145.42,101.09,1,Hard,90,0,776.78
PLY42,42107,EasyAll,2,3,253,17,145.42,101.09,1,Hard,191,1,305.86
PLY42,42107,EasyAll,2,3,254,27,189.21,56.691,1,Easy,191,1,460.08
PLY42,42107,EasyAll,2,3,255,20,239.84,196.2,1,Hard,90,0,885.58
PLY42,42107,EasyAll,2,3,256,6,46.895,135.96,0,Medium,191,0,655.48
PLY42,42107,EasyAll,2,3,257,27,189.21,56.691,1,Easy,191,1,795.6
PLY42,42107,EasyAll,2,3,258,7,78.368,167.68,0,Medium,90,1,360.85
PLY42,42107,EasyAll,2,3,259,30,285,151.82,1,Easy,90,0,620.3
PLY42,42107,EasyAll,2,3,260,6,46.895,135.96,0,Medium,90,1,360.91
PLY42,42107,EasyAll,2,3,261,23,198.79,110.6,1,Medium,191,1,560.39
PLY42,42107,EasyAll,2,3,262,5,150.89,285,0,Easy,90,1,680.94
PLY42,42107,EasyAll,2,3,263,28,220.68,88.411,1,Easy,191,1,465.82
PLY42,42107,EasyAll,2,3,264,20,239.84,196.2,1,Hard,90,0,330.27
PLY42,42107,EasyAll,2,3,265,8,109.84,199.37,0,Medium,90,1,405.21
PLY42,42107,EasyAll,2,3,266,27,189.21,56.691,1,Easy,191,1,525.47
PLY42,42107,EasyAll,2,3,267,3,87.947,221.56,0,Easy,90,1,476.21
PLY42,42107,EasyAll,2,3,268,25,261.74,174.01,1,Medium,90,0,486.1
PLY42,42107,EasyAll,2,3,269,19,208.37,164.5,1,Hard,191,1,495.94
PLY42,42107,EasyAll,2,3,270,20,239.84,196.2,1,Hard,191,1,345.12
PLY42,42107,EasyAll,2,3,271,26,157.74,25,1,Easy,191,1,420.23
PLY42,42107,EasyAll,2,3,272,26,157.74,25,1,Easy,191,1,310.82
PLY42,42107,EasyAll,2,3,273,28,220.68,88.411,1,Easy,191,1,456.31
PLY42,42107,EasyAll,2,3,274,5,150.89,285,0,Easy,90,1,395.47
PLY42,42107,EasyAll,2,3,275,25,261.74,174.01,1,Medium,90,0,725.68
PLY42,42107,EasyAll,2,3,276,23,198.79,110.6,1,Medium,191,1,350.57
PLY42,42107,EasyAll,2,3,277,8,109.84,199.37,0,Medium,191,0,380.75
PLY42,42107,EasyAll,2,3,278,3,87.947,221.56,0,Easy,90,1,245.56
PLY42,42107,EasyAll,2,3,279,10,172.79,262.78,0,Medium,90,1,285.74
PLY42,42107,EasyAll,2,3,280,13,131.74,177.19,0,Hard,191,0,315.58
PLY42,42107,EasyAll,2,3,281,27,189.21,56.691,1,Easy,90,0,346.15
PLY42,42107,EasyAll,2,3,282,7,78.368,167.68,0,Medium,90,1,370.2
PLY42,42107,EasyAll,2,3,283,25,261.74,174.01,1,Medium,191,1,371.82
PLY42,42107,EasyAll,2,3,284,4,119.42,253.28,0,Easy,90,1,280.32
PLY42,42107,EasyAll,2,3,285,1,25,158.15,0,Easy,90,1,380.26
PLY42,42107,EasyAll,2,3,286,1,25,158.15,0,Easy,90,1,370.02
PLY42,42107,EasyAll,2,3,287,14,163.21,208.88,0,Hard,191,0,340.53
PLY42,42107,EasyAll,2,3,288,22,167.32,78.878,1,Medium,191,1,260.34
PLY42,42107,EasyAll,2,3,289,9,141.32,231.09,0,Medium,90,1,340.89
PLY42,42107,EasyAll,2,3,290,30,285,151.82,1,Easy,191,1,365.73
PLY42,42107,EasyAll,2,3,291,30,285,151.82,1,Easy,191,1,325.18
PLY42,42107,EasyAll,2,3,292,25,261.74,174.01,1,Medium,191,1,390.06
PLY42,42107,EasyAll,2,3,293,15,196.05,240.6,0,Hard,191,0,485.92
PLY42,42107,EasyAll,2,3,294,24,230.26,142.32,1,Medium,191,1,335.92
PLY42,42107,EasyAll,2,3,295,11,68.789,113.78,0,Hard,90,1,396.51
PLY42,42107,EasyAll,2,3,296,3,87.947,221.56,0,Easy,90,1,335.78
PLY42,42107,EasyAll,2,3,297,13,131.74,177.19,0,Hard,191,0,335.74
PLY42,42107,EasyAll,2,3,298,22,167.32,78.878,1,Medium,90,0,470.54
PLY42,42107,EasyAll,2,3,299,29,252.16,120.1,1,Easy,191,1,266.01
PLY42,42107,EasyAll,2,3,300,1,25,158.15,0,Easy,90,1,445.55
PLY42,42108,EasyAll,1,1,1,30,285,151.82,1,Easy,90,0,1952.2
PLY42,42108,EasyAll,1,1,2,1,25,158.15,0,Easy,191,0,620.44
PLY42,42108,EasyAll,1,1,3,28,220.68,88.411,1,Easy,90,0,1785.9
PLY42,42108,EasyAll,1,1,4,1,25,158.15,0,Easy,191,0,785.86
PLY42,42108,EasyAll,1,1,5,27,189.21,56.691,1,Easy,191,1,1320.7
PLY42,42108,EasyAll,1,1,6,1,25,158.15,0,Easy,90,1,500.21
PLY42,42108,EasyAll,1,1,7,29,252.16,120.1,1,Easy,191,1,445.44
PLY42,42108,EasyAll,1,1,8,27,189.21,56.691,1,Easy,191,1,535.6
PLY42,42108,EasyAll,1,1,9,26,157.74,25,1,Easy,191,1,520.57
PLY42,42108,EasyAll,1,1,10,1,25,158.15,0,Easy,90,1,386.05
PLY42,42108,EasyAll,1,1,11,30,285,151.82,1,Easy,191,1,535.84
PLY42,42108,EasyAll,1,1,12,28,220.68,88.411,1,Easy,191,1,435.77
PLY42,42108,EasyAll,1,1,13,2,56.474,189.87,0,Easy,90,1,485.65
PLY42,42108,EasyAll,1,1,14,2,56.474,189.87,0,Easy,90,1,305.45
PLY42,42108,EasyAll,1,1,15,28,220.68,88.411,1,Easy,191,1,250.55
PLY42,42108,EasyAll,1,1,16,4,119.42,253.28,0,Easy,191,0,550.77
PLY42,42108,EasyAll,1,1,17,2,56.474,189.87,0,Easy,90,1,709.97
PLY42,42108,EasyAll,1,1,18,2,56.474,189.87,0,Easy,90,1,390.51
PLY42,42108,EasyAll,1,1,19,28,220.68,88.411,1,Easy,191,1,270.37
PLY42,42108,EasyAll,1,1,20,28,220.68,88.411,1,Easy,191,1,290.91
PLY42,42108,EasyAll,1,1,21,26,157.74,25,1,Easy,191,1,171.42
PLY42,42108,EasyAll,1,1,22,5,150.89,285,0,Easy,90,1,430.2
PLY42,42108,EasyAll,1,1,23,3,87.947,221.56,0,Easy,191,0,555.09
PLY42,42108,EasyAll,1,1,24,26,157.74,25,1,Easy,191,1,195.21
PLY42,42108,EasyAll,1,1,25,29,252.16,120.1,1,Easy,191,1,265.44
PLY42,42108,EasyAll,1,1,26,27,189.21,56.691,1,Easy,191,1,155.95
PLY42,42108,EasyAll,1,1,27,26,157.74,25,1,Easy,191,1,281.14
PLY42,42108,EasyAll,1,1,28,2,56.474,189.87,0,Easy,90,1,45.962
PLY42,42108,EasyAll,1,1,29,5,150.89,285,0,Easy,191,0,315.12
PLY42,42108,EasyAll,1,1,30,30,285,151.82,1,Easy,191,1,305.56
PLY42,42108,EasyAll,1,1,31,1,25,158.15,0,Easy,90,1,195.81
PLY42,42108,EasyAll,1,1,32,3,87.947,221.56,0,Easy,90,1,195.94
PLY42,42108,EasyAll,1,1,33,30,285,151.82,1,Easy,191,1,256.2
PLY42,42108,EasyAll,1,1,34,28,220.68,88.411,1,Easy,191,1,180.33
PLY42,42108,EasyAll,1,1,35,29,252.16,120.1,1,Easy,191,1,305.16
PLY42,42108,EasyAll,1,1,36,3,87.947,221.56,0,Easy,191,0,165.32
PLY42,42108,EasyAll,1,1,37,2,56.474,189.87,0,Easy,90,1,325.79
PLY42,42108,EasyAll,1,1,38,26,157.74,25,1,Easy,191,1,270.67
PLY42,42108,EasyAll,1,1,39,5,150.89,285,0,Easy,90,1,191.19
PLY42,42108,EasyAll,1,1,40,2,56.474,189.87,0,Easy,191,0,350.06
PLY42,42108,EasyAll,1,1,41,1,25,158.15,0,Easy,90,1,241.16
PLY42,42108,EasyAll,1,1,42,1,25,158.15,0,Easy,90,1,299.97
PLY42,42108,EasyAll,1,1,43,27,189.21,56.691,1,Easy,191,1,86.206
PLY42,42108,EasyAll,1,1,44,28,220.68,88.411,1,Easy,191,1,0.32406
PLY42,42108,EasyAll,1,1,45,2,56.474,189.87,0,Easy,90,1,150.19
PLY42,42108,EasyAll,1,1,46,3,87.947,221.56,0,Easy,90,1,45.375
PLY42,42108,EasyAll,1,1,47,4,119.42,253.28,0,Easy,191,0,130.55
PLY42,42108,EasyAll,1,1,48,30,285,151.82,1,Easy,191,1,165.28
PLY42,42108,EasyAll,1,1,49,29,252.16,120.1,1,Easy,191,1,115.83
PLY42,42108,EasyAll,1,1,50,29,252.16,120.1,1,Easy,191,1,140.38
PLY42,42108,EasyAll,1,2,51,2,56.474,189.87,0,Easy,90,1,106.52
PLY42,42108,EasyAll,1,2,52,30,285,151.82,1,Easy,191,1,175.35
PLY42,42108,EasyAll,1,2,53,5,150.89,285,0,Easy,90,1,71.172
PLY42,42108,EasyAll,1,2,54,27,189.21,56.691,1,Easy,191,1,65.691
PLY42,42108,EasyAll,1,2,55,4,119.42,253.28,0,Easy,90,1,245.2
PLY42,42108,EasyAll,1,2,56,27,189.21,56.691,1,Easy,191,1,80.339
PLY42,42108,EasyAll,1,2,57,5,150.89,285,0,Easy,90,1,81.207
PLY42,42108,EasyAll,1,2,58,3,87.947,221.56,0,Easy,191,0,515.03
PLY42,42108,EasyAll,1,2,59,29,252.16,120.1,1,Easy,191,1,95.569
PLY42,42108,EasyAll,1,2,60,29,252.16,120.1,1,Easy,191,1,15.386
PLY42,42108,EasyAll,1,2,61,5,150.89,285,0,Easy,90,1,605.2
PLY42,42108,EasyAll,1,2,62,3,87.947,221.56,0,Easy,90,1,835.37
PLY42,42108,EasyAll,1,2,63,1,25,158.15,0,Easy,90,1,146.25
PLY42,42108,EasyAll,1,2,64,1,25,158.15,0,Easy,90,1,105.39
PLY42,42108,EasyAll,1,2,65,30,285,151.82,1,Easy,191,1,0.32095
PLY42,42108,EasyAll,1,2,66,26,157.74,25,1,Easy,90,0,345.77
PLY42,42108,EasyAll,1,2,67,29,252.16,120.1,1,Easy,191,1,175.91
PLY42,42108,EasyAll,1,2,68,30,285,151.82,1,Easy,191,1,25.563
PLY42,42108,EasyAll,1,2,69,26,157.74,25,1,Easy,191,1,165.24
PLY42,42108,EasyAll,1,2,70,29,252.16,120.1,1,Easy,191,1,45.702
PLY42,42108,EasyAll,1,2,71,3,87.947,221.56,0,Easy,191,0,230.95
PLY42,42108,EasyAll,1,2,72,30,285,151.82,1,Easy,191,1,0.38222
PLY42,42108,EasyAll,1,2,73,5,150.89,285,0,Easy,90,1,141.93
PLY42,42108,EasyAll,1,2,74,27,189.21,56.691,1,Easy,191,1,200.89
PLY42,42108,EasyAll,1,2,75,29,252.16,120.1,1,Easy,191,1,0.35392
PLY42,42108,EasyAll,1,2,76,30,285,151.82,1,Easy,191,1,0.34739
PLY42,42108,EasyAll,1,2,77,26,157.74,25,1,Easy,90,0,86.278
PLY42,42108,EasyAll,1,2,78,1,25,158.15,0,Easy,90,1,210.07
PLY42,42108,EasyAll,1,2,79,27,189.21,56.691,1,Easy,191,1,140.58
PLY42,42108,EasyAll,1,2,80,5,150.89,285,0,Easy,90,1,0.31909
PLY42,42108,EasyAll,1,2,81,1,25,158.15,0,Easy,90,1,0.66461
PLY42,42108,EasyAll,1,2,82,26,157.74,25,1,Easy,90,0,0.37102
PLY42,42108,EasyAll,1,2,83,28,220.68,88.411,1,Easy,191,1,40.818
PLY42,42108,EasyAll,1,2,84,2,56.474,189.87,0,Easy,90,1,170.72
PLY42,42108,EasyAll,1,2,85,29,252.16,120.1,1,Easy,191,1,0.32095
PLY42,42108,EasyAll,1,2,86,4,119.42,253.28,0,Easy,90,1,181.28
PLY42,42108,EasyAll,1,2,87,3,87.947,221.56,0,Easy,90,1,26.178
