"date","subj","keyb","phase","sess","trial","snum","stim","vtft","ftpks","pk1acc","totpks","pos1rt","neg1rt","fc","pz1","pz2","pz3","lsess"
"2006-06-30","As","left",1,1,1,NA,"SNA",NA,NA,NA,NA,NA,NA,"empty",-1,-1,-1,0
"2006-07-03","As","left",1,2,1,NA,"SNA",NA,NA,NA,NA,NA,NA,"missing",-1,-1,-1,1
"2006-07-06","As","left",1,3,1,1,"S0001",2,2,"$",3,8,-1,"",-1,-1,-1,0
"2006-07-06","As","left",1,3,2,7,"S2000",2,0,"$",1,-1,42479,"",-1,-1,-1,0
"2006-07-06","As","left",1,3,3,4,"S0100",2,0,"$",1,15241,-1,"",-1,-1,-1,0
"2006-07-06","As","left",1,3,4,6,"S0020",2,0,"*",1,-1,2388,"",-1,-1,-1,0
"2006-07-06","As","left",1,3,5,3,"S1000",3,0,"$",1,20820,-1,"",-1,-1,-1,0
"2006-07-06","As","left",1,3,6,8,"S0200",3,0,"*",1,-1,3195,"",-1,-1,-1,0
"2006-07-06","As","left",1,3,7,2,"S0010",2,1,"$",2,10,1042,"",-1,-1,-1,0
"2006-07-06","As","left",1,3,8,5,"S0002",2,0,"$",1,-1,17590,"",-1,-1,-1,0
"2006-07-06","As","left",1,3,9,1,"S0001",2,0,"$",1,15014,-1,"",-1,-1,-1,0
"2006-07-06","As","left",1,3,10,5,"S0002",2,0,"$",1,3723,13930,"",-1,-1,-1,0
"2006-07-06","As","left",1,3,11,2,"S0010",2,0,"$",1,51963,35303,"",-1,-1,-1,0
"2006-07-06","As","left",1,3,12,8,"S0200",2,1,"$",2,-1,9,"",-1,-1,-1,0
"2006-07-06","As","left",1,3,13,6,"S0020",2,0,"$",1,11914,25945,"",-1,-1,-1,0
"2006-07-06","As","left",1,3,14,4,"S0100",2,0,"+",1,313501,24504,"",-1,-1,-1,0
"2006-07-06","As","left",1,3,15,3,"S1000",3,0,"+",1,6887,1474,"",-1,-1,-1,0
"2006-07-06","As","left",1,3,16,7,"S2000",3,0,"*",2,-1,1167,"",-1,-1,-1,0
"2006-07-06","As","left",1,3,17,4,"S0100",3,0,"+",1,4817,1372,"",-1,-1,-1,0
"2006-07-06","As","left",1,3,18,6,"S0020",3,0,"+",1,5124,6479,"",-1,-1,-1,0
"2006-07-06","As","left",1,3,19,7,"S2000",3,0,"+",1,3640,7680,"",-1,-1,-1,0
"2006-07-06","As","left",1,3,20,2,"S0010",3,0,"+",1,5330,1639,"",-1,-1,-1,0
"2006-07-06","As","left",1,3,21,5,"S0002",2,0,"*",2,-1,1393,"",-1,-1,-1,0
"2006-07-06","As","left",1,3,22,3,"S1000",2,0,"+",1,13575,1209,"",-1,-1,-1,0
"2006-07-06","As","left",1,3,23,1,"S0001",2,0,"+",1,6314,1577,"",-1,-1,-1,0
"2006-07-06","As","left",1,3,24,8,"S0200",2,0,"+",1,5412,9678,"",-1,-1,-1,0
"2006-07-06","As","left",1,3,25,8,"S0200",3,0,"*",4,6254,1044,"",-1,-1,-1,0
"2006-07-06","As","left",1,3,26,2,"S0010",3,0,"+",1,9616,6561,"",-1,-1,-1,0
"2006-07-06","As","left",1,3,27,6,"S0020",3,0,"*",2,4264,1434,"",-1,-1,-1,0
"2006-07-06","As","left",1,3,28,3,"S1000",3,0,"*",1,4592,-1,"",-1,-1,-1,0
"2006-07-06","As","left",1,3,29,1,"S0001",2,0,"+",1,4141,1577,"",-1,-1,-1,0
"2006-07-06","As","left",1,3,30,7,"S2000",3,0,"*",2,8366,2582,"",-1,-1,-1,0
"2006-07-06","As","left",1,3,31,4,"S0100",2,0,"*",1,4366,-1,"",-1,-1,-1,0
"2006-07-06","As","left",1,3,32,5,"S0002",3,0,"+",1,4776,14066,"",-1,-1,-1,0
"2006-07-06","As","left",1,3,33,7,"S2000",2,0,"+",1,3648,13328,"",-1,-1,-1,0
"2006-07-06","As","left",1,3,34,2,"S0010",3,0,"*",1,8878,-1,"",-1,-1,-1,0
"2006-07-06","As","left",1,3,35,8,"S0200",2,0,"*",2,5596,1618,"",-1,-1,-1,0
"2006-07-06","As","left",1,3,36,3,"S1000",3,0,"*",1,15337,-1,"",-1,-1,-1,0
"2006-07-06","As","left",1,3,37,4,"S0100",3,0,"*",1,4982,-1,"",-1,-1,-1,0
"2006-07-06","As","left",1,3,38,6,"S0020",3,0,"+",1,3034,12057,"",-1,-1,-1,0
"2006-07-06","As","left",1,3,39,1,"S0001",3,0,"+",1,4858,2561,"",-1,-1,-1,0
"2006-07-06","As","left",1,3,40,5,"S0002",3,0,"*",2,2603,1249,"",-1,-1,-1,0
"2006-07-14","As","left",1,4,1,NA,"SNA",NA,NA,NA,NA,NA,NA,"empty",-1,-1,-1,0
"2006-07-18","As","left",1,5,1,3,"S1000",2,0,"+",1,17098,8587,"",-1,-1,-1,2
"2006-07-18","As","left",1,5,2,7,"S2000",3,0,"+",1,4819,13063,"",-1,-1,-1,2
"2006-07-18","As","left",1,5,3,1,"S0001",2,0,"*",1,3341,-1,"",-1,-1,-1,2
"2006-07-18","As","left",1,5,4,4,"S0100",3,0,"+",1,39848,7237,"",-1,-1,-1,2
"2006-07-18","As","left",1,5,5,5,"S0002",2,0,"*",2,-1,1311,"",-1,-1,-1,2
"2006-07-18","As","left",1,5,6,2,"S0010",3,0,"*",1,9493,-1,"",-1,-1,-1,2
"2006-07-18","As","left",1,5,7,6,"S0020",3,1,"*",2,4182,942,"",-1,-1,-1,2
"2006-07-18","As","left",1,5,8,8,"S0200",3,0,"+",1,5310,8551,"",-1,-1,-1,2
"2006-07-18","As","left",1,5,9,1,"S0001",3,0,"+",1,45364,6315,"",-1,-1,-1,2
"2006-07-18","As","left",1,5,10,6,"S0020",2,0,"+",1,2402,7938,"",-1,-1,-1,2
"2006-07-18","As","left",1,5,11,7,"S2000",2,0,"+",1,5926,53075,"",-1,-1,-1,2
"2006-07-18","As","left",1,5,12,2,"S0010",3,0,"+",1,12203,6707,"",-1,-1,-1,2
"2006-07-18","As","left",1,5,13,4,"S0100",3,0,"+",1,20079,759,"",-1,-1,-1,2
"2006-07-18","As","left",1,5,14,5,"S0002",2,0,"+",1,4346,5700,"",-1,-1,-1,2
"2006-07-18","As","left",1,5,15,8,"S0200",3,0,"+",1,2152,5436,"",-1,-1,-1,2
"2006-07-18","As","left",1,5,16,3,"S1000",2,0,"*",1,3383,-1,"",-1,-1,-1,2
"2006-07-18","As","left",1,5,17,2,"S0010",2,0,"+",1,2848,1044,"",-1,-1,-1,2
"2006-07-18","As","left",1,5,18,7,"S2000",3,0,"+",1,3937,57118,"",-1,-1,-1,2
"2006-07-18","As","left",1,5,19,5,"S0002",3,0,"+",1,2583,4306,"",-1,-1,-1,2
"2006-07-18","As","left",1,5,20,4,"S0100",2,0,"+",1,43975,12939,"",-1,-1,-1,2
"2006-07-18","As","left",1,5,21,1,"S0001",3,0,"+",1,27403,1208,"",-1,-1,-1,2
"2006-07-18","As","left",1,5,22,8,"S0200",2,0,"*",1,-1,3772,"",-1,-1,-1,2
"2006-07-18","As","left",1,5,23,3,"S1000",3,0,"*",1,6300,-1,"",-1,-1,-1,2
"2006-07-18","As","left",1,5,24,6,"S0020",3,0,"*",1,-1,32015,"",-1,-1,-1,2
"2006-07-18","As","left",1,5,25,7,"S2000",3,0,"*",1,-1,4018,"",-1,-1,-1,2
"2006-07-18","As","left",1,5,26,3,"S1000",3,0,"+",1,45469,7077,"",-1,-1,-1,2
"2006-07-18","As","left",1,5,27,4,"S0100",2,0,"+",1,12979,1125,"",-1,-1,-1,2
"2006-07-18","As","left",1,5,28,6,"S0020",3,0,"*",1,-1,20876,"",-1,-1,-1,2
"2006-07-18","As","left",1,5,29,2,"S0010",3,0,"+",1,11524,982,"",-1,-1,-1,2
"2006-07-18","As","left",1,5,30,1,"S0001",3,0,"+",1,87222,6499,"",-1,-1,-1,2
"2006-07-19","As","left",1,6,1,5,"S0002",3,0,"+",1,7257,32625,"",-1,-1,-1,3
"2006-07-19","As","left",1,6,2,1,"S0001",3,0,"*",1,4797,-1,"",-1,-1,-1,3
"2006-07-19","As","left",1,6,3,7,"S2000",2,0,"+",1,3176,6827,"",-1,-1,-1,3
"2006-07-19","As","left",1,6,4,3,"S1000",2,0,"+",1,3997,2480,"",-1,-1,-1,3
"2006-07-19","As","left",1,6,5,4,"S0100",2,0,"+",1,3239,1290,"",-1,-1,-1,3
"2006-07-19","As","left",1,6,6,6,"S0020",2,0,"+",1,4325,18660,"",-1,-1,-1,3
"2006-07-19","As","left",1,6,7,2,"S0010",3,0,"*",1,9636,-1,"",-1,-1,-1,3
"2006-07-19","As","left",1,6,8,8,"S0200",2,0,"+",1,3935,13553,"",-1,-1,-1,3
"2006-07-19","As","left",1,6,9,7,"S2000",2,0,"+",1,18620,70504,"",-1,-1,-1,3
"2006-07-19","As","left",1,6,10,2,"S0010",2,0,"*",1,2234,-1,"",-1,-1,-1,3
"2006-07-19","As","left",1,6,11,6,"S0020",3,0,"*",1,-1,4941,"",-1,-1,-1,3
"2006-07-19","As","left",1,6,12,3,"S1000",2,0,"*",1,7955,-1,"",-1,-1,-1,3
"2006-07-19","As","left",1,6,13,1,"S0001",2,0,"*",1,26378,-1,"",-1,-1,-1,3
"2006-07-19","As","left",1,6,14,8,"S0200",2,0,"+",1,2459,15380,"",-1,-1,-1,3
"2006-07-19","As","left",1,6,15,5,"S0002",2,0,"+",1,2377,5289,"",-1,-1,-1,3
"2006-07-19","As","left",1,6,16,4,"S0100",3,0,"*",1,6889,-1,"",-1,-1,-1,3
"2006-07-19","As","left",1,6,17,8,"S0200",2,0,"+",1,12631,19912,"",-1,-1,-1,3
"2006-07-19","As","left",1,6,18,1,"S0001",3,0,"*",1,42511,-1,"",-1,-1,-1,3
"2006-07-19","As","left",1,6,19,7,"S2000",3,0,"*",1,-1,5206,"",-1,-1,-1,3
"2006-07-19","As","left",1,6,20,4,"S0100",3,0,"*",1,10887,-1,"",-1,-1,-1,3
"2006-07-19","As","left",1,6,21,5,"S0002",3,0,"+",1,3281,20631,"",-1,-1,-1,3
"2006-07-19","As","left",1,6,22,2,"S0010",2,0,"+",1,14005,4777,"",-1,-1,-1,3
"2006-07-19","As","left",1,6,23,6,"S0020",3,1,"*",2,3053,921,"",-1,-1,-1,3
"2006-07-19","As","left",1,6,24,3,"S1000",2,0,"+",1,4304,982,"",-1,-1,-1,3
"2006-07-19","As","left",1,6,25,6,"S0020",2,0,"*",2,-1,1681,"",-1,-1,-1,3
"2006-07-19","As","left",1,6,26,4,"S0100",2,0,"+",1,2994,1168,"",-1,-1,-1,3
"2006-07-19","As","left",1,6,27,2,"S0010",2,0,"*",1,3526,-1,"",-1,-1,-1,3
"2006-07-19","As","left",1,6,28,7,"S2000",2,0,"*",2,-1,1331,"",-1,-1,-1,3
"2006-07-19","As","left",1,6,29,1,"S0001",2,0,"*",1,22866,-1,"",-1,-1,-1,3
"2006-07-19","As","left",1,6,30,3,"S1000",3,0,"*",1,27603,-1,"",-1,-1,-1,3
"2006-07-19","As","left",1,6,31,5,"S0002",2,0,"+",1,3690,6768,"",-1,-1,-1,3
"2006-07-19","As","left",1,6,32,8,"S0200",2,0,"*",1,-1,29724,"",-1,-1,-1,3
"2006-07-19","As","left",1,6,33,2,"S0010",2,0,"+",1,3220,1251,"",-1,-1,-1,3
"2006-07-19","As","left",1,6,34,7,"S2000",3,0,"*",2,3710,1331,"",-1,-1,-1,3
"2006-07-19","As","left",1,6,35,5,"S0002",2,0,"*",1,-1,7524,"",-1,-1,-1,3
"2006-07-19","As","left",1,6,36,3,"S1000",3,0,"*",1,4243,-1,"",-1,-1,-1,3
"2006-07-19","As","left",1,6,37,6,"S0020",3,0,"+",1,32751,36299,"",-1,-1,-1,3
"2006-07-19","As","left",1,6,38,1,"S0001",3,0,"+",1,13739,1229,"",-1,-1,-1,3
"2006-07-19","As","left",1,6,39,4,"S0100",3,0,"+",1,37427,10744,"",-1,-1,-1,3
"2006-07-19","As","left",1,6,40,8,"S0200",3,0,"+",1,31685,50613,"",-1,-1,-1,3
"2006-07-19","As","left",1,6,41,7,"S2000",3,0,"*",1,-1,5720,"",-1,-1,-1,3
"2006-07-19","As","left",1,6,42,8,"S0200",3,0,"*",2,-1,1105,"",-1,-1,-1,3
"2006-07-19","As","left",1,6,43,4,"S1000",2,0,"+",1,46949,6092,"",-1,-1,-1,3
"2006-07-19","As","left",1,6,44,2,"S0010",2,0,"*",1,4634,-1,"",-1,-1,-1,3
"2006-07-20","As","left",1,7,1,8,"S0200",2,0,"*",1,-1,4698,"",-1,-1,-1,4
"2006-07-20","As","left",1,7,2,1,"S0001",2,0,"+",1,11339,1413,"",-1,-1,-1,4
"2006-07-20","As","left",1,7,3,2,"S0010",3,0,"+",1,5822,1639,"",-1,-1,-1,4
"2006-07-20","As","left",1,7,4,6,"S0020",3,0,"*",3,4285,1229,"",-1,-1,-1,4
"2006-07-20","As","left",1,7,5,3,"S1000",3,0,"*",1,5187,-1,"",-1,-1,-1,4
"2006-07-20","As","left",1,7,6,7,"S2000",3,0,"+",1,2193,14559,"",-1,-1,-1,4
"2006-07-20","As","left",1,7,7,4,"S0100",3,0,"+",1,3485,1044,"",-1,-1,-1,4
"2006-07-20","As","left",1,7,8,5,"S0002",3,0,"*",2,7260,1310,"",-1,-1,-1,4
"2006-07-20","As","left",1,7,9,7,"S2000",3,0,"+",1,1720,10274,"",-1,-1,-1,4
"2006-07-20","As","left",1,7,10,1,"S0001",3,0,"+",1,3217,1187,"",-1,-1,-1,4
"2006-07-20","As","left",1,7,11,6,"S0020",2,0,"*",1,-1,2131,"",-1,-1,-1,4
"2006-07-20","As","left",1,7,12,5,"S0002",2,0,"+",1,8569,12077,"",-1,-1,-1,4
"2006-07-20","As","left",1,7,13,4,"S0100",3,0,"*",1,3404,-1,"",-1,-1,-1,4
"2006-07-20","As","left",1,7,14,8,"S0200",2,0,"*",2,4449,2008,"",-1,-1,-1,4
"2006-07-20","As","left",1,7,15,2,"S0010",2,0,"+",1,4121,1618,"",-1,-1,-1,4
"2006-07-20","As","left",1,7,16,3,"S1000",2,0,"*",1,4797,-1,"",-1,-1,-1,4
"2006-07-20","As","left",1,7,17,7,"S2000",3,0,"+",1,12365,16097,"",-1,-1,-1,4
"2006-07-20","As","left",1,7,18,8,"S0200",2,0,"+",1,18559,65522,"",-1,-1,-1,4
"2006-07-20","As","left",1,7,19,4,"S0100",3,0,"*",2,1598,-1,"",-1,-1,-1,4
"2006-07-20","As","left",1,7,20,6,"S0020",2,0,"*",1,-1,18681,"",-1,-1,-1,4
"2006-07-20","As","left",1,7,21,3,"S1000",3,0,"+",1,5371,3751,"",-1,-1,-1,4
"2006-07-20","As","left",1,7,22,1,"S0001",3,0,"+",1,8468,1351,"",-1,-1,-1,4
"2006-07-20","As","left",1,7,23,5,"S0002",2,0,"+",1,6725,13185,"",-1,-1,-1,4
"2006-07-20","As","left",1,7,24,2,"S0010",3,0,"+",1,3771,1495,"",-1,-1,-1,4
"2006-07-20","As","left",1,7,25,6,"S0020",3,0,"+",1,6068,31417,"",-1,-1,-1,4
"2006-07-20","As","left",1,7,26,3,"S1000",3,0,"+",1,3423,2049,"",-1,-1,-1,4
"2006-07-20","As","left",1,7,27,2,"S0010",3,0,"+",1,5637,1372,"",-1,-1,-1,4
"2006-07-20","As","left",1,7,28,5,"S0002",2,0,"*",2,-1,1865,"",-1,-1,-1,4
"2006-07-20","As","left",1,7,29,1,"S0001",3,0,"+",1,11338,7196,"",-1,-1,-1,4
"2006-07-20","As","left",1,7,30,8,"S0200",3,0,"*",1,-1,12184,"",-1,-1,-1,4
"2006-07-20","As","left",1,7,31,7,"S2000",2,0,"*",3,4203,1167,"",-1,-1,-1,4
"2006-07-20","As","left",1,7,32,4,"S0100",3,0,"+",1,4100,1331,"",-1,-1,-1,4
"2006-07-20","As","left",1,7,33,8,"S0200",2,0,"*",3,-1,1044,"",-1,-1,-1,4
"2006-07-20","As","left",1,7,34,6,"S0020",2,0,"*",2,7053,1393,"",-1,-1,-1,4
"2006-07-20","As","left",1,7,35,3,"S1000",3,0,"*",2,2090,-1,"",-1,-1,-1,4
"2006-07-20","As","left",1,7,36,2,"S0010",3,0,"*",1,3669,-1,"",-1,-1,-1,4
"2006-07-20","As","left",1,7,37,5,"S0002",2,0,"*",1,-1,21758,"",-1,-1,-1,4
"2006-07-20","As","left",1,7,38,7,"S2000",3,0,"+",1,8283,17164,"",-1,-1,-1,4
"2006-07-20","As","left",1,7,39,4,"S0100",2,0,"+",1,8919,1638,"",-1,-1,-1,4
"2006-07-20","As","left",1,7,40,1,"S0001",3,0,"+",1,15154,12447,"",-1,-1,-1,4
"2006-07-20","As","left",1,7,41,1,"S0001",3,0,"+",1,3361,1147,"",-1,-1,-1,4
"2006-07-20","As","left",1,7,42,6,"S0020",3,0,"*",1,-1,5331,"",-1,-1,-1,4
"2006-07-20","As","left",1,7,43,5,"S0002",2,0,"*",1,-1,2233,"",-1,-1,-1,4
"2006-07-20","As","left",1,7,44,3,"S0100",2,0,"+",1,50306,8182,"",-1,-1,-1,4
"2006-07-20","As","left",1,7,45,7,"S2000",3,0,"*",1,-1,7668,"",-1,-1,-1,4
"2006-07-20","As","left",1,7,46,2,"S0010",2,0,"+",1,4099,1680,"",-1,-1,-1,4
"2006-07-20","As","left",1,7,47,4,"S1000",3,0,"*",2,1743,-1,"",-1,-1,-1,4
"2006-07-20","As","left",1,7,48,8,"S0200",3,0,"*",1,-1,15793,"",-1,-1,-1,4
"2006-07-20","As","left",1,7,49,1,"S0001",3,0,"+",1,20940,10377,"",-1,-1,-1,4
"2006-07-20","As","left",1,7,50,8,"S0200",2,0,"*",1,-1,2320,"",-1,-1,-1,4
"2006-07-20","As","left",1,7,51,4,"S1000",3,0,"+",1,6132,2440,"",-1,-1,-1,4
"2006-07-20","As","left",1,7,52,6,"S0020",3,0,"*",2,4060,1661,"",-1,-1,-1,4
"2006-07-20","As","left",1,7,53,5,"S0002",2,0,"*",2,-1,1618,"",-1,-1,-1,4
"2006-07-20","As","left",1,7,54,2,"S0010",2,0,"+",1,3095,1783,"",-1,-1,-1,4
"2006-07-20","As","left",1,7,55,3,"S0100",3,0,"*",1,6874,-1,"",-1,-1,-1,4
"2006-07-20","As","left",1,7,56,7,"S2000",3,0,"+",1,8571,12345,"",-1,-1,-1,4
"2006-07-20","As","left",1,7,57,4,"S1000",3,0,"*",1,8181,-1,"",-1,-1,-1,4
"2006-07-20","As","left",1,7,58,2,"S0010",3,0,"+",1,9126,5414,"",-1,-1,-1,4
"2006-07-20","As","left",1,7,59,5,"S0002",2,0,"+",1,1999,52763,"",-1,-1,-1,4
"2006-07-20","As","left",1,7,60,8,"S0200",3,0,"*",2,12221,1044,"",-1,-1,-1,4
"2006-07-20","As","left",1,7,61,3,"S0100",2,0,"*",1,5720,-1,"",-1,-1,-1,4
"2006-07-20","As","left",1,7,62,6,"S0020",3,0,"*",1,-1,7298,"",-1,-1,-1,4
"2006-07-20","As","left",1,7,63,1,"S0001",2,0,"+",1,5355,2073,"",-1,-1,-1,4
"2006-07-20","As","left",1,7,64,7,"S2000",2,0,"+",1,1004,4821,"",-1,-1,-1,4
"2006-07-20","As","left",1,7,65,3,"S0100",3,0,"+",1,4737,1023,"",-1,-1,-1,4
"2006-07-20","As","left",1,7,66,5,"S0002",3,0,"*",1,-1,14046,"",-1,-1,-1,4
"2006-07-20","As","left",1,7,67,4,"S1000",2,0,"+",1,18495,8836,"",-1,-1,-1,4
"2006-07-20","As","left",1,7,68,7,"S2000",2,0,"*",1,-1,6478,"",-1,-1,-1,4
"2006-07-20","As","left",1,7,69,1,"S0001",2,0,"+",1,4181,1966,"",-1,-1,-1,4
"2006-07-20","As","left",1,7,70,2,"S0010",2,0,"+",1,28978,12900,"",-1,-1,-1,4
"2006-07-20","As","left",1,7,71,8,"S0200",2,0,"*",2,4488,1945,"",-1,-1,-1,4
"2006-07-20","As","left",1,7,72,6,"S0020",3,0,"+",1,3241,8120,"",-1,-1,-1,4
"2006-07-20","As","left",1,7,73,3,"S0100",3,0,"+",1,28895,7157,"",-1,-1,-1,4
"2006-07-20","As","left",1,7,74,6,"S0020",3,0,"+",1,7341,19853,"",-1,-1,-1,4
"2006-07-20","As","left",1,7,75,2,"S0010",3,0,"+",1,7279,4798,"",-1,-1,-1,4
"2006-07-20","As","left",1,7,76,1,"S0001",3,0,"+",1,15339,1802,"",-1,-1,-1,4
"2006-07-20","As","left",1,7,77,8,"S0200",3,0,"+",1,12735,15708,"",-1,-1,-1,4
"2006-07-20","As","left",1,7,78,7,"S2000",2,0,"*",1,-1,13081,"",-1,-1,-1,4
"2006-07-20","As","left",1,7,79,4,"S1000",2,0,"*",1,13348,-1,"",-1,-1,-1,4
"2006-07-20","As","left",1,7,80,5,"S0002",3,0,"+",1,3096,13698,"",-1,-1,-1,4
"2006-07-21","As","left",1,8,1,5,"S0002",2,0,"+",1,4141,25961,"",-1,-1,-1,5
"2006-07-21","As","left",1,8,2,7,"S2000",3,0,"+",1,1495,8211,"",-1,-1,-1,5
"2006-07-21","As","left",1,8,3,1,"S0001",2,0,"*",1,3566,-1,"",-1,-1,-1,5
"2006-07-21","As","left",1,8,4,6,"S0020",3,0,"+",1,2214,5002,"",-1,-1,-1,5
"2006-07-21","As","left",1,8,5,2,"S0010",3,0,"*",3,1824,-1,"",-1,-1,-1,5
"2006-07-21","As","left",1,8,6,4,"S0100",3,0,"*",1,3176,-1,"",-1,-1,-1,5
"2006-07-21","As","left",1,8,7,8,"S0200",3,0,"*",2,5084,1925,"",-1,-1,-1,5
"2006-07-21","As","left",1,8,8,3,"S1000",2,0,"*",2,1249,10458,"",-1,-1,-1,5
"2006-07-21","As","left",1,8,9,7,"S2000",2,0,"+",1,3013,6417,"",-1,-1,-1,5
"2006-07-21","As","left",1,8,10,2,"S0010",2,0,"*",2,1556,-1,"",-1,-1,-1,5
"2006-07-21","As","left",1,8,11,8,"S0200",3,0,"*",2,3382,1291,"",-1,-1,-1,5
"2006-07-21","As","left",1,8,12,4,"S0100",3,0,"+",1,5905,3833,"",-1,-1,-1,5
"2006-07-21","As","left",1,8,13,5,"S0002",2,0,"*",2,-1,1353,"",-1,-1,-1,5
"2006-07-21","As","left",1,8,14,6,"S0020",3,0,"+",1,5083,13165,"",-1,-1,-1,5
"2006-07-21","As","left",1,8,15,3,"S1000",3,0,"*",2,1455,4594,"",-1,-1,-1,5
"2006-07-21","As","left",1,8,16,1,"S0001",2,0,"+",1,4100,1392,"",-1,-1,-1,5
"2006-07-21","As","left",1,8,17,7,"S2000",3,0,"+",1,3710,22865,"",-1,-1,-1,5
"2006-07-21","As","left",1,8,18,5,"S0002",2,0,"+",1,2910,6335,"",-1,-1,-1,5
"2006-07-21","As","left",1,8,19,3,"S1000",2,0,"+",1,5781,1556,"",-1,-1,-1,5
"2006-07-21","As","left",1,8,20,4,"S0100",3,0,"+",1,5248,3792,"",-1,-1,-1,5
"2006-07-21","As","left",1,8,21,6,"S0020",2,0,"*",2,3362,1291,"",-1,-1,-1,5
"2006-07-21","As","left",1,8,22,8,"S0200",3,0,"*",2,3033,1065,"",-1,-1,-1,5
"2006-07-21","As","left",1,8,23,1,"S0001",2,0,"+",1,20937,5433,"",-1,-1,-1,5
"2006-07-21","As","left",1,8,24,2,"S0010",2,0,"+",1,17020,8345,"",-1,-1,-1,5
"2006-07-21","As","left",1,8,25,8,"S0200",3,0,"*",2,2500,1064,"",-1,-1,-1,5
"2006-07-21","As","left",1,8,26,1,"S0001",2,0,"*",1,6540,-1,"",-1,-1,-1,5
"2006-07-21","As","left",1,8,27,7,"S2000",2,0,"+",1,7299,15215,"",-1,-1,-1,5
"2006-07-21","As","left",1,8,28,2,"S0010",2,0,"*",1,6479,-1,"",-1,-1,-1,5
"2006-07-21","As","left",1,8,29,5,"S0002",3,0,"+",1,3402,7996,"",-1,-1,-1,5
"2006-07-21","As","left",1,8,30,4,"S0100",3,0,"*",1,3300,-1,"",-1,-1,-1,5
"2006-07-21","As","left",1,8,31,3,"S1000",2,0,"*",1,3485,-1,"",-1,-1,-1,5
"2006-07-21","As","left",1,8,32,6,"S0020",2,0,"+",1,12487,21409,"",-1,-1,-1,5
"2006-07-21","As","left",1,8,33,5,"S0002",3,0,"+",1,3198,7873,"",-1,-1,-1,5
"2006-07-21","As","left",1,8,34,3,"S1000",2,0,"*",1,3730,-1,"",-1,-1,-1,5
"2006-07-21","As","left",1,8,35,8,"S0200",3,0,"+",1,3179,6911,"",-1,-1,-1,5
"2006-07-21","As","left",1,8,36,2,"S0010",3,0,"*",1,6624,-1,"",-1,-1,-1,5
"2006-07-21","As","left",1,8,37,4,"S0100",2,0,"*",1,2931,-1,"",-1,-1,-1,5
"2006-07-21","As","left",1,8,38,7,"S2000",2,0,"+",1,4120,9269,"",-1,-1,-1,5
"2006-07-21","As","left",1,8,39,1,"S0001",2,0,"*",1,2890,-1,"",-1,-1,-1,5
"2006-07-21","As","left",1,8,40,6,"S0020",3,0,"+",1,3251,13814,"",-1,-1,-1,5
"2006-07-21","As","left",1,8,41,5,"S0002",3,0,"*",2,3877,1559,"",-1,-1,-1,5
"2006-07-21","As","left",1,8,42,4,"S1000",2,0,"*",1,3546,-1,"",-1,-1,-1,5
"2006-07-21","As","left",1,8,43,8,"S0200",3,0,"*",4,4265,1577,"",-1,-1,-1,5
"2006-07-21","As","left",1,8,44,1,"S0001",2,0,"+",1,8638,5767,"",-1,-1,-1,5
"2006-07-21","As","left",1,8,45,2,"S0010",3,0,"+",1,9085,1474,"",-1,-1,-1,5
"2006-07-21","As","left",1,8,46,7,"S2000",3,0,"*",2,3221,1538,"",-1,-1,-1,5
"2006-07-21","As","left",1,8,47,6,"S0020",3,0,"*",2,3259,1721,"",-1,-1,-1,5
"2006-07-21","As","left",1,8,48,3,"S0100",2,0,"+",1,32324,1375,"",-1,-1,-1,5
"2006-07-21","As","left",1,8,49,1,"S0001",3,0,"*",1,4223,-1,"",-1,-1,-1,5
"2006-07-21","As","left",1,8,50,5,"S0002",2,0,"*",2,2521,1270,"",-1,-1,-1,5
"2006-07-21","As","left",1,8,51,2,"S0010",3,0,"*",1,3545,-1,"",-1,-1,-1,5
"2006-07-21","As","left",1,8,52,3,"S0100",2,0,"*",1,3238,-1,"",-1,-1,-1,5
"2006-07-21","As","left",1,8,53,6,"S0020",2,0,"+",1,3441,37507,"",-1,-1,-1,5
"2006-07-21","As","left",1,8,54,8,"S0200",3,0,"+",1,2603,6049,"",-1,-1,-1,5
"2006-07-21","As","left",1,8,55,4,"S1000",3,0,"+",1,8369,5539,"",-1,-1,-1,5
"2006-07-21","As","left",1,8,56,7,"S2000",3,0,"*",1,-1,7075,"",-1,-1,-1,5
"2006-07-21","As","left",1,8,57,5,"S0002",3,0,"+",1,8613,24815,"",-1,-1,-1,5
"2006-07-21","As","left",1,8,58,2,"S0010",2,0,"+",1,12487,5719,"",-1,-1,-1,5
"2006-07-21","As","left",1,8,59,4,"S1000",3,0,"*",2,2847,-1,"",-1,-1,-1,5
"2006-07-21","As","left",1,8,60,8,"S0200",2,0,"+",1,4506,13267,"",-1,-1,-1,5
"2006-07-21","As","left",1,8,61,1,"S0001",3,0,"*",1,3607,-1,"",-1,-1,-1,5
"2006-07-21","As","left",1,8,62,7,"S2000",3,0,"+",1,3507,10686,"",-1,-1,-1,5
"2006-07-21","As","left",1,8,63,3,"S0100",2,0,"*",1,2828,-1,"",-1,-1,-1,5
"2006-07-21","As","left",1,8,64,6,"S0020",3,0,"*",1,-1,7154,"",-1,-1,-1,5
"2006-07-21","As","left",1,8,65,3,"S0100",3,0,"*",2,2828,-1,"",-1,-1,-1,5
"2006-07-21","As","left",1,8,66,7,"S2000",3,0,"*",1,-1,9516,"",-1,-1,-1,5
"2006-07-21","As","left",1,8,67,1,"S0001",3,0,"*",1,9106,-1,"",-1,-1,-1,5
"2006-07-21","As","left",1,8,68,6,"S0020",2,0,"+",1,12018,15545,"",-1,-1,-1,5
"2006-07-21","As","left",1,8,69,2,"S0010",3,0,"*",1,4093,-1,"",-1,-1,-1,5
"2006-07-21","As","left",1,8,70,5,"S0002",3,0,"*",2,2745,1207,"",-1,-1,-1,5
"2006-07-21","As","left",1,8,71,4,"S1000",2,0,"+",1,8508,5903,"",-1,-1,-1,5
"2006-07-21","As","left",1,8,72,8,"S0200",3,0,"+",1,11032,26372,"",-1,-1,-1,5
"2006-07-21","As","left",1,8,73,3,"S0100",2,0,"*",1,15295,-1,"",-1,-1,-1,5
"2006-07-21","As","left",1,8,74,7,"S2000",2,0,"+",1,3626,6477,"",-1,-1,-1,5
"2006-07-21","As","left",1,8,75,1,"S0001",2,0,"*",1,3564,-1,"",-1,-1,-1,5
"2006-07-21","As","left",1,8,76,6,"S0020",3,0,"+",1,6889,14579,"",-1,-1,-1,5
"2006-07-21","As","left",1,8,77,8,"S0200",2,0,"*",1,-1,21262,"",-1,-1,-1,5
"2006-07-21","As","left",1,8,78,2,"S0010",2,0,"*",1,5000,-1,"",-1,-1,-1,5
"2006-07-21","As","left",1,8,79,5,"S0002",3,0,"*",1,-1,5433,"",-1,-1,-1,5
"2006-07-21","As","left",1,8,80,4,"S1000",3,0,"+",1,3464,1575,"",-1,-1,-1,5
"2006-07-24","As","left",1,9,1,6,"S0020",3,0,"*",2,5474,2767,"",-1,-1,-1,6
"2006-07-24","As","left",1,9,2,4,"S0100",2,0,"+",1,5597,2787,"",-1,-1,-1,6
"2006-07-24","As","left",1,9,3,8,"S0200",3,1,"*",2,-1,921,"",-1,-1,-1,6
"2006-07-24","As","left",1,9,4,1,"S0001",3,0,"+",1,3607,1269,"",-1,-1,-1,6
"2006-07-24","As","left",1,9,5,3,"S1000",2,0,"*",1,3140,-1,"",-1,-1,-1,6
"2006-07-24","As","left",1,9,6,7,"S2000",2,0,"+",1,8039,20938,"",-1,-1,-1,6
"2006-07-24","As","left",1,9,7,2,"S0010",2,0,"*",2,1085,4676,"",-1,-1,-1,6
"2006-07-24","As","left",1,9,8,5,"S0002",2,0,"+",1,4040,6500,"",-1,-1,-1,6
"2006-07-24","As","left",1,9,9,2,"S0010",3,0,"+",1,3587,2295,"",-1,-1,-1,6
"2006-07-24","As","left",1,9,10,5,"S0002",2,0,"*",2,3311,1271,"",-1,-1,-1,6
"2006-07-24","As","left",1,9,11,4,"S0100",3,0,"+",1,3423,1352,"",-1,-1,-1,6
"2006-07-24","As","left",1,9,12,8,"S0200",3,0,"+",1,3525,6764,"",-1,-1,-1,6
"2006-07-24","As","left",1,9,13,7,"S2000",3,0,"+",1,2460,11769,"",-1,-1,-1,6
"2006-07-24","As","left",1,9,14,3,"S1000",3,0,"+",2,2787,1063,"",-1,-1,-1,6
"2006-07-24","As","left",1,9,15,6,"S0020",2,0,"*",1,-1,5496,"",-1,-1,-1,6
"2006-07-24","As","left",1,9,16,1,"S0001",2,0,"*",1,3016,-1,"",-1,-1,-1,6
"2006-07-24","As","left",1,9,17,5,"S0002",2,0,"+",1,3445,6644,"",-1,-1,-1,6
"2006-07-24","As","left",1,9,18,6,"S0020",2,0,"+",1,4141,6376,"",-1,-1,-1,6
"2006-07-24","As","left",1,9,19,3,"S1000",2,0,"+",1,3588,1476,"",-1,-1,-1,6
"2006-07-24","As","left",1,9,20,1,"S0001",2,0,"+",1,14046,6027,"",-1,-1,-1,6
"2006-07-24","As","left",1,9,21,8,"S0200",3,0,"+",1,2546,5458,"",-1,-1,-1,6
"2006-07-24","As","left",1,9,22,7,"S2000",2,0,"*",2,3366,1438,"",-1,-1,-1,6
"2006-07-24","As","left",1,9,23,4,"S0100",2,0,"+",1,2829,963,"",-1,-1,-1,6
"2006-07-24","As","left",1,9,24,2,"S0010",2,0,"+",1,4079,1310,"",-1,-1,-1,6
"2006-07-24","As","left",1,9,25,6,"S0020",3,0,"+",1,3607,11401,"",-1,-1,-1,6
"2006-07-24","As","left",1,9,26,5,"S0002",2,0,"*",2,3855,1824,"",-1,-1,-1,6
"2006-07-24","As","left",1,9,27,1,"S0001",2,0,"+",1,18047,1208,"",-1,-1,-1,6
"2006-07-24","As","left",1,9,28,8,"S0200",2,0,"*",2,3117,1393,"",-1,-1,-1,6
"2006-07-24","As","left",1,9,29,3,"S1000",2,0,"+",1,3259,1721,"",-1,-1,-1,6
"2006-07-24","As","left",1,9,30,4,"S0100",2,0,"*",1,8633,-1,"",-1,-1,-1,6
"2006-07-24","As","left",1,9,31,7,"S2000",2,0,"+",1,5002,9185,"",-1,-1,-1,6
"2006-07-24","As","left",1,9,32,2,"S0010",3,0,"*",2,2912,-1,"",-1,-1,-1,6
"2006-07-24","As","left",1,9,33,2,"S0010",3,0,"*",1,5741,-1,"",-1,-1,-1,6
"2006-07-24","As","left",1,9,34,8,"S0200",2,0,"+",1,3156,5433,"",-1,-1,-1,6
"2006-07-24","As","left",1,9,35,7,"S2000",2,0,"+",1,3177,9842,"",-1,-1,-1,6
"2006-07-24","As","left",1,9,36,1,"S0001",2,0,"+",1,13205,1310,"",-1,-1,-1,6
"2006-07-24","As","left",1,9,37,6,"S0020",2,0,"*",2,3423,1741,"",-1,-1,-1,6
"2006-07-24","As","left",1,9,38,4,"S0100",2,0,"+",1,3693,1313,"",-1,-1,-1,6
"2006-07-24","As","left",1,9,39,5,"S0002",2,0,"*",1,-1,6153,"",-1,-1,-1,6
"2006-07-24","As","left",1,9,40,3,"S1000",3,0,"*",1,3628,-1,"",-1,-1,-1,6
"2006-07-24","As","left",1,9,41,8,"S0200",2,1,"*",2,8734,798,"",-1,-1,-1,6
"2006-07-24","As","left",1,9,42,1,"S0001",3,0,"+",2,2786,1392,"",-1,-1,-1,6
"2006-07-24","As","left",1,9,43,6,"S0020",2,0,"+",1,2976,11470,"",-1,-1,-1,6
"2006-07-24","As","left",1,9,44,2,"S0010",2,0,"*",1,3447,-1,"",-1,-1,-1,6
"2006-07-24","As","left",1,9,45,4,"S1000",3,0,"*",1,3690,-1,"",-1,-1,-1,6
"2006-07-24","As","left",1,9,46,5,"S0002",3,0,"*",2,2502,1230,"",-1,-1,-1,6
"2006-07-24","As","left",1,9,47,3,"S0100",3,0,"+",1,3873,1228,"",-1,-1,-1,6
"2006-07-24","As","left",1,9,48,7,"S2000",2,0,"*",2,3058,1128,"",-1,-1,-1,6
"2006-07-24","As","left",1,9,49,8,"S0200",3,0,"+",1,2810,7178,"",-1,-1,-1,6
"2006-07-24","As","left",1,9,50,3,"S0100",3,0,"*",1,7628,-1,"",-1,-1,-1,6
"2006-07-24","As","left",1,9,51,6,"S0020",2,0,"+",1,2791,5786,"",-1,-1,-1,6
"2006-07-24","As","left",1,9,52,4,"S1000",3,0,"*",1,6767,-1,"",-1,-1,-1,6
"2006-07-24","As","left",1,9,53,2,"S0010",3,0,"+",1,3423,1453,"",-1,-1,-1,6
"2006-07-24","As","left",1,9,54,5,"S0002",2,0,"+",1,3404,5702,"",-1,-1,-1,6
"2006-07-24","As","left",1,9,55,7,"S2000",2,0,"+",1,3524,11686,"",-1,-1,-1,6
"2006-07-24","As","left",1,9,56,1,"S0001",2,0,"+",1,4409,2153,"",-1,-1,-1,6
"2006-07-24","As","left",1,9,57,2,"S0010",2,0,"*",1,3900,-1,"",-1,-1,-1,6
"2006-07-24","As","left",1,9,58,6,"S0020",3,0,"+",1,4572,6828,"",-1,-1,-1,6
"2006-07-24","As","left",1,9,59,7,"S2000",2,0,"*",1,-1,7525,"",-1,-1,-1,6
"2006-07-24","As","left",1,9,60,1,"S0001",3,0,"*",2,2746,5618,"",-1,-1,-1,6
"2006-07-24","As","left",1,9,61,3,"S0100",3,0,"+",1,13758,5883,"",-1,-1,-1,6
"2006-07-24","As","left",1,9,62,8,"S0200",2,0,"*",2,10354,1699,"",-1,-1,-1,6
"2006-07-24","As","left",1,9,63,5,"S0002",3,0,"+",1,2560,5782,"",-1,-1,-1,6
"2006-07-24","As","left",1,9,64,4,"S1000",2,0,"*",1,3545,-1,"",-1,-1,-1,6
"2006-07-24","As","left",1,9,65,4,"S1000",2,0,"+",1,2894,1436,"",-1,-1,-1,6
"2006-07-24","As","left",1,9,66,6,"S0020",3,0,"+",1,3566,10581,"",-1,-1,-1,6
"2006-07-24","As","left",1,9,67,7,"S2000",3,0,"+",1,14008,28902,"",-1,-1,-1,6
"2006-07-24","As","left",1,9,68,3,"S0100",2,0,"*",1,3708,-1,"",-1,-1,-1,6
"2006-07-24","As","left",1,9,69,2,"S0010",3,0,"+",1,13246,1761,"",-1,-1,-1,6
"2006-07-24","As","left",1,9,70,8,"S0200",2,0,"+",1,3114,5883,"",-1,-1,-1,6
"2006-07-24","As","left",1,9,71,1,"S0001",3,0,"+",1,11524,10047,"",-1,-1,-1,6
"2006-07-24","As","left",1,9,72,5,"S0002",3,0,"+",1,2951,5105,"",-1,-1,-1,6
"2006-07-24","As","left",1,9,73,1,"S0001",2,0,"*",1,2931,-1,"",-1,-1,-1,6
"2006-07-24","As","left",1,9,74,4,"S1000",3,0,"+",1,3647,1740,"",-1,-1,-1,6
"2006-07-24","As","left",1,9,75,5,"S0002",3,0,"*",2,11709,1699,"",-1,-1,-1,6
"2006-07-24","As","left",1,9,76,6,"S0020",3,0,"*",1,-1,5352,"",-1,-1,-1,6
"2006-07-24","As","left",1,9,77,2,"S0010",2,0,"*",1,8401,-1,"",-1,-1,-1,6
"2006-07-24","As","left",1,9,78,3,"S0100",3,0,"+",1,28980,21739,"",-1,-1,-1,6
"2006-07-24","As","left",1,9,79,7,"S2000",2,0,"*",2,12794,1617,"",-1,-1,-1,6
"2006-07-24","As","left",1,9,80,8,"S0200",2,0,"*",1,-1,5493,"",-1,-1,-1,6
"2006-07-25","As","left",1,10,1,7,"S2000",2,0,"+",1,5289,8611,"",-1,-1,-1,7
"2006-07-25","As","left",1,10,2,4,"S0100",3,0,"+",1,3259,1003,"",-1,-1,-1,7
"2006-07-25","As","left",1,10,3,3,"S1000",3,0,"*",2,2951,-1,"",-1,-1,-1,7
"2006-07-25","As","left",1,10,4,8,"S0200",2,0,"+",1,3013,5166,"",-1,-1,-1,7
"2006-07-25","As","left",1,10,5,1,"S0001",2,0,"+",1,13185,1352,"",-1,-1,-1,7
"2006-07-25","As","left",1,10,6,6,"S0020",3,0,"*",1,-1,4735,"",-1,-1,-1,7
"2006-07-25","As","left",1,10,7,5,"S0002",2,0,"*",2,-1,1372,"",-1,-1,-1,7
"2006-07-25","As","left",1,10,8,2,"S0010",3,0,"*",1,3279,-1,"",-1,-1,-1,7
"2006-07-25","As","left",1,10,9,4,"S0100",2,0,"+",1,3651,1228,"",-1,-1,-1,7
"2006-07-25","As","left",1,10,10,7,"S2000",3,0,"+",1,3504,14763,"",-1,-1,-1,7
"2006-07-25","As","left",1,10,11,2,"S0010",2,0,"*",1,3321,-1,"",-1,-1,-1,7
"2006-07-25","As","left",1,10,12,8,"S0200",3,0,"*",2,3608,1599,"",-1,-1,-1,7
"2006-07-25","As","left",1,10,13,1,"S0001",2,0,"*",1,3075,-1,"",-1,-1,-1,7
"2006-07-25","As","left",1,10,14,3,"S1000",3,0,"*",1,3363,-1,"",-1,-1,-1,7
"2006-07-25","As","left",1,10,15,6,"S0020",2,0,"*",2,3997,1884,"",-1,-1,-1,7
"2006-07-25","As","left",1,10,16,5,"S0002",2,0,"*",2,3012,1597,"",-1,-1,-1,7
"2006-07-25","As","left",1,10,17,4,"S0100",2,0,"*",1,2622,-1,"",-1,-1,-1,7
"2006-07-25","As","left",1,10,18,5,"S0002",3,0,"*",1,-1,5864,"",-1,-1,-1,7
"2006-07-25","As","left",1,10,19,6,"S0020",3,0,"*",1,-1,6232,"",-1,-1,-1,7
"2006-07-25","As","left",1,10,20,1,"S0001",3,0,"+",1,7544,1309,"",-1,-1,-1,7
"2006-07-25","As","left",1,10,21,7,"S2000",2,0,"*",2,-1,1516,"",-1,-1,-1,7
"2006-07-25","As","left",1,10,22,3,"S1000",3,0,"+",1,3444,1373,"",-1,-1,-1,7
"2006-07-25","As","left",1,10,23,8,"S0200",3,0,"*",2,-1,1393,"",-1,-1,-1,7
"2006-07-25","As","left",1,10,24,2,"S0010",3,0,"*",2,2911,-1,"",-1,-1,-1,7
"2006-07-25","As","left",1,10,25,5,"S0002",2,0,"*",2,4161,1536,"",-1,-1,-1,7
"2006-07-25","As","left",1,10,26,4,"S0100",2,0,"*",1,3486,-1,"",-1,-1,-1,7
"2006-07-25","As","left",1,10,27,7,"S2000",2,0,"*",2,3997,1905,"",-1,-1,-1,7
"2006-07-25","As","left",1,10,28,3,"S1000",2,0,"*",1,9063,-1,"",-1,-1,-1,7
"2006-07-25","As","left",1,10,29,1,"S0001",3,0,"*",1,8344,-1,"",-1,-1,-1,7
"2006-07-25","As","left",1,10,30,6,"S0020",3,0,"*",2,3238,1885,"",-1,-1,-1,7
"2006-07-25","As","left",1,10,31,8,"S0200",3,0,"*",2,3198,1475,"",-1,-1,-1,7
"2006-07-25","As","left",1,10,32,2,"S0010",3,0,"*",1,3526,-1,"",-1,-1,-1,7
"2006-07-25","As","left",1,10,33,7,"S2000",3,0,"+",1,7771,15565,"",-1,-1,-1,7
"2006-07-25","As","left",1,10,34,2,"S0010",2,0,"*",1,7017,-1,"",-1,-1,-1,7
"2006-07-25","As","left",1,10,35,8,"S0200",3,0,"*",1,-1,11421,"",-1,-1,-1,7
"2006-07-25","As","left",1,10,36,5,"S0002",2,0,"*",1,-1,9232,"",-1,-1,-1,7
"2006-07-25","As","left",1,10,37,4,"S0100",3,0,"*",1,3464,-1,"",-1,-1,-1,7
"2006-07-25","As","left",1,10,38,3,"S1000",3,0,"*",1,4121,-1,"",-1,-1,-1,7
"2006-07-25","As","left",1,10,39,6,"S0020",3,0,"+",1,3299,5842,"",-1,-1,-1,7
"2006-07-25","As","left",1,10,40,1,"S0001",3,0,"+",1,3507,1640,"",-1,-1,-1,7
"2006-07-25","As","left",1,10,41,3,"S0100",2,0,"+",1,8654,1312,"",-1,-1,-1,7
"2006-07-25","As","left",1,10,42,6,"S0020",3,0,"+",1,3956,6623,"",-1,-1,-1,7
"2006-07-25","As","left",1,10,43,7,"S2000",2,0,"+",1,3321,10355,"",-1,-1,-1,7
"2006-07-25","As","left",1,10,44,2,"S0010",3,0,"+",1,3012,1454,"",-1,-1,-1,7
"2006-07-25","As","left",1,10,45,1,"S0001",3,0,"*",1,3382,-1,"",-1,-1,-1,7
"2006-07-25","As","left",1,10,46,8,"S0200",2,0,"+",1,3383,25822,"",-1,-1,-1,7
"2006-07-25","As","left",1,10,47,5,"S0002",2,0,"+",1,3772,6294,"",-1,-1,-1,7
"2006-07-25","As","left",1,10,48,4,"S1000",3,0,"*",2,2748,5414,"",-1,-1,-1,7
"2006-07-25","As","left",1,10,49,7,"S2000",3,0,"*",1,-1,5025,"",-1,-1,-1,7
"2006-07-25","As","left",1,10,50,5,"S0002",2,0,"*",1,-1,5149,"",-1,-1,-1,7
"2006-07-25","As","left",1,10,51,4,"S1000",3,0,"*",1,6480,-1,"",-1,-1,-1,7
"2006-07-25","As","left",1,10,52,2,"S0010",3,0,"+",1,7627,1946,"",-1,-1,-1,7
"2006-07-25","As","left",1,10,53,8,"S0200",2,0,"+",1,2791,5170,"",-1,-1,-1,7
"2006-07-25","As","left",1,10,54,6,"S0020",2,0,"+",1,2849,10950,"",-1,-1,-1,7
"2006-07-25","As","left",1,10,55,3,"S0100",3,0,"*",1,3321,-1,"",-1,-1,-1,7
"2006-07-25","As","left",1,10,56,1,"S0001",3,0,"*",2,2953,-1,"",-1,-1,-1,7
"2006-07-25","As","left",1,10,57,6,"S0020",2,0,"+",1,3201,5723,"",-1,-1,-1,7
"2006-07-25","As","left",1,10,58,3,"S0100",2,0,"+",1,22416,11033,"",-1,-1,-1,7
"2006-07-25","As","left",1,10,59,1,"S0001",2,0,"+",1,13017,5556,"",-1,-1,-1,7
"2006-07-25","As","left",1,10,60,7,"S2000",3,0,"*",1,-1,4367,"",-1,-1,-1,7
"2006-07-25","As","left",1,10,61,5,"S0002",3,0,"+",1,3239,18026,"",-1,-1,-1,7
"2006-07-25","As","left",1,10,62,4,"S1000",2,0,"*",1,2440,-1,"",-1,-1,-1,7
"2006-07-25","As","left",1,10,63,2,"S0010",3,0,"*",2,2748,-1,"",-1,-1,-1,7
"2006-07-25","As","left",1,10,64,8,"S0200",3,0,"*",1,-1,8203,"",-1,-1,-1,7
"2006-07-25","As","left",1,10,65,7,"S2000",2,0,"*",1,-1,5129,"",-1,-1,-1,7
"2006-07-25","As","left",1,10,66,2,"S0010",3,0,"*",1,3013,-1,"",-1,-1,-1,7
"2006-07-25","As","left",1,10,67,6,"S0020",2,0,"*",3,-1,1372,"",-1,-1,-1,7
"2006-07-25","As","left",1,10,68,4,"S1000",2,0,"*",1,3094,-1,"",-1,-1,-1,7
"2006-07-25","As","left",1,10,69,1,"S0001",2,0,"*",1,2663,-1,"",-1,-1,-1,7
"2006-07-25","As","left",1,10,70,5,"S0002",2,0,"*",1,-1,5329,"",-1,-1,-1,7
"2006-07-25","As","left",1,10,71,8,"S0200",2,0,"+",1,2827,5616,"",-1,-1,-1,7
"2006-07-25","As","left",1,10,72,3,"S0100",2,0,"+",1,61907,4242,"",-1,-1,-1,7
"2006-07-25","As","left",1,10,73,2,"S0010",3,0,"+",1,9965,4490,"",-1,-1,-1,7
"2006-07-25","As","left",1,10,74,5,"S0002",2,0,"+",1,2273,4488,"",-1,-1,-1,7
"2006-07-25","As","left",1,10,75,6,"S0020",2,0,"+",1,2704,8467,"",-1,-1,-1,7
"2006-07-25","As","left",1,10,76,3,"S0100",3,0,"*",2,2273,4776,"",-1,-1,-1,7
"2006-07-25","As","left",1,10,77,7,"S2000",2,0,"+",1,25960,40173,"",-1,-1,-1,7
"2006-07-25","As","left",1,10,78,8,"S0200",3,0,"*",1,-1,5146,"",-1,-1,-1,7
"2006-07-25","As","left",1,10,79,1,"S0001",3,0,"*",2,2417,7976,"",-1,-1,-1,7
"2006-07-25","As","left",1,10,80,4,"S1000",2,0,"*",1,2252,-1,"",-1,-1,-1,7
"2006-07-27","As","left",1,11,1,7,"S2000",2,0,"+",1,3278,5328,"",-1,-1,-1,8
"2006-07-27","As","left",1,11,2,1,"S0001",3,0,"+",1,7709,1537,"",-1,-1,-1,8
"2006-07-27","As","left",1,11,3,8,"S0200",3,0,"*",2,-1,1371,"",-1,-1,-1,8
"2006-07-27","As","left",1,11,4,5,"S0002",2,0,"*",4,-1,1188,"",-1,-1,-1,8
"2006-07-27","As","left",1,11,5,4,"S0100",2,0,"+",1,2603,1229,"",-1,-1,-1,8
"2006-07-27","As","left",1,11,6,2,"S0010",2,0,"+",1,6437,1310,"",-1,-1,-1,8
"2006-07-27","As","left",1,11,7,6,"S0020",2,0,"+",1,6866,11460,"",-1,-1,-1,8
"2006-07-27","As","left",1,11,8,3,"S1000",2,0,"+",1,2806,1268,"",-1,-1,-1,8
"2006-07-27","As","left",1,11,9,7,"S2000",3,0,"+",1,2540,4346,"",-1,-1,-1,8
"2006-07-27","As","left",1,11,10,3,"S1000",2,0,"+",1,6805,1207,"",-1,-1,-1,8
"2006-07-27","As","left",1,11,11,5,"S0002",2,0,"+",1,2420,3938,"",-1,-1,-1,8
"2006-07-27","As","left",1,11,12,4,"S0100",3,0,"*",2,2497,-1,"",-1,-1,-1,8
"2006-07-27","As","left",1,11,13,1,"S0001",2,0,"+",1,6066,4651,"",-1,-1,-1,8
"2006-07-27","As","left",1,11,14,8,"S0200",3,0,"*",1,-1,3957,"",-1,-1,-1,8
"2006-07-27","As","left",1,11,15,6,"S0020",2,0,"*",1,-1,4569,"",-1,-1,-1,8
"2006-07-27","As","left",1,11,16,2,"S0010",3,0,"+",1,6233,1349,"",-1,-1,-1,8
"2006-07-27","As","left",1,11,17,4,"S0100",2,0,"*",1,2066,-1,"",-1,-1,-1,8
"2006-07-27","As","left",1,11,18,7,"S2000",3,0,"*",2,-1,1514,"",-1,-1,-1,8
"2006-07-27","As","left",1,11,19,6,"S0020",2,0,"+",1,2355,3667,"",-1,-1,-1,8
"2006-07-27","As","left",1,11,20,1,"S0001",2,0,"*",1,8835,-1,"",-1,-1,-1,8
"2006-07-27","As","left",1,11,21,3,"S1000",2,0,"*",1,2107,-1,"",-1,-1,-1,8
"2006-07-27","As","left",1,11,22,5,"S0002",2,0,"*",1,-1,7235,"",-1,-1,-1,8
"2006-07-27","As","left",1,11,23,2,"S0010",2,0,"+",1,5554,1289,"",-1,-1,-1,8
"2006-07-27","As","left",1,11,24,8,"S0200",3,0,"*",2,2458,1432,"",-1,-1,-1,8
"2006-07-27","As","left",1,11,25,5,"S0002",2,0,"*",1,-1,4569,"",-1,-1,-1,8
"2006-07-27","As","left",1,11,26,3,"S1000",2,0,"+",1,9204,1103,"",-1,-1,-1,8
"2006-07-27","As","left",1,11,27,8,"S0200",3,0,"+",1,2396,3994,"",-1,-1,-1,8
"2006-07-27","As","left",1,11,28,2,"S0010",2,0,"*",1,2416,-1,"",-1,-1,-1,8
"2006-07-27","As","left",1,11,29,7,"S2000",2,0,"*",1,-1,3338,"",-1,-1,-1,8
"2006-07-27","As","left",1,11,30,1,"S0001",2,0,"+",1,12362,4467,"",-1,-1,-1,8
"2006-07-27","As","left",1,11,31,6,"S0020",3,0,"*",2,-1,1205,"",-1,-1,-1,8
"2006-07-27","As","left",1,11,32,4,"S0100",2,0,"*",1,2150,-1,"",-1,-1,-1,8
"2006-07-27","As","left",1,11,33,7,"S2000",3,0,"*",1,-1,4098,"",-1,-1,-1,8
"2006-07-27","As","left",1,11,34,4,"S0100",2,0,"*",1,2272,-1,"",-1,-1,-1,8
"2006-07-27","As","left",1,11,35,1,"S0001",3,0,"*",1,3914,-1,"",-1,-1,-1,8
"2006-07-27","As","left",1,11,36,5,"S0002",2,0,"+",1,2765,4549,"",-1,-1,-1,8
"2006-07-27","As","left",1,11,37,2,"S0010",2,0,"+",1,5902,4118,"",-1,-1,-1,8
"2006-07-27","As","left",1,11,38,8,"S0200",2,0,"+",1,8632,10765,"",-1,-1,-1,8
"2006-07-27","As","left",1,11,39,3,"S1000",2,0,"*",1,2129,-1,"",-1,-1,-1,8
"2006-07-27","As","left",1,11,40,6,"S0020",3,0,"*",1,-1,13798,"",-1,-1,-1,8
"2006-07-27","As","left",1,11,41,8,"S0200",3,0,"*",1,-1,3240,"",-1,-1,-1,8
"2006-07-27","As","left",1,11,42,2,"S0010",2,0,"*",1,5451,-1,"",-1,-1,-1,8
"2006-07-27","As","left",1,11,43,1,"S0001",2,0,"+",1,17387,5020,"",-1,-1,-1,8
"2006-07-27","As","left",1,11,44,7,"S2000",2,0,"+",1,2374,4348,"",-1,-1,-1,8
"2006-07-27","As","left",1,11,45,4,"S1000",3,0,"*",1,5455,-1,"",-1,-1,-1,8
"2006-07-27","As","left",1,11,46,5,"S0002",2,0,"+",1,1922,3502,"",-1,-1,-1,8
"2006-07-27","As","left",1,11,47,3,"S0100",2,0,"+",1,11563,3442,"",-1,-1,-1,8
"2006-07-27","As","left",1,11,48,6,"S0020",2,0,"+",1,4856,6455,"",-1,-1,-1,8
"2006-07-27","As","left",1,11,49,1,"S0001",2,0,"+",1,26881,3727,"",-1,-1,-1,8
"2006-07-27","As","left",1,11,50,7,"S2000",2,0,"*",1,-1,6456,"",-1,-1,-1,8
"2006-07-27","As","left",1,11,51,2,"S0010",3,0,"+",1,5019,3563,"",-1,-1,-1,8
"2006-07-27","As","left",1,11,52,3,"S0100",3,0,"*",2,1902,-1,"",-1,-1,-1,8
"2006-07-27","As","left",1,11,53,5,"S0002",2,0,"*",1,-1,7236,"",-1,-1,-1,8
"2006-07-27","As","left",1,11,54,6,"S0020",2,0,"*",1,-1,4058,"",-1,-1,-1,8
"2006-07-27","As","left",1,11,55,4,"S1000",2,0,"*",1,2415,-1,"",-1,-1,-1,8
"2006-07-27","As","left",1,11,56,8,"S0200",3,0,"*",1,-1,3072,"",-1,-1,-1,8
"2006-07-27","As","left",1,11,57,5,"S0002",3,0,"*",1,-1,4978,"",-1,-1,-1,8
"2006-07-27","As","left",1,11,58,2,"S0010",2,0,"*",1,5100,-1,"",-1,-1,-1,8
"2006-07-27","As","left",1,11,59,7,"S2000",2,0,"+",1,2230,3850,"",-1,-1,-1,8
"2006-07-27","As","left",1,11,60,1,"S0001",3,0,"*",1,6228,-1,"",-1,-1,-1,8
"2006-07-27","As","left",1,11,61,3,"S0100",2,0,"*",3,1327,3173,"",-1,-1,-1,8
"2006-07-27","As","left",1,11,62,6,"S0020",3,0,"+",1,2578,4444,"",-1,-1,-1,8
"2006-07-27","As","left",1,11,63,8,"S0200",2,0,"*",1,-1,3152,"",-1,-1,-1,8
"2006-07-27","As","left",1,11,64,4,"S1000",3,0,"*",2,1922,3850,"",-1,-1,-1,8
"2006-07-27","As","left",1,11,65,4,"S1000",2,0,"+",1,5757,3665,"",-1,-1,-1,8
"2006-07-27","As","left",1,11,66,6,"S0020",2,0,"*",1,-1,6085,"",-1,-1,-1,8
"2006-07-27","As","left",1,11,67,7,"S2000",2,0,"+",1,4940,13989,"",-1,-1,-1,8
"2006-07-27","As","left",1,11,68,3,"S0100",3,0,"*",2,2762,-1,"",-1,-1,-1,8
"2006-07-27","As","left",1,11,69,8,"S0200",3,0,"*",1,-1,3357,"",-1,-1,-1,8
"2006-07-27","As","left",1,11,70,1,"S0001",2,0,"+",1,7007,4854,"",-1,-1,-1,8
"2006-07-27","As","left",1,11,71,2,"S0010",3,0,"*",1,5692,-1,"",-1,-1,-1,8
"2006-07-27","As","left",1,11,72,5,"S0002",2,0,"*",1,-1,4178,"",-1,-1,-1,8
"2006-07-27","As","left",1,11,73,3,"S0100",3,0,"*",2,1799,6864,"",-1,-1,-1,8
"2006-07-27","As","left",1,11,74,5,"S0002",2,0,"*",1,-1,4916,"",-1,-1,-1,8
"2006-07-27","As","left",1,11,75,1,"S0001",3,0,"+",1,9858,4280,"",-1,-1,-1,8
"2006-07-27","As","left",1,11,76,6,"S0020",2,0,"+",1,2373,4034,"",-1,-1,-1,8
"2006-07-27","As","left",1,11,77,7,"S2000",2,0,"+",1,15743,30447,"",-1,-1,-1,8
"2006-07-27","As","left",1,11,78,4,"S1000",3,0,"*",1,9223,-1,"",-1,-1,-1,8
"2006-07-27","As","left",1,11,79,8,"S0200",2,0,"*",1,-1,7992,"",-1,-1,-1,8
"2006-07-27","As","left",1,11,80,2,"S0010",2,0,"+",1,13283,4034,"",-1,-1,-1,8
"2006-08-01","As","left",1,12,1,2,"S0010",2,0,"+",1,17552,9102,"",-1,-1,-1,9
"2006-08-01","As","left",1,12,2,6,"S0020",3,0,"*",2,-1,1538,"",-1,-1,-1,9
"2006-08-01","As","left",1,12,3,3,"S1000",2,0,"+",1,11850,10271,"",-1,-1,-1,9
"2006-08-01","As","left",1,12,4,5,"S0002",2,0,"+",1,2150,4016,"",-1,-1,-1,9
"2006-08-01","As","left",1,12,5,4,"S0100",3,0,"*",2,2212,3812,"",-1,-1,-1,9
"2006-08-01","As","left",1,12,6,7,"S2000",2,0,"+",1,2089,6642,"",-1,-1,-1,9
"2006-08-01","As","left",1,12,7,1,"S0001",3,0,"+",1,11953,3935,"",-1,-1,-1,9
"2006-08-01","As","left",1,12,8,8,"S0200",3,0,"*",1,-1,7667,"",-1,-1,-1,9
"2006-08-01","As","left",1,12,9,1,"S0001",3,0,"*",1,3074,-1,"",-1,-1,-1,9
"2006-08-01","As","left",1,12,10,8,"S0200",2,0,"*",1,-1,2416,"",-1,-1,-1,9
"2006-08-01","As","left",1,12,11,2,"S0010",2,0,"+",1,2725,1433,"",-1,-1,-1,9
"2006-08-01","As","left",1,12,12,7,"S2000",3,0,"*",1,-1,7892,"",-1,-1,-1,9
"2006-08-01","As","left",1,12,13,6,"S0020",3,0,"*",1,-1,5021,"",-1,-1,-1,9
"2006-08-01","As","left",1,12,14,3,"S1000",3,0,"+",1,11071,5185,"",-1,-1,-1,9
"2006-08-01","As","left",1,12,15,4,"S0100",2,0,"+",1,6027,1290,"",-1,-1,-1,9
"2006-08-01","As","left",1,12,16,5,"S0002",3,0,"+",1,6517,15668,"",-1,-1,-1,9
"2006-08-01","As","left",1,12,17,3,"S1000",2,0,"+",1,9553,8425,"",-1,-1,-1,9
"2006-08-01","As","left",1,12,18,8,"S0200",3,0,"+",1,2519,5205,"",-1,-1,-1,9
"2006-08-01","As","left",1,12,19,4,"S0100",3,0,"+",1,9102,7400,"",-1,-1,-1,9
"2006-08-01","As","left",1,12,20,5,"S0002",3,0,"+",1,4426,6251,"",-1,-1,-1,9
"2006-08-01","As","left",1,12,21,1,"S0001",2,0,"+",1,6555,4196,"",-1,-1,-1,9
"2006-08-01","As","left",1,12,22,6,"S0020",2,0,"+",1,5985,15500,"",-1,-1,-1,9
"2006-08-01","As","left",1,12,23,2,"S0010",2,0,"*",1,2253,-1,"",-1,-1,-1,9
"2006-08-01","As","left",1,12,24,7,"S2000",2,0,"+",1,2310,10759,"",-1,-1,-1,9
"2006-08-01","As","left",1,12,25,8,"S0200",3,0,"+",1,6067,29896,"",-1,-1,-1,9
"2006-08-01","As","left",1,12,26,2,"S0010",2,0,"*",1,6887,-1,"",-1,-1,-1,9
"2006-08-01","As","left",1,12,27,7,"S2000",2,0,"+",1,2784,4487,"",-1,-1,-1,9
"2006-08-01","As","left",1,12,28,1,"S0001",2,0,"*",1,6147,-1,"",-1,-1,-1,9
"2006-08-01","As","left",1,12,29,3,"S1000",3,0,"+",1,10844,4508,"",-1,-1,-1,9
"2006-08-01","As","left",1,12,30,5,"S0002",3,0,"+",1,6250,12443,"",-1,-1,-1,9
"2006-08-01","As","left",1,12,31,4,"S0100",3,0,"*",2,1596,-1,"",-1,-1,-1,9
"2006-08-01","As","left",1,12,32,6,"S0020",3,0,"*",1,-1,4775,"",-1,-1,-1,9
"2006-08-01","As","left",1,12,33,6,"S0020",2,0,"*",1,-1,11196,"",-1,-1,-1,9
"2006-08-01","As","left",1,12,34,2,"S0010",2,0,"*",1,2088,-1,"",-1,-1,-1,9
"2006-08-01","As","left",1,12,35,5,"S0002",2,0,"+",1,2559,4902,"",-1,-1,-1,9
"2006-08-01","As","left",1,12,36,8,"S0200",2,0,"+",1,2539,4959,"",-1,-1,-1,9
"2006-08-01","As","left",1,12,37,4,"S0100",3,0,"*",2,2211,-1,"",-1,-1,-1,9
"2006-08-01","As","left",1,12,38,3,"S1000",3,0,"+",1,9737,8117,"",-1,-1,-1,9
"2006-08-01","As","left",1,12,39,7,"S2000",3,0,"+",1,2744,4221,"",-1,-1,-1,9
"2006-08-01","As","left",1,12,40,1,"S0001",2,0,"*",1,9119,-1,"",-1,-1,-1,9
"2006-08-01","As","left",1,12,41,5,"S0002",2,0,"+",1,3113,4939,"",-1,-1,-1,9
"2006-08-01","As","left",1,12,42,1,"S0001",2,0,"*",1,2683,-1,"",-1,-1,-1,9
"2006-08-01","As","left",1,12,43,6,"S0020",3,0,"*",1,-1,4590,"",-1,-1,-1,9
"2006-08-01","As","left",1,12,44,7,"S2000",3,0,"+",1,3977,10663,"",-1,-1,-1,9
"2006-08-01","As","left",1,12,45,3,"S0100",3,0,"*",2,2807,-1,"",-1,-1,-1,9
"2006-08-01","As","left",1,12,46,8,"S0200",3,0,"+",1,14331,46102,"",-1,-1,-1,9
"2006-08-01","As","left",1,12,47,4,"S1000",3,0,"*",1,3093,-1,"",-1,-1,-1,9
"2006-08-01","As","left",1,12,48,2,"S0010",2,0,"*",1,2271,-1,"",-1,-1,-1,9
"2006-08-01","As","left",1,12,49,5,"S0002",3,0,"+",1,3830,21528,"",-1,-1,-1,9
"2006-08-01","As","left",1,12,50,7,"S2000",2,0,"+",1,6516,22369,"",-1,-1,-1,9
"2006-08-01","As","left",1,12,51,3,"S0100",3,0,"*",1,7193,-1,"",-1,-1,-1,9
"2006-08-01","As","left",1,12,52,2,"S0010",3,0,"+",1,5901,4179,"",-1,-1,-1,9
"2006-08-01","As","left",1,12,53,8,"S0200",2,0,"+",1,4425,19088,"",-1,-1,-1,9
"2006-08-01","As","left",1,12,54,4,"S1000",3,0,"*",1,4283,-1,"",-1,-1,-1,9
"2006-08-01","As","left",1,12,55,1,"S0001",3,0,"+",1,6393,4753,"",-1,-1,-1,9
"2006-08-01","As","left",1,12,56,6,"S0020",3,0,"*",1,-1,5512,"",-1,-1,-1,9
"2006-08-01","As","left",1,12,57,3,"S0100",2,0,"*",1,16360,-1,"",-1,-1,-1,9
"2006-08-01","As","left",1,12,58,5,"S0002",3,0,"+",1,3481,5778,"",-1,-1,-1,9
"2006-08-01","As","left",1,12,59,2,"S0010",3,0,"*",1,3871,-1,"",-1,-1,-1,9
"2006-08-01","As","left",1,12,60,7,"S2000",3,0,"*",2,5070,2708,"",-1,-1,-1,9
"2006-08-01","As","left",1,12,61,1,"S0001",2,0,"*",1,3154,-1,"",-1,-1,-1,9
"2006-08-02","As","left",1,13,1,1,"S0001",3,0,"*",1,3032,-1,"",-1,-1,-1,10
"2006-08-02","As","left",1,13,2,3,"S1000",2,0,"+",1,3875,1639,"",-1,-1,-1,10
"2006-08-02","As","left",1,13,3,6,"S0020",3,0,"+",1,3565,8549,"",-1,-1,-1,10
"2006-08-02","As","left",1,13,4,7,"S2000",3,0,"*",4,-1,1104,"",-1,-1,-1,10
"2006-08-02","As","left",1,13,5,2,"S0010",3,0,"+",1,3162,982,"",-1,-1,-1,10
"2006-08-02","As","left",1,13,6,8,"S0200",2,0,"+",1,3568,5951,"",-1,-1,-1,10
"2006-08-02","As","left",1,13,7,4,"S0100",2,0,"+",1,3421,1104,"",-1,-1,-1,10
"2006-08-02","As","left",1,13,8,5,"S0002",2,0,"*",2,2781,1248,"",-1,-1,-1,10
"2006-08-02","As","left",1,13,9,2,"S0010",2,0,"+",1,2724,1125,"",-1,-1,-1,10
"2006-08-02","As","left",1,13,10,6,"S0020",2,0,"*",3,3260,1250,"",-1,-1,-1,10
"2006-08-02","As","left",1,13,11,8,"S0200",2,0,"*",1,-1,4447,"",-1,-1,-1,10
"2006-08-02","As","left",1,13,12,3,"S1000",3,0,"+",2,2313,1042,"",-1,-1,-1,10
"2006-08-02","As","left",1,13,13,1,"S0001",3,0,"+",2,2826,1247,"",-1,-1,-1,10
"2006-08-02","As","left",1,13,14,5,"S0002",2,0,"*",2,3216,1226,"",-1,-1,-1,10
"2006-08-02","As","left",1,13,15,7,"S2000",2,0,"+",1,2293,5781,"",-1,-1,-1,10
"2006-08-02","As","left",1,13,16,4,"S0100",3,0,"*",2,2703,4897,"",-1,-1,-1,10
"2006-08-02","As","left",1,13,17,4,"S0100",3,0,"+",1,3647,1452,"",-1,-1,-1,10
"2006-08-02","As","left",1,13,18,7,"S2000",2,0,"*",1,-1,4303,"",-1,-1,-1,10
"2006-08-02","As","left",1,13,19,1,"S0001",3,0,"+",1,3666,1554,"",-1,-1,-1,10
"2006-08-02","As","left",1,13,20,2,"S0010",3,0,"+",1,7235,4425,"",-1,-1,-1,10
"2006-08-02","As","left",1,13,21,5,"S0002",2,0,"+",1,7010,9676,"",-1,-1,-1,10
"2006-08-02","As","left",1,13,22,3,"S1000",2,0,"+",1,2971,1124,"",-1,-1,-1,10
"2006-08-02","As","left",1,13,23,6,"S0020",2,0,"+",1,2663,4553,"",-1,-1,-1,10
"2006-08-02","As","left",1,13,24,8,"S0200",2,0,"+",1,2846,6024,"",-1,-1,-1,10
"2006-08-02","As","left",1,13,25,4,"S0100",3,0,"+",1,3687,1801,"",-1,-1,-1,10
"2006-08-02","As","left",1,13,26,1,"S0001",2,0,"*",1,2498,-1,"",-1,-1,-1,10
"2006-08-02","As","left",1,13,27,8,"S0200",2,0,"+",1,2703,9963,"",-1,-1,-1,10
"2006-08-02","As","left",1,13,28,3,"S1000",2,0,"+",1,3277,1226,"",-1,-1,-1,10
"2006-08-02","As","left",1,13,29,5,"S0002",3,0,"+",1,3160,20920,"",-1,-1,-1,10
"2006-08-02","As","left",1,13,30,2,"S0010",3,0,"+",1,16218,5061,"",-1,-1,-1,10
"2006-08-02","As","left",1,13,31,7,"S2000",2,0,"+",1,2272,4098,"",-1,-1,-1,10
"2006-08-02","As","left",1,13,32,6,"S0020",2,0,"*",2,2149,1124,"",-1,-1,-1,10
"2006-08-02","As","left",1,13,33,3,"S1000",3,0,"+",1,9942,3564,"",-1,-1,-1,10
"2006-08-02","As","left",1,13,34,1,"S0001",3,0,"*",2,2375,-1,"",-1,-1,-1,10
"2006-08-02","As","left",1,13,35,6,"S0020",2,0,"*",2,-1,1451,"",-1,-1,-1,10
"2006-08-02","As","left",1,13,36,4,"S0100",2,0,"*",1,2231,-1,"",-1,-1,-1,10
"2006-08-02","As","left",1,13,37,5,"S0002",2,0,"+",1,2704,5246,"",-1,-1,-1,10
"2006-08-02","As","left",1,13,38,2,"S0010",3,0,"*",3,2110,-1,"",-1,-1,-1,10
"2006-08-02","As","left",1,13,39,7,"S2000",2,0,"+",1,3220,13146,"",-1,-1,-1,10
"2006-08-02","As","left",1,13,40,8,"S0200",2,0,"*",3,3464,1310,"",-1,-1,-1,10
"2006-08-02","As","left",1,13,41,5,"S0002",2,0,"+",1,3177,14026,"",-1,-1,-1,10
"2006-08-02","As","left",1,13,42,2,"S0010",3,0,"*",1,3976,-1,"",-1,-1,-1,10
"2006-08-02","As","left",1,13,43,8,"S0200",3,0,"*",2,2743,1226,"",-1,-1,-1,10
"2006-08-02","As","left",1,13,44,1,"S0001",2,0,"+",1,3420,1287,"",-1,-1,-1,10
"2006-08-02","As","left",1,13,45,4,"S1000",2,0,"+",1,3181,1331,"",-1,-1,-1,10
"2006-08-02","As","left",1,13,46,7,"S2000",3,0,"+",1,2231,18190,"",-1,-1,-1,10
"2006-08-02","As","left",1,13,47,6,"S0020",3,0,"+",1,3154,5143,"",-1,-1,-1,10
"2006-08-02","As","left",1,13,48,3,"S0100",2,0,"*",1,3604,-1,"",-1,-1,-1,10
"2006-08-02","As","left",1,13,49,7,"S2000",3,0,"*",1,-1,4774,"",-1,-1,-1,10
"2006-08-02","As","left",1,13,50,1,"S0001",2,0,"+",1,2906,1409,"",-1,-1,-1,10
"2006-08-02","As","left",1,13,51,6,"S0020",2,0,"*",1,-1,5678,"",-1,-1,-1,10
"2006-08-02","As","left",1,13,52,2,"S0010",3,0,"+",1,7296,5818,"",-1,-1,-1,10
"2006-08-02","As","left",1,13,53,5,"S0002",3,0,"*",1,-1,10085,"",-1,-1,-1,10
"2006-08-02","As","left",1,13,54,4,"S1000",3,0,"*",3,2537,-1,"",-1,-1,-1,10
"2006-08-02","As","left",1,13,55,3,"S0100",2,0,"*",1,2353,-1,"",-1,-1,-1,10
"2006-08-02","As","left",1,13,56,8,"S0200",2,0,"+",1,2887,9634,"",-1,-1,-1,10
"2006-08-02","As","left",1,13,57,5,"S0002",3,0,"*",1,-1,5039,"",-1,-1,-1,10
"2006-08-02","As","left",1,13,58,1,"S0001",3,0,"+",2,2701,1368,"",-1,-1,-1,10
"2006-08-02","As","left",1,13,59,6,"S0020",2,0,"+",1,2455,5347,"",-1,-1,-1,10
"2006-08-02","As","left",1,13,60,7,"S2000",2,0,"+",1,3111,17384,"",-1,-1,-1,10
"2006-08-02","As","left",1,13,61,2,"S0010",3,0,"*",2,2230,-1,"",-1,-1,-1,10
"2006-08-02","As","left",1,13,62,4,"S1000",3,0,"*",2,2353,4383,"",-1,-1,-1,10
"2006-08-02","As","left",1,13,63,8,"S0200",2,0,"+",1,3030,10064,"",-1,-1,-1,10
"2006-08-02","As","left",1,13,64,3,"S0100",3,0,"+",1,3112,1635,"",-1,-1,-1,10
"2006-08-02","As","left",1,13,65,8,"S0200",3,0,"*",2,-1,1143,"",-1,-1,-1,10
"2006-08-02","As","left",1,13,66,3,"S0100",3,0,"*",2,2886,-1,"",-1,-1,-1,10
"2006-08-02","As","left",1,13,67,1,"S0001",3,0,"*",1,3337,-1,"",-1,-1,-1,10
"2006-08-02","As","left",1,13,68,5,"S0002",3,0,"+",1,2722,9490,"",-1,-1,-1,10
"2006-08-02","As","left",1,13,69,4,"S1000",3,0,"+",1,7255,5265,"",-1,-1,-1,10
"2006-08-02","As","left",1,13,70,6,"S0020",3,0,"+",1,4097,6208,"",-1,-1,-1,10
"2006-08-02","As","left",1,13,71,7,"S2000",3,0,"+",1,2782,5243,"",-1,-1,-1,10
"2006-08-02","As","left",1,13,72,2,"S0010",3,0,"*",1,3233,-1,"",-1,-1,-1,10
"2006-08-02","As","left",1,13,73,8,"S0200",3,0,"+",1,3623,5756,"",-1,-1,-1,10
"2006-08-02","As","left",1,13,74,1,"S0001",2,0,"+",1,2680,1450,"",-1,-1,-1,10
"2006-08-02","As","left",1,13,75,3,"S0100",3,0,"*",1,3952,-1,"",-1,-1,-1,10
"2006-08-02","As","left",1,13,76,6,"S0020",3,0,"+",1,3829,10248,"",-1,-1,-1,10
"2006-08-02","As","left",1,13,77,4,"S1000",3,0,"*",1,3050,-1,"",-1,-1,-1,10
"2006-08-02","As","left",1,13,78,2,"S0010",3,0,"*",1,3234,-1,"",-1,-1,-1,10
"2006-08-02","As","left",1,13,79,5,"S0002",2,0,"+",1,2352,9899,"",-1,-1,-1,10
"2006-08-02","As","left",1,13,80,7,"S2000",2,0,"+",1,2742,5080,"",-1,-1,-1,10
"2006-08-03","As","left",1,14,1,7,"S2000",3,1,"*",2,-1,983,"",-1,-1,-1,11
"2006-08-03","As","left",1,14,2,8,"S0200",2,0,"*",2,2786,1330,"",-1,-1,-1,11
"2006-08-03","As","left",1,14,3,4,"S0100",3,0,"+",1,3506,1248,"",-1,-1,-1,11
"2006-08-03","As","left",1,14,4,3,"S1000",3,0,"+",1,3402,961,"",-1,-1,-1,11
"2006-08-03","As","left",1,14,5,6,"S0020",3,0,"*",1,-1,5700,"",-1,-1,-1,11
"2006-08-03","As","left",1,14,6,2,"S0010",3,0,"*",2,2810,5742,"",-1,-1,-1,11
"2006-08-03","As","left",1,14,7,5,"S0002",3,1,"*",3,7483,961,"",-1,-1,-1,11
"2006-08-03","As","left",1,14,8,1,"S0001",2,0,"*",1,3053,-1,"",-1,-1,-1,11
"2006-08-03","As","left",1,14,9,8,"S0200",3,0,"+",1,2375,10149,"",-1,-1,-1,11
"2006-08-03","As","left",1,14,10,3,"S1000",3,0,"+",1,10480,4348,"",-1,-1,-1,11
"2006-08-03","As","left",1,14,11,5,"S0002",3,0,"+",1,2540,4125,"",-1,-1,-1,11
"2006-08-03","As","left",1,14,12,1,"S0001",2,0,"*",1,2949,-1,"",-1,-1,-1,11
"2006-08-03","As","left",1,14,13,6,"S0020",2,0,"+",1,2436,4777,"",-1,-1,-1,11
"2006-08-03","As","left",1,14,14,2,"S0010",3,0,"*",2,2683,4388,"",-1,-1,-1,11
"2006-08-03","As","left",1,14,15,7,"S2000",3,0,"+",1,2293,5377,"",-1,-1,-1,11
"2006-08-03","As","left",1,14,16,4,"S0100",3,0,"+",2,2683,1350,"",-1,-1,-1,11
"2006-08-03","As","left",1,14,17,5,"S0002",3,0,"+",1,3322,5208,"",-1,-1,-1,11
"2006-08-03","As","left",1,14,18,2,"S0010",2,0,"*",1,4405,-1,"",-1,-1,-1,11
"2006-08-03","As","left",1,14,19,7,"S2000",3,0,"+",1,2436,4572,"",-1,-1,-1,11
"2006-08-03","As","left",1,14,20,1,"S0001",2,0,"*",1,6949,-1,"",-1,-1,-1,11
"2006-08-03","As","left",1,14,21,4,"S0100",2,0,"*",1,2192,-1,"",-1,-1,-1,11
"2006-08-03","As","left",1,14,22,6,"S0020",3,0,"*",2,2765,1350,"",-1,-1,-1,11
"2006-08-03","As","left",1,14,23,3,"S1000",3,0,"+",2,2868,1329,"",-1,-1,-1,11
"2006-08-03","As","left",1,14,24,8,"S0200",3,0,"+",1,3547,5762,"",-1,-1,-1,11
"2006-08-03","As","left",1,14,25,1,"S0001",2,0,"+",1,3155,1370,"",-1,-1,-1,11
"2006-08-03","As","left",1,14,26,5,"S0002",3,0,"*",2,4118,1267,"",-1,-1,-1,11
"2006-08-03","As","left",1,14,27,2,"S0010",2,0,"*",1,3134,-1,"",-1,-1,-1,11
"2006-08-03","As","left",1,14,28,8,"S0200",3,0,"+",1,2357,4327,"",-1,-1,-1,11
"2006-08-03","As","left",1,14,29,4,"S0100",3,0,"+",1,6353,4650,"",-1,-1,-1,11
"2006-08-03","As","left",1,14,30,3,"S1000",3,0,"+",2,2682,1370,"",-1,-1,-1,11
"2006-08-03","As","left",1,14,31,7,"S2000",3,0,"+",1,2804,10703,"",-1,-1,-1,11
"2006-08-03","As","left",1,14,32,6,"S0020",3,0,"+",1,6540,13355,"",-1,-1,-1,11
"2006-08-03","As","left",1,14,33,2,"S0010",3,0,"*",2,2334,4774,"",-1,-1,-1,11
"2006-08-03","As","left",1,14,34,3,"S1000",3,0,"*",1,6004,-1,"",-1,-1,-1,11
"2006-08-03","As","left",1,14,35,5,"S0002",3,0,"+",1,2353,8056,"",-1,-1,-1,11
"2006-08-03","As","left",1,14,36,1,"S0001",2,0,"*",1,2128,-1,"",-1,-1,-1,11
"2006-08-03","As","left",1,14,37,8,"S0200",3,0,"+",1,4549,14208,"",-1,-1,-1,11
"2006-08-03","As","left",1,14,38,7,"S2000",3,0,"+",1,2744,4979,"",-1,-1,-1,11
"2006-08-03","As","left",1,14,39,4,"S0100",2,0,"*",1,2314,-1,"",-1,-1,-1,11
"2006-08-03","As","left",1,14,40,6,"S0020",3,0,"*",1,-1,5042,"",-1,-1,-1,11
"2006-08-03","As","left",1,14,41,6,"S0020",3,0,"*",1,-1,9573,"",-1,-1,-1,11
"2006-08-03","As","left",1,14,42,4,"S1000",2,0,"*",1,7591,-1,"",-1,-1,-1,11
"2006-08-03","As","left",1,14,43,3,"S0100",2,0,"*",1,2436,-1,"",-1,-1,-1,11
"2006-08-03","As","left",1,14,44,7,"S2000",3,0,"*",2,-1,1083,"",-1,-1,-1,11
"2006-08-03","As","left",1,14,45,1,"S0001",2,0,"*",1,3072,-1,"",-1,-1,-1,11
"2006-08-03","As","left",1,14,46,2,"S0010",3,0,"+",1,7875,1804,"",-1,-1,-1,11
"2006-08-03","As","left",1,14,47,5,"S0002",3,0,"+",1,2398,9106,"",-1,-1,-1,11
"2006-08-03","As","left",1,14,48,8,"S0200",2,0,"+",1,2435,8321,"",-1,-1,-1,11
"2006-08-03","As","left",1,14,49,4,"S1000",2,0,"+",1,6889,1024,"",-1,-1,-1,11
"2006-08-03","As","left",1,14,50,5,"S0002",3,0,"*",2,-1,1348,"",-1,-1,-1,11
"2006-08-03","As","left",1,14,51,7,"S2000",2,0,"+",1,2604,8367,"",-1,-1,-1,11
"2006-08-03","As","left",1,14,52,1,"S0001",2,0,"+",1,6704,4941,"",-1,-1,-1,11
"2006-08-03","As","left",1,14,53,8,"S0200",3,0,"*",2,3072,1246,"",-1,-1,-1,11
"2006-08-03","As","left",1,14,54,6,"S0020",2,0,"*",1,-1,4123,"",-1,-1,-1,11
"2006-08-03","As","left",1,14,55,2,"S0010",3,0,"*",2,3010,4425,"",-1,-1,-1,11
"2006-08-03","As","left",1,14,56,3,"S0100",3,0,"+",2,2889,961,"",-1,-1,-1,11
"2006-08-03","As","left",1,14,57,5,"S0002",3,0,"+",1,10475,15951,"",-1,-1,-1,11
"2006-08-03","As","left",1,14,58,4,"S1000",3,0,"*",3,2233,3976,"",-1,-1,-1,11
"2006-08-03","As","left",1,14,59,2,"S0010",2,0,"+",1,12466,3832,"",-1,-1,-1,11
"2006-08-03","As","left",1,14,60,7,"S2000",2,0,"*",2,2292,1267,"",-1,-1,-1,11
"2006-08-03","As","left",1,14,61,1,"S0001",2,0,"*",1,2825,-1,"",-1,-1,-1,11
"2006-08-03","As","left",1,14,62,6,"S0020",3,0,"+",1,2149,3810,"",-1,-1,-1,11
"2006-08-03","As","left",1,14,63,3,"S0100",2,0,"*",1,3111,-1,"",-1,-1,-1,11
"2006-08-03","As","left",1,14,64,8,"S0200",3,0,"+",1,5736,7766,"",-1,-1,-1,11
"2006-08-03","As","left",1,14,65,4,"S1000",3,0,"+",1,13406,4383,"",-1,-1,-1,11
"2006-08-03","As","left",1,14,66,5,"S0002",3,0,"+",1,3686,5285,"",-1,-1,-1,11
"2006-08-03","As","left",1,14,67,6,"S0020",2,0,"+",1,2332,4199,"",-1,-1,-1,11
"2006-08-03","As","left",1,14,68,2,"S0010",3,0,"*",2,2086,-1,"",-1,-1,-1,11
"2006-08-03","As","left",1,14,69,1,"S0001",3,0,"*",1,7254,-1,"",-1,-1,-1,11
"2006-08-03","As","left",1,14,70,7,"S2000",3,0,"+",1,5634,8033,"",-1,-1,-1,11
"2006-08-03","As","left",1,14,71,8,"S0200",2,0,"+",1,2619,4875,"",-1,-1,-1,11
"2006-08-03","As","left",1,14,72,3,"S0100",3,0,"*",1,11605,-1,"",-1,-1,-1,11
"2006-08-03","As","left",1,14,73,7,"S2000",2,0,"+",1,2558,13284,"",-1,-1,-1,11
"2006-08-03","As","left",1,14,74,1,"S0001",3,0,"*",2,2782,-1,"",-1,-1,-1,11
"2006-08-03","As","left",1,14,75,5,"S0002",2,0,"+",1,7008,9021,"",-1,-1,-1,11
"2006-08-03","As","left",1,14,76,4,"S1000",2,0,"*",1,2042,-1,"",-1,-1,-1,11
"2006-08-03","As","left",1,14,77,6,"S0020",3,0,"+",1,2024,4177,"",-1,-1,-1,11
"2006-08-03","As","left",1,14,78,8,"S0200",2,0,"*",1,-1,4999,"",-1,-1,-1,11
"2006-08-03","As","left",1,14,79,3,"S0100",2,0,"*",1,3576,-1,"",-1,-1,-1,11
"2006-08-03","As","left",1,14,80,2,"S0010",2,0,"*",1,3050,-1,"",-1,-1,-1,11
"2006-08-04","As","left",1,15,1,6,"S0020",3,0,"*",3,3219,1127,"",-1,-1,-1,12
"2006-08-04","As","left",1,15,2,8,"S0200",3,1,"*",4,2933,820,"",-1,-1,-1,12
"2006-08-04","As","left",1,15,3,2,"S0010",2,0,"+",1,2151,900,"",-1,-1,-1,12
"2006-08-04","As","left",1,15,4,1,"S0001",2,0,"+",1,6273,1044,"",-1,-1,-1,12
"2006-08-04","As","left",1,15,5,7,"S2000",3,0,"*",3,3341,1268,"",-1,-1,-1,12
"2006-08-04","As","left",1,15,6,3,"S1000",3,0,"+",3,2540,1104,"",-1,-1,-1,12
"2006-08-04","As","left",1,15,7,4,"S0100",3,0,"+",2,2888,1227,"",-1,-1,-1,12
"2006-08-04","As","left",1,15,8,5,"S0002",2,0,"*",2,3154,1021,"",-1,-1,-1,12
"2006-08-04","As","left",1,15,9,2,"S0010",3,0,"*",3,2415,4469,"",-1,-1,-1,12
"2006-08-04","As","left",1,15,10,6,"S0020",3,0,"*",2,2929,1124,"",-1,-1,-1,12
"2006-08-04","As","left",1,15,11,1,"S0001",3,0,"*",2,2354,3854,"",-1,-1,-1,12
"2006-08-04","As","left",1,15,12,7,"S2000",2,0,"+",1,2560,9185,"",-1,-1,-1,12
"2006-08-04","As","left",1,15,13,5,"S0002",3,0,"+",1,2006,4285,"",-1,-1,-1,12
"2006-08-04","As","left",1,15,14,3,"S1000",2,0,"*",1,2457,-1,"",-1,-1,-1,12
"2006-08-04","As","left",1,15,15,4,"S0100",2,0,"*",1,2727,-1,"",-1,-1,-1,12
"2006-08-04","As","left",1,15,16,8,"S0200",3,0,"*",1,-1,8305,"",-1,-1,-1,12
"2006-08-04","As","left",1,15,17,1,"S0001",3,0,"+",1,13844,8860,"",-1,-1,-1,12
"2006-08-04","As","left",1,15,18,7,"S2000",2,0,"+",1,1800,3298,"",-1,-1,-1,12
"2006-08-04","As","left",1,15,19,8,"S0200",3,0,"+",1,2907,8037,"",-1,-1,-1,12
"2006-08-04","As","left",1,15,20,3,"S1000",3,0,"*",2,2888,-1,"",-1,-1,-1,12
"2006-08-04","As","left",1,15,21,6,"S0020",3,0,"+",1,2211,5187,"",-1,-1,-1,12
"2006-08-04","As","left",1,15,22,4,"S0100",2,0,"*",2,1985,-1,"",-1,-1,-1,12
"2006-08-04","As","left",1,15,23,2,"S0010",3,0,"*",2,2620,4302,"",-1,-1,-1,12
"2006-08-04","As","left",1,15,24,5,"S0002",2,0,"+",1,2785,9367,"",-1,-1,-1,12
"2006-08-04","As","left",1,15,25,1,"S0001",3,0,"+",1,5680,4573,"",-1,-1,-1,12
"2006-08-04","As","left",1,15,26,5,"S0002",3,0,"+",1,2252,4428,"",-1,-1,-1,12
"2006-08-04","As","left",1,15,27,4,"S0100",2,0,"*",1,3032,-1,"",-1,-1,-1,12
"2006-08-04","As","left",1,15,28,2,"S0010",3,0,"*",2,2257,-1,"",-1,-1,-1,12
"2006-08-04","As","left",1,15,29,6,"S0020",2,0,"+",1,3400,6066,"",-1,-1,-1,12
"2006-08-04","As","left",1,15,30,7,"S2000",3,0,"+",1,3462,4897,"",-1,-1,-1,12
"2006-08-04","As","left",1,15,31,3,"S1000",3,0,"*",2,2928,4508,"",-1,-1,-1,12
"2006-08-04","As","left",1,15,32,8,"S0200",3,0,"+",1,2272,12998,"",-1,-1,-1,12
"2006-08-04","As","left",1,15,33,1,"S0001",3,0,"*",5,2068,4693,"",-1,-1,-1,12
"2006-08-04","As","left",1,15,34,4,"S0100",2,0,"*",1,2480,-1,"",-1,-1,-1,12
"2006-08-04","As","left",1,15,35,7,"S2000",2,0,"+",1,7030,10127,"",-1,-1,-1,12
"2006-08-04","As","left",1,15,36,2,"S0010",3,0,"*",2,2682,5348,"",-1,-1,-1,12
"2006-08-04","As","left",1,15,37,5,"S0002",2,0,"+",1,6516,9511,"",-1,-1,-1,12
"2006-08-04","As","left",1,15,38,6,"S0020",3,0,"+",1,3529,9250,"",-1,-1,-1,12
"2006-08-04","As","left",1,15,39,3,"S1000",2,0,"*",2,1699,-1,"",-1,-1,-1,12
"2006-08-04","As","left",1,15,40,8,"S0200",3,0,"+",1,3568,6747,"",-1,-1,-1,12
"2006-08-04","As","left",1,15,41,4,"S1000",2,0,"*",1,5536,-1,"",-1,-1,-1,12
"2006-08-04","As","left",1,15,42,6,"S0020",3,0,"+",1,5348,11546,"",-1,-1,-1,12
"2006-08-04","As","left",1,15,43,2,"S0010",3,0,"*",2,2784,4569,"",-1,-1,-1,12
"2006-08-04","As","left",1,15,44,5,"S0002",3,0,"*",2,2476,1225,"",-1,-1,-1,12
"2006-08-04","As","left",1,15,45,8,"S0200",2,0,"*",2,2909,1823,"",-1,-1,-1,12
"2006-08-04","As","left",1,15,46,3,"S0100",3,0,"*",3,2004,4424,"",-1,-1,-1,12
"2006-08-04","As","left",1,15,47,1,"S0001",2,0,"*",1,3849,-1,"",-1,-1,-1,12
"2006-08-04","As","left",1,15,48,7,"S2000",3,0,"+",1,2250,11830,"",-1,-1,-1,12
"2006-08-04","As","left",1,15,49,2,"S0010",3,0,"*",2,2517,5162,"",-1,-1,-1,12
"2006-08-04","As","left",1,15,50,5,"S0002",3,0,"*",2,3173,1020,"",-1,-1,-1,12
"2006-08-04","As","left",1,15,51,6,"S0020",3,0,"*",2,3748,2518,"",-1,-1,-1,12
"2006-08-04","As","left",1,15,52,3,"S0100",2,0,"*",1,4547,-1,"",-1,-1,-1,12
"2006-08-04","As","left",1,15,53,8,"S0200",2,0,"+",1,3009,5388,"",-1,-1,-1,12
"2006-08-04","As","left",1,15,54,1,"S0001",3,0,"*",2,2929,-1,"",-1,-1,-1,12
"2006-08-04","As","left",1,15,55,4,"S1000",2,0,"*",1,2332,-1,"",-1,-1,-1,12
"2006-08-04","As","left",1,15,56,7,"S2000",3,0,"+",1,3173,13037,"",-1,-1,-1,12
"2006-08-04","As","left",1,15,57,2,"S0010",3,0,"*",3,2701,4629,"",-1,-1,-1,12
"2006-08-04","As","left",1,15,58,7,"S2000",2,0,"+",1,7684,10288,"",-1,-1,-1,12
"2006-08-04","As","left",1,15,59,5,"S0002",2,0,"+",1,6741,9264,"",-1,-1,-1,12
"2006-08-04","As","left",1,15,60,3,"S0100",2,0,"*",1,4465,-1,"",-1,-1,-1,12
"2006-08-04","As","left",1,15,61,4,"S1000",3,0,"*",2,2578,5285,"",-1,-1,-1,12
"2006-08-04","As","left",1,15,62,6,"S0020",2,0,"+",1,1941,7930,"",-1,-1,-1,12
"2006-08-04","As","left",1,15,63,1,"S0001",3,0,"*",2,2521,-1,"",-1,-1,-1,12
"2006-08-04","As","left",1,15,64,8,"S0200",2,0,"*",2,3541,1942,"",-1,-1,-1,12
"2006-08-04","As","left",1,15,65,4,"S1000",2,0,"*",1,6391,-1,"",-1,-1,-1,12
"2006-08-04","As","left",1,15,66,1,"S0001",2,0,"*",1,6679,-1,"",-1,-1,-1,12
"2006-08-04","As","left",1,15,67,7,"S2000",3,0,"+",1,1922,12954,"",-1,-1,-1,12
"2006-08-04","As","left",1,15,68,6,"S0020",3,0,"+",1,1941,4115,"",-1,-1,-1,12
"2006-08-04","As","left",1,15,69,3,"S0100",2,0,"*",1,3481,-1,"",-1,-1,-1,12
"2006-08-04","As","left",1,15,70,5,"S0002",3,0,"+",1,2721,5019,"",-1,-1,-1,12
"2006-08-04","As","left",1,15,71,2,"S0010",2,0,"+",1,2107,834,"",-1,-1,-1,12
"2006-08-04","As","left",1,15,72,8,"S0200",3,0,"+",1,6846,20442,"",-1,-1,-1,12
"2006-08-04","As","left",1,15,73,4,"S1000",3,0,"*",2,2601,-1,"",-1,-1,-1,12
"2006-08-04","As","left",1,15,74,5,"S0002",2,0,"*",2,2271,1081,"",-1,-1,-1,12
"2006-08-04","As","left",1,15,75,3,"S0100",3,0,"*",2,2025,-1,"",-1,-1,-1,12
"2006-08-04","As","left",1,15,76,6,"S0020",3,0,"+",1,2804,8464,"",-1,-1,-1,12
"2006-08-04","As","left",1,15,77,2,"S0010",2,0,"*",2,1961,-1,"",-1,-1,-1,12
"2006-08-04","As","left",1,15,78,8,"S0200",3,0,"*",1,-1,8730,"",-1,-1,-1,12
"2006-08-04","As","left",1,15,79,1,"S0001",3,0,"*",2,2619,-1,"",-1,-1,-1,12
"2006-08-04","As","left",1,15,80,7,"S2000",2,0,"+",1,3111,4896,"",-1,-1,-1,12
"2006-08-07","As","left",1,16,1,3,"S1000",2,0,"*",1,3012,-1,"",-1,-1,-1,13
"2006-08-07","As","left",1,16,2,7,"S2000",3,1,"*",2,8306,981,"",-1,-1,-1,13
"2006-08-07","As","left",1,16,3,4,"S0100",3,0,"*",1,3116,-1,"",-1,-1,-1,13
"2006-08-07","As","left",1,16,4,6,"S0020",2,0,"*",1,-1,5554,"",-1,-1,-1,13
"2006-08-07","As","left",1,16,5,1,"S0001",3,0,"*",1,3199,-1,"",-1,-1,-1,13
"2006-08-07","As","left",1,16,6,8,"S0200",2,0,"+",1,2520,6642,"",-1,-1,-1,13
"2006-08-07","As","left",1,16,7,2,"S0010",2,0,"*",1,3094,-1,"",-1,-1,-1,13
"2006-08-07","As","left",1,16,8,5,"S0002",2,0,"+",1,2068,22453,"",-1,-1,-1,13
"2006-08-07","As","left",1,16,9,4,"S0100",3,0,"*",3,2663,-1,"",-1,-1,-1,13
"2006-08-07","As","left",1,16,10,7,"S2000",2,0,"+",1,2313,7956,"",-1,-1,-1,13
"2006-08-07","As","left",1,16,11,1,"S0001",2,0,"*",1,4856,-1,"",-1,-1,-1,13
"2006-08-07","As","left",1,16,12,2,"S0010",3,0,"*",3,2375,-1,"",-1,-1,-1,13
"2006-08-07","As","left",1,16,13,5,"S0002",3,0,"+",1,1740,3240,"",-1,-1,-1,13
"2006-08-07","As","left",1,16,14,6,"S0020",3,0,"+",1,5884,8489,"",-1,-1,-1,13
"2006-08-07","As","left",1,16,15,3,"S1000",3,0,"*",1,6028,-1,"",-1,-1,-1,13
"2006-08-07","As","left",1,16,16,8,"S0200",2,0,"+",1,2662,16340,"",-1,-1,-1,13
"2006-08-07","As","left",1,16,17,7,"S2000",3,0,"+",1,2539,4552,"",-1,-1,-1,13
"2006-08-07","As","left",1,16,18,4,"S0100",2,0,"*",1,2375,-1,"",-1,-1,-1,13
"2006-08-07","As","left",1,16,19,8,"S0200",3,0,"+",1,2949,9043,"",-1,-1,-1,13
"2006-08-07","As","left",1,16,20,2,"S0010",2,0,"*",1,2416,-1,"",-1,-1,-1,13
"2006-08-07","As","left",1,16,21,1,"S0001",3,0,"*",3,1616,7997,"",-1,-1,-1,13
"2006-08-07","As","left",1,16,22,6,"S0020",2,0,"+",1,2252,8220,"",-1,-1,-1,13
"2006-08-07","As","left",1,16,23,5,"S0002",2,0,"+",1,2621,4262,"",-1,-1,-1,13
"2006-08-07","As","left",1,16,24,3,"S1000",3,0,"*",4,1924,3875,"",-1,-1,-1,13
"2006-08-07","As","left",1,16,25,1,"S0001",3,0,"*",1,3096,-1,"",-1,-1,-1,13
"2006-08-07","As","left",1,16,26,7,"S2000",2,0,"+",1,3031,5328,"",-1,-1,-1,13
"2006-08-07","As","left",1,16,27,5,"S0002",2,0,"+",1,2621,4815,"",-1,-1,-1,13
"2006-08-07","As","left",1,16,28,4,"S0100",2,0,"*",1,2375,-1,"",-1,-1,-1,13
"2006-08-07","As","left",1,16,29,8,"S0200",2,0,"+",1,8035,39126,"",-1,-1,-1,13
"2006-08-07","As","left",1,16,30,3,"S1000",3,0,"*",1,7665,-1,"",-1,-1,-1,13
"2006-08-07","As","left",1,16,31,6,"S0020",3,0,"+",1,4117,24503,"",-1,-1,-1,13
"2006-08-07","As","left",1,16,32,2,"S0010",3,0,"*",1,3339,-1,"",-1,-1,-1,13
"2006-08-07","As","left",1,16,33,5,"S0002",3,0,"+",1,3626,5738,"",-1,-1,-1,13
"2006-08-07","As","left",1,16,34,7,"S2000",3,0,"+",1,2293,26861,"",-1,-1,-1,13
"2006-08-07","As","left",1,16,35,2,"S0010",2,0,"*",1,2416,-1,"",-1,-1,-1,13
"2006-08-07","As","left",1,16,36,4,"S0100",3,0,"*",2,2374,5081,"",-1,-1,-1,13
"2006-08-07","As","left",1,16,37,8,"S0200",2,0,"+",1,2724,17694,"",-1,-1,-1,13
"2006-08-07","As","left",1,16,38,1,"S0001",3,0,"+",1,7426,4985,"",-1,-1,-1,13
"2006-08-07","As","left",1,16,39,3,"S1000",2,0,"*",1,2662,-1,"",-1,-1,-1,13
"2006-08-07","As","left",1,16,40,6,"S0020",3,0,"+",1,5087,8143,"",-1,-1,-1,13
"2006-08-07","As","left",1,16,41,4,"S1000",2,0,"+",1,8923,6171,"",-1,-1,-1,13
"2006-08-07","As","left",1,16,42,7,"S2000",3,0,"+",1,2641,22722,"",-1,-1,-1,13
"2006-08-07","As","left",1,16,43,2,"S0010",2,0,"*",2,1841,-1,"",-1,-1,-1,13
"2006-08-07","As","left",1,16,44,1,"S0001",2,0,"*",1,2812,-1,"",-1,-1,-1,13
"2006-08-07","As","left",1,16,45,6,"S0020",3,0,"*",1,-1,4432,"",-1,-1,-1,13
"2006-08-07","As","left",1,16,46,8,"S0200",3,0,"+",1,2827,14955,"",-1,-1,-1,13
"2006-08-07","As","left",1,16,47,3,"S0100",3,0,"+",2,2476,775,"",-1,-1,-1,13
"2006-08-07","As","left",1,16,48,5,"S0002",2,0,"*",1,-1,4201,"",-1,-1,-1,13
"2006-08-07","As","left",1,16,49,6,"S0020",3,0,"+",1,1861,15417,"",-1,-1,-1,13
"2006-08-07","As","left",1,16,50,1,"S0001",2,0,"+",1,3276,1082,"",-1,-1,-1,13
"2006-08-07","As","left",1,16,51,5,"S0002",3,0,"+",1,2640,8218,"",-1,-1,-1,13
"2006-08-07","As","left",1,16,52,8,"S0200",3,0,"+",1,7052,18107,"",-1,-1,-1,13
"2006-08-07","As","left",1,16,53,2,"S0010",3,0,"*",1,3154,-1,"",-1,-1,-1,13
"2006-08-07","As","left",1,16,54,7,"S2000",3,0,"+",1,6475,12524,"",-1,-1,-1,13
"2006-08-07","As","left",1,16,55,4,"S1000",2,0,"*",1,2579,-1,"",-1,-1,-1,13
"2006-08-07","As","left",1,16,56,3,"S0100",2,0,"*",1,2332,-1,"",-1,-1,-1,13
"2006-08-07","As","left",1,16,57,7,"S2000",2,0,"+",1,2844,4895,"",-1,-1,-1,13
"2006-08-07","As","left",1,16,58,1,"S0001",3,0,"+",1,8243,6090,"",-1,-1,-1,13
"2006-08-07","As","left",1,16,59,5,"S0002",3,0,"+",1,2948,25240,"",-1,-1,-1,13
"2006-08-07","As","left",1,16,60,2,"S0010",3,0,"*",4,1860,-1,"",-1,-1,-1,13
"2006-08-07","As","left",1,16,61,8,"S0200",3,0,"+",1,3932,10023,"",-1,-1,-1,13
"2006-08-07","As","left",1,16,62,3,"S0100",2,0,"*",1,2702,-1,"",-1,-1,-1,13
"2006-08-07","As","left",1,16,63,6,"S0020",3,0,"+",1,2968,20584,"",-1,-1,-1,13
"2006-08-07","As","left",1,16,64,4,"S1000",3,0,"*",1,4998,-1,"",-1,-1,-1,13
"2006-08-07","As","left",1,16,65,5,"S0002",3,0,"+",1,3131,12401,"",-1,-1,-1,13
"2006-08-07","As","left",1,16,66,2,"S0010",3,0,"*",3,1697,-1,"",-1,-1,-1,13
"2006-08-07","As","left",1,16,67,4,"S1000",3,0,"*",1,12955,-1,"",-1,-1,-1,13
"2006-08-07","As","left",1,16,68,6,"S0020",2,0,"+",1,3357,46876,"",-1,-1,-1,13
"2006-08-07","As","left",1,16,69,1,"S0001",2,0,"*",1,3053,-1,"",-1,-1,-1,13
"2006-08-07","As","left",1,16,70,8,"S0200",3,0,"+",1,3153,5470,"",-1,-1,-1,13
"2006-08-07","As","left",1,16,71,7,"S2000",3,0,"+",1,2584,9149,"",-1,-1,-1,13
"2006-08-07","As","left",1,16,72,3,"S0100",3,0,"*",2,2927,-1,"",-1,-1,-1,13
"2006-08-07","As","left",1,16,73,5,"S0002",3,0,"*",1,-1,5388,"",-1,-1,-1,13
"2006-08-07","As","left",1,16,74,6,"S0020",2,0,"+",1,2393,4465,"",-1,-1,-1,13
"2006-08-07","As","left",1,16,75,3,"S0100",3,0,"*",1,3320,-1,"",-1,-1,-1,13
"2006-08-07","As","left",1,16,76,1,"S0001",3,0,"*",1,7807,-1,"",-1,-1,-1,13
"2006-08-07","As","left",1,16,77,7,"S2000",2,0,"+",1,4568,6249,"",-1,-1,-1,13
"2006-08-07","As","left",1,16,78,4,"S1000",3,0,"*",2,2947,9387,"",-1,-1,-1,13
"2006-08-07","As","left",1,16,79,2,"S0010",3,0,"*",1,3296,-1,"",-1,-1,-1,13
"2006-08-07","As","left",1,16,80,8,"S0200",3,0,"+",1,5101,16708,"",-1,-1,-1,13
"2006-08-08","As","left",1,17,1,1,"S0001",2,0,"",1,5514,-1,"F",-1,-1,-1,0
"2006-08-08","As","left",1,17,2,5,"S0002",2,0,"",2,-1,1248,"F",-1,-1,-1,0
"2006-08-08","As","left",1,17,3,2,"S0010",3,0,"",3,2109,-1,"F",-1,-1,-1,0
"2006-08-08","As","left",1,17,4,3,"S1000",2,0,"",2,1455,-1,"F",-1,-1,-1,0
"2006-08-08","As","left",1,17,5,6,"S0020",2,0,"",2,-1,1720,"F",-1,-1,-1,0
"2006-08-08","As","left",1,17,6,4,"S0100",2,0,"",1,2417,-1,"F",-1,-1,-1,0
"2006-08-08","As","left",1,17,7,7,"S2000",3,0,"",2,-1,2869,"F",-1,-1,-1,0
"2006-08-08","As","left",1,17,8,8,"S0200",3,1,"",2,-1,796,"F",-1,-1,-1,0
"2006-08-08","As","left",1,17,9,2,"S0010",3,0,"",3,1454,-1,"F",-1,-1,-1,0
"2006-08-08","As","left",1,17,10,7,"S2000",3,1,"",4,-1,959,"F",-1,-1,-1,0
"2006-08-08","As","left",1,17,11,3,"S1000",2,0,"",2,1965,-1,"F",-1,-1,-1,0
"2006-08-08","As","left",1,17,12,8,"S0200",2,0,"",3,-1,1268,"F",-1,-1,-1,0
"2006-08-08","As","left",1,17,13,5,"S0002",3,0,"",4,-1,1103,"F",-1,-1,-1,0
"2006-08-08","As","left",1,17,14,1,"S0001",3,0,"",6,1353,-1,"F",-1,-1,-1,0
"2006-08-08","As","left",1,17,15,4,"S0100",2,1,"",4,775,-1,"F",-1,-1,-1,0
"2006-08-08","As","left",1,17,16,6,"S0020",3,1,"",2,-1,980,"F",-1,-1,-1,0
"2006-08-08","As","left",1,17,17,3,"S1000",3,1,"",5,734,-1,"F",-1,-1,-1,0
"2006-08-08","As","left",1,17,18,2,"S0010",2,0,"",2,1288,-1,"F",-1,-1,-1,0
"2006-08-08","As","left",1,17,19,8,"S0200",2,0,"",2,-1,1350,"F",-1,-1,-1,0
"2006-08-08","As","left",1,17,20,6,"S0020",3,0,"",2,-1,1185,"F",-1,-1,-1,0
"2006-08-08","As","left",1,17,21,4,"S0100",2,1,"",5,1001,-1,"F",-1,-1,-1,0
"2006-08-08","As","left",1,17,22,7,"S2000",3,0,"",1,-1,3832,"F",-1,-1,-1,0
"2006-08-08","As","left",1,17,23,1,"S0001",2,0,"",2,1657,-1,"F",-1,-1,-1,0
"2006-08-08","As","left",1,17,24,5,"S0002",3,0,"",1,-1,3608,"F",-1,-1,-1,0
"2006-08-08","As","left",1,17,25,1,"S0001",3,0,"",7,1410,-1,"F",-1,-1,-1,0
"2006-08-08","As","left",1,17,26,8,"S0200",3,0,"",2,-1,1310,"F",-1,-1,-1,0
"2006-08-08","As","left",1,17,27,6,"S0020",2,0,"",1,-1,4917,"F",-1,-1,-1,0
"2006-08-08","As","left",1,17,28,2,"S0010",2,0,"",3,1411,-1,"F",-1,-1,-1,0
"2006-08-08","As","left",1,17,29,7,"S2000",2,0,"",2,-1,1288,"F",-1,-1,-1,0
"2006-08-08","As","left",1,17,30,5,"S0002",3,0,"",2,-1,2195,"F",-1,-1,-1,0
"2006-08-08","As","left",1,17,31,3,"S1000",2,1,"",3,1001,-1,"F",-1,-1,-1,0
"2006-08-08","As","left",1,17,32,4,"S0100",2,0,"",3,1555,-1,"F",-1,-1,-1,0
"2006-08-08","As","left",1,17,33,8,"S0200",3,1,"",2,-1,960,"F",-1,-1,-1,0
"2006-08-08","As","left",1,17,34,5,"S0002",3,0,"",1,-1,5788,"F",-1,-1,-1,0
"2006-08-08","As","left",1,17,35,4,"S0100",3,0,"",2,1268,-1,"F",-1,-1,-1,0
"2006-08-08","As","left",1,17,36,6,"S0020",2,0,"",1,-1,3136,"F",-1,-1,-1,0
"2006-08-08","As","left",1,17,37,2,"S0010",2,0,"",4,1104,-1,"F",-1,-1,-1,0
"2006-08-08","As","left",1,17,38,3,"S1000",2,0,"",1,3936,-1,"F",-1,-1,-1,0
"2006-08-08","As","left",1,17,39,7,"S2000",2,0,"",1,-1,2415,"F",-1,-1,-1,0
"2006-08-08","As","left",1,17,40,1,"S0001",3,1,"",3,777,-1,"F",-1,-1,-1,0
"2006-08-08","As","left",1,17,41,6,"S0020",3,0,"",1,-1,3733,"F",-1,-1,-1,0
"2006-08-08","As","left",1,17,42,8,"S0200",3,0,"",1,-1,3631,"F",-1,-1,-1,0
"2006-08-08","As","left",1,17,43,4,"S1000",2,0,"",2,1986,-1,"F",-1,-1,-1,0
"2006-08-08","As","left",1,17,44,7,"S2000",3,0,"",1,-1,8039,"F",-1,-1,-1,0
"2006-08-08","As","left",1,17,45,1,"S0001",2,0,"",3,1042,-1,"F",-1,-1,-1,0
"2006-08-08","As","left",1,17,46,5,"S0002",2,0,"",1,-1,3256,"F",-1,-1,-1,0
"2006-08-08","As","left",1,17,47,3,"S0100",2,0,"",2,1126,-1,"F",-1,-1,-1,0
"2006-08-08","As","left",1,17,48,2,"S0010",3,0,"",4,1248,-1,"F",-1,-1,-1,0
"2006-08-08","As","left",1,17,49,8,"S0200",2,0,"",2,-1,1268,"F",-1,-1,-1,0
"2006-08-08","As","left",1,17,50,1,"S0001",3,0,"",3,1246,-1,"F",-1,-1,-1,0
"2006-08-08","As","left",1,17,51,5,"S0002",2,0,"",2,-1,1882,"F",-1,-1,-1,0
"2006-08-08","As","left",1,17,52,2,"S0010",2,0,"",2,1430,-1,"F",-1,-1,-1,0
"2006-08-08","As","left",1,17,53,6,"S0020",2,0,"",1,-1,2456,"F",-1,-1,-1,0
"2006-08-08","As","left",1,17,54,3,"S0100",3,0,"",3,1267,-1,"F",-1,-1,-1,0
"2006-08-08","As","left",1,17,55,7,"S2000",3,0,"",2,-1,2520,"F",-1,-1,-1,0
"2006-08-08","As","left",1,17,56,4,"S1000",2,0,"",3,1021,-1,"F",-1,-1,-1,0
"2006-08-08","As","left",1,17,57,6,"S0020",3,0,"",2,-1,2640,"F",-1,-1,-1,0
"2006-08-08","As","left",1,17,58,8,"S0200",2,0,"",3,-1,1470,"F",-1,-1,-1,0
"2006-08-08","As","left",1,17,59,1,"S0001",2,0,"",1,2148,-1,"F",-1,-1,-1,0
"2006-08-08","As","left",1,17,60,5,"S0002",2,0,"",1,-1,3275,"F",-1,-1,-1,0
"2006-08-08","As","left",1,17,61,2,"S0010",3,0,"",4,1266,-1,"F",-1,-1,-1,0
"2006-08-08","As","left",1,17,62,7,"S2000",2,0,"",1,-1,3645,"F",-1,-1,-1,0
"2006-08-08","As","left",1,17,63,4,"S1000",3,1,"",5,959,-1,"F",-1,-1,-1,0
"2006-08-08","As","left",1,17,64,3,"S0100",2,0,"",2,1450,-1,"F",-1,-1,-1,0
"2006-08-08","As","left",1,17,65,7,"S2000",3,0,"",1,-1,13468,"F",-1,-1,-1,0
"2006-08-08","As","left",1,17,66,6,"S0020",2,0,"",1,-1,6188,"F",-1,-1,-1,0
"2006-08-08","As","left",1,17,67,1,"S0001",3,0,"",6,1286,-1,"F",-1,-1,-1,0
"2006-08-08","As","left",1,17,68,3,"S0100",2,0,"",1,2988,-1,"F",-1,-1,-1,0
"2006-08-08","As","left",1,17,69,5,"S0002",2,0,"",2,-1,1327,"F",-1,-1,-1,0
"2006-08-08","As","left",1,17,70,4,"S1000",2,0,"",1,4403,-1,"F",-1,-1,-1,0
"2006-08-08","As","left",1,17,71,8,"S0200",2,0,"",1,-1,6987,"F",-1,-1,-1,0
"2006-08-08","As","left",1,17,72,2,"S0010",2,0,"",4,1080,-1,"F",-1,-1,-1,0
"2006-08-08","As","left",1,17,73,4,"S1000",3,0,"",3,1593,-1,"F",-1,-1,-1,0
"2006-08-08","As","left",1,17,74,7,"S2000",3,0,"",1,-1,3664,"F",-1,-1,-1,0
"2006-08-08","As","left",1,17,75,6,"S0020",3,0,"",1,-1,3931,"F",-1,-1,-1,0
"2006-08-08","As","left",1,17,76,3,"S0100",3,0,"",5,1614,-1,"F",-1,-1,-1,0
"2006-08-08","As","left",1,17,77,1,"S0001",3,0,"",3,2167,-1,"F",-1,-1,-1,0
"2006-08-08","As","left",1,17,78,5,"S0002",2,0,"",2,-1,1307,"F",-1,-1,-1,0
"2006-08-08","As","left",1,17,79,2,"S0010",2,0,"",2,1840,-1,"F",-1,-1,-1,0
"2006-08-08","As","left",1,17,80,8,"S0200",2,0,"",1,-1,2045,"F",-1,-1,-1,0
"2006-08-09","As","left",1,18,1,4,"S0100",2,0,"",2,1965,-1,"F",-1,-1,-1,0
"2006-08-09","As","left",1,18,2,1,"S0001",2,1,"",3,982,-1,"F",-1,-1,-1,0
"2006-08-09","As","left",1,18,3,5,"S0002",3,0,"",2,-1,1227,"F",-1,-1,-1,0
"2006-08-09","As","left",1,18,4,7,"S2000",3,0,"",3,-1,1454,"F",-1,-1,-1,0
"2006-08-09","As","left",1,18,5,2,"S0010",3,0,"",1,3402,-1,"F",-1,-1,-1,0
"2006-08-09","As","left",1,18,6,8,"S0200",3,0,"",1,-1,4838,"F",-1,-1,-1,0
"2006-08-09","As","left",1,18,7,3,"S1000",3,1,"",7,776,-1,"F",-1,-1,-1,0
"2006-08-09","As","left",1,18,8,6,"S0020",2,0,"",2,-1,1515,"F",-1,-1,-1,0
"2006-08-09","As","left",1,18,9,3,"S1000",2,1,"",3,777,-1,"F",-1,-1,-1,0
"2006-08-09","As","left",1,18,10,4,"S0100",2,0,"",2,1534,-1,"F",-1,-1,-1,0
"2006-08-09","As","left",1,18,11,7,"S2000",3,0,"",2,-1,1616,"F",-1,-1,-1,0
"2006-08-09","As","left",1,18,12,2,"S0010",2,0,"",2,1247,-1,"F",-1,-1,-1,0
"2006-08-09","As","left",1,18,13,8,"S0200",3,0,"",2,-1,1247,"F",-1,-1,-1,0
"2006-08-09","As","left",1,18,14,1,"S0001",2,1,"",3,796,-1,"F",-1,-1,-1,0
"2006-08-09","As","left",1,18,15,5,"S0002",3,0,"",2,-1,2827,"F",-1,-1,-1,0
"2006-08-09","As","left",1,18,16,6,"S0020",3,0,"",2,-1,1021,"F",-1,-1,-1,0
"2006-08-09","As","left",1,18,17,3,"S1000",2,0,"",2,1022,-1,"F",-1,-1,-1,0
"2006-08-09","As","left",1,18,18,8,"S0200",2,0,"",2,-1,1227,"F",-1,-1,-1,0
"2006-08-09","As","left",1,18,19,5,"S0002",2,0,"",4,-1,1104,"F",-1,-1,-1,0
"2006-08-09","As","left",1,18,20,4,"S0100",3,0,"",3,1699,-1,"F",-1,-1,-1,0
"2006-08-09","As","left",1,18,21,2,"S0010",3,0,"",3,2088,-1,"F",-1,-1,-1,0
"2006-08-09","As","left",1,18,22,6,"S0020",2,0,"",2,-1,1021,"F",-1,-1,-1,0
"2006-08-09","As","left",1,18,23,7,"S2000",3,0,"",2,-1,1370,"F",-1,-1,-1,0
"2006-08-09","As","left",1,18,24,1,"S0001",3,0,"",4,1842,-1,"F",-1,-1,-1,0
"2006-08-09","As","left",1,18,25,5,"S0002",2,0,"",3,-1,1246,"F",-1,-1,-1,0
"2006-08-09","As","left",1,18,26,2,"S0010",2,0,"",3,1451,-1,"F",-1,-1,-1,0
"2006-08-09","As","left",1,18,27,1,"S0001",3,0,"",6,1411,-1,"F",-1,-1,-1,0
"2006-08-09","As","left",1,18,28,8,"S0200",3,0,"",2,-1,2478,"F",-1,-1,-1,0
"2006-08-09","As","left",1,18,29,4,"S0100",2,0,"",3,1329,-1,"F",-1,-1,-1,0
"2006-08-09","As","left",1,18,30,7,"S2000",3,0,"",3,-1,2314,"F",-1,-1,-1,0
"2006-08-09","As","left",1,18,31,3,"S1000",3,1,"",5,878,-1,"F",-1,-1,-1,0
"2006-08-09","As","left",1,18,32,6,"S0020",3,0,"",4,-1,1801,"F",-1,-1,-1,0
"2006-08-09","As","left",1,18,33,8,"S0200",2,0,"",1,-1,3113,"F",-1,-1,-1,0
"2006-08-09","As","left",1,18,34,3,"S1000",2,0,"",2,1064,-1,"F",-1,-1,-1,0
"2006-08-09","As","left",1,18,35,6,"S0020",3,0,"",1,-1,3794,"F",-1,-1,-1,0
"2006-08-09","As","left",1,18,36,4,"S0100",2,0,"",3,1657,-1,"F",-1,-1,-1,0
"2006-08-09","As","left",1,18,37,5,"S0002",2,0,"",1,-1,4898,"F",-1,-1,-1,0
"2006-08-09","As","left",1,18,38,1,"S0001",3,0,"",3,2151,-1,"F",-1,-1,-1,0
"2006-08-09","As","left",1,18,39,7,"S2000",2,0,"",1,-1,3954,"F",-1,-1,-1,0
"2006-08-09","As","left",1,18,40,2,"S0010",2,0,"",3,1288,-1,"F",-1,-1,-1,0
"2006-08-09","As","left",1,18,41,7,"S2000",2,0,"",2,-1,1821,"F",-1,-1,-1,0
"2006-08-09","As","left",1,18,42,1,"S0001",3,1,"",5,837,-1,"F",-1,-1,-1,0
"2006-08-09","As","left",1,18,43,8,"S0200",3,0,"",2,-1,2066,"F",-1,-1,-1,0
"2006-08-09","As","left",1,18,44,3,"S0100",3,0,"",1,3641,-1,"F",-1,-1,-1,0
"2006-08-09","As","left",1,18,45,5,"S0002",2,0,"",1,-1,4650,"F",-1,-1,-1,0
"2006-08-09","As","left",1,18,46,4,"S1000",2,0,"",4,1065,-1,"F",-1,-1,-1,0
"2006-08-09","As","left",1,18,47,6,"S0020",2,1,"",3,-1,838,"F",-1,-1,-1,0
"2006-08-09","As","left",1,18,48,2,"S0010",3,0,"",6,1368,-1,"F",-1,-1,-1,0
"2006-08-09","As","left",1,18,49,7,"S2000",2,0,"",1,-1,12341,"F",-1,-1,-1,0
"2006-08-09","As","left",1,18,50,2,"S0010",3,0,"",5,1020,-1,"F",-1,-1,-1,0
"2006-08-09","As","left",1,18,51,4,"S1000",2,0,"",1,2066,-1,"F",-1,-1,-1,0
"2006-08-09","As","left",1,18,52,8,"S0200",3,0,"",2,-1,2538,"F",-1,-1,-1,0
"2006-08-09","As","left",1,18,53,6,"S0020",2,0,"",1,-1,3666,"F",-1,-1,-1,0
"2006-08-09","As","left",1,18,54,3,"S0100",2,1,"",5,836,-1,"F",-1,-1,-1,0
"2006-08-09","As","left",1,18,55,1,"S0001",3,0,"",3,2045,-1,"F",-1,-1,-1,0
"2006-08-09","As","left",1,18,56,5,"S0002",2,0,"",1,-1,4301,"F",-1,-1,-1,0
"2006-08-09","As","left",1,18,57,2,"S0010",3,0,"",4,1574,-1,"F",-1,-1,-1,0
"2006-08-09","As","left",1,18,58,3,"S0100",2,0,"",4,1040,-1,"F",-1,-1,-1,0
"2006-08-09","As","left",1,18,59,6,"S0020",3,0,"",1,-1,4013,"F",-1,-1,-1,0
"2006-08-09","As","left",1,18,60,4,"S1000",2,0,"",1,2496,-1,"F",-1,-1,-1,0
"2006-08-09","As","left",1,18,61,7,"S2000",3,0,"",2,-1,2722,"F",-1,-1,-1,0
"2006-08-09","As","left",1,18,62,1,"S0001",2,0,"",5,1102,-1,"F",-1,-1,-1,0
"2006-08-09","As","left",1,18,63,8,"S0200",2,0,"",1,-1,3398,"F",-1,-1,-1,0
"2006-08-09","As","left",1,18,64,5,"S0002",2,0,"",1,-1,3973,"F",-1,-1,-1,0
"2006-08-09","As","left",1,18,65,2,"S0010",2,0,"",2,1738,-1,"F",-1,-1,-1,0
"2006-08-09","As","left",1,18,66,1,"S0001",3,0,"",3,1409,-1,"F",-1,-1,-1,0
"2006-08-09","As","left",1,18,67,5,"S0002",3,0,"",1,-1,5141,"F",-1,-1,-1,0
"2006-08-09","As","left",1,18,68,7,"S2000",3,0,"",2,-1,2086,"F",-1,-1,-1,0
"2006-08-09","As","left",1,18,69,3,"S0100",3,0,"",1,3706,-1,"F",-1,-1,-1,0
"2006-08-09","As","left",1,18,70,6,"S0020",2,0,"",1,-1,4121,"F",-1,-1,-1,0
"2006-08-09","As","left",1,18,71,4,"S1000",2,0,"",2,1496,-1,"F",-1,-1,-1,0
"2006-08-09","As","left",1,18,72,8,"S0200",2,0,"",2,-1,1778,"F",-1,-1,-1,0
"2006-08-09","As","left",1,18,73,7,"S2000",3,0,"",1,-1,8422,"F",-1,-1,-1,0
"2006-08-09","As","left",1,18,74,3,"S0100",2,0,"",3,1302,-1,"F",-1,-1,-1,0
"2006-08-09","As","left",1,18,75,1,"S0001",2,0,"",2,1266,-1,"F",-1,-1,-1,0
"2006-08-09","As","left",1,18,76,5,"S0002",3,0,"",2,-1,1902,"F",-1,-1,-1,0
"2006-08-09","As","left",1,18,77,6,"S0020",3,0,"",1,-1,6638,"F",-1,-1,-1,0
"2006-08-09","As","left",1,18,78,2,"S0010",2,0,"",2,1102,-1,"F",-1,-1,-1,0
"2006-08-09","As","left",1,18,79,8,"S0200",2,0,"",2,-1,1839,"F",-1,-1,-1,0
"2006-08-09","As","left",1,18,80,4,"S1000",2,0,"",2,1839,-1,"F",-1,-1,-1,0
"2006-08-10","As","left",1,19,1,8,"S0200",2,0,"",3,-1,1370,"F",-1,-1,-1,0
"2006-08-10","As","left",1,19,2,5,"S0002",3,1,"",3,-1,1002,"F",-1,-1,-1,0
"2006-08-10","As","left",1,19,3,4,"S0100",2,0,"",4,1638,-1,"F",-1,-1,-1,0
"2006-08-10","As","left",1,19,4,6,"S0020",3,0,"",3,-1,2089,"F",-1,-1,-1,0
"2006-08-10","As","left",1,19,5,3,"S1000",3,0,"",4,1884,-1,"F",-1,-1,-1,0
"2006-08-10","As","left",1,19,6,1,"S0001",2,0,"",3,1021,-1,"F",-1,-1,-1,0
"2006-08-10","As","left",1,19,7,7,"S2000",2,0,"",3,-1,1412,"F",-1,-1,-1,0
"2006-08-10","As","left",1,19,8,2,"S0010",3,0,"",5,1452,-1,"F",-1,-1,-1,0
"2006-08-10","As","left",1,19,9,5,"S0002",2,0,"",1,-1,2786,"F",-1,-1,-1,0
"2006-08-10","As","left",1,19,10,8,"S0200",3,0,"",6,-1,1452,"F",-1,-1,-1,0
"2006-08-10","As","left",1,19,11,3,"S1000",3,0,"",5,1063,-1,"F",-1,-1,-1,0
"2006-08-10","As","left",1,19,12,2,"S0010",3,0,"",4,1452,-1,"F",-1,-1,-1,0
"2006-08-10","As","left",1,19,13,6,"S0020",2,0,"",2,-1,1145,"F",-1,-1,-1,0
"2006-08-10","As","left",1,19,14,4,"S0100",3,1,"",5,857,-1,"F",-1,-1,-1,0
"2006-08-10","As","left",1,19,15,1,"S0001",2,1,"",3,1001,-1,"F",-1,-1,-1,0
"2006-08-10","As","left",1,19,16,7,"S2000",3,0,"",3,-1,1268,"F",-1,-1,-1,0
"2006-08-10","As","left",1,19,17,2,"S0010",3,0,"",2,2642,-1,"F",-1,-1,-1,0
"2006-08-10","As","left",1,19,18,3,"S1000",3,0,"",5,1269,-1,"F",-1,-1,-1,0
"2006-08-10","As","left",1,19,19,7,"S2000",2,0,"",2,-1,1844,"F",-1,-1,-1,0
"2006-08-10","As","left",1,19,20,1,"S0001",2,0,"",1,2231,-1,"F",-1,-1,-1,0
"2006-08-10","As","left",1,19,21,8,"S0200",3,0,"",3,-1,1453,"F",-1,-1,-1,0
"2006-08-10","As","left",1,19,22,6,"S0020",2,0,"",1,-1,2620,"F",-1,-1,-1,0
"2006-08-10","As","left",1,19,23,4,"S0100",2,0,"",3,1165,-1,"F",-1,-1,-1,0
"2006-08-10","As","left",1,19,24,5,"S0002",3,0,"",4,-1,1472,"F",-1,-1,-1,0
"2006-08-10","As","left",1,19,25,4,"S0100",2,0,"",3,1062,-1,"F",-1,-1,-1,0
"2006-08-10","As","left",1,19,26,5,"S0002",3,0,"",2,-1,2983,"F",-1,-1,-1,0
"2006-08-10","As","left",1,19,27,2,"S0010",2,0,"",1,3256,-1,"F",-1,-1,-1,0
"2006-08-10","As","left",1,19,28,1,"S0001",3,0,"",3,1228,-1,"F",-1,-1,-1,0
"2006-08-10","As","left",1,19,29,7,"S2000",3,0,"",4,-1,1615,"F",-1,-1,-1,0
"2006-08-10","As","left",1,19,30,3,"S1000",2,0,"",2,1104,-1,"F",-1,-1,-1,0
"2006-08-10","As","left",1,19,31,6,"S0020",2,0,"",2,-1,1534,"F",-1,-1,-1,0
"2006-08-10","As","left",1,19,32,8,"S0200",2,0,"",2,-1,1349,"F",-1,-1,-1,0
"2006-08-10","As","left",1,19,33,3,"S1000",3,0,"",4,1167,-1,"F",-1,-1,-1,0
"2006-08-10","As","left",1,19,34,6,"S0020",2,0,"",1,-1,2252,"F",-1,-1,-1,0
"2006-08-10","As","left",1,19,35,8,"S0200",2,0,"",1,-1,2066,"F",-1,-1,-1,0
"2006-08-10","As","left",1,19,36,2,"S0010",2,0,"",2,1842,-1,"F",-1,-1,-1,0
"2006-08-10","As","left",1,19,37,7,"S2000",2,0,"",2,-1,1472,"F",-1,-1,-1,0
"2006-08-10","As","left",1,19,38,1,"S0001",3,0,"",1,3015,-1,"F",-1,-1,-1,0
"2006-08-10","As","left",1,19,39,5,"S0002",3,0,"",2,-1,2478,"F",-1,-1,-1,0
"2006-08-10","As","left",1,19,40,4,"S0100",2,0,"",3,1371,-1,"F",-1,-1,-1,0
"2006-08-10","As","left",1,19,41,3,"S0100",3,0,"",5,1309,-1,"F",-1,-1,-1,0
"2006-08-10","As","left",1,19,42,4,"S1000",3,0,"",5,1135,-1,"F",-1,-1,-1,0
"2006-08-10","As","left",1,19,43,5,"S0002",2,0,"",2,-1,1821,"F",-1,-1,-1,0
"2006-08-10","As","left",1,19,44,8,"S0200",3,0,"",5,-1,1554,"F",-1,-1,-1,0
"2006-08-10","As","left",1,19,45,2,"S0010",3,0,"",1,3501,-1,"F",-1,-1,-1,0
"2006-08-10","As","left",1,19,46,6,"S0020",3,0,"",1,-1,4343,"F",-1,-1,-1,0
"2006-08-10","As","left",1,19,47,1,"S0001",3,0,"",3,2087,-1,"F",-1,-1,-1,0
"2006-08-10","As","left",1,19,48,7,"S2000",3,0,"",4,-1,1226,"F",-1,-1,-1,0
"2006-08-10","As","left",1,19,49,8,"S0200",2,0,"",1,-1,2354,"F",-1,-1,-1,0
"2006-08-10","As","left",1,19,50,3,"S0100",3,0,"",1,4901,-1,"F",-1,-1,-1,0
"2006-08-10","As","left",1,19,51,1,"S0001",2,0,"",2,1041,-1,"F",-1,-1,-1,0
"2006-08-10","As","left",1,19,52,7,"S2000",2,0,"",3,-1,1433,"F",-1,-1,-1,0
"2006-08-10","As","left",1,19,53,6,"S0020",3,0,"",3,-1,1821,"F",-1,-1,-1,0
"2006-08-10","As","left",1,19,54,4,"S1000",3,0,"",3,1371,-1,"F",-1,-1,-1,0
"2006-08-10","As","left",1,19,55,2,"S0010",2,0,"",3,1224,-1,"F",-1,-1,-1,0
"2006-08-10","As","left",1,19,56,5,"S0002",3,0,"",1,-1,5266,"F",-1,-1,-1,0
"2006-08-10","As","left",1,19,57,2,"S0010",2,0,"",2,1533,-1,"F",-1,-1,-1,0
"2006-08-10","As","left",1,19,58,7,"S2000",3,0,"",2,-1,1697,"F",-1,-1,-1,0
"2006-08-10","As","left",1,19,59,3,"S0100",2,0,"",1,2815,-1,"F",-1,-1,-1,0
"2006-08-10","As","left",1,19,60,4,"S1000",3,0,"",2,1388,-1,"F",-1,-1,-1,0
"2006-08-10","As","left",1,19,61,8,"S0200",2,0,"",1,-1,2393,"F",-1,-1,-1,0
"2006-08-10","As","left",1,19,62,6,"S0020",3,0,"",1,-1,11343,"F",-1,-1,-1,0
"2006-08-10","As","left",1,19,63,1,"S0001",3,0,"",2,2496,-1,"F",-1,-1,-1,0
"2006-08-10","As","left",1,19,64,5,"S0002",2,0,"",2,-1,1901,"F",-1,-1,-1,0
"2006-08-10","As","left",1,19,65,5,"S0002",3,0,"",1,-1,4691,"F",-1,-1,-1,0
"2006-08-10","As","left",1,19,66,3,"S0100",3,0,"",2,1307,-1,"F",-1,-1,-1,0
"2006-08-10","As","left",1,19,67,8,"S0200",2,0,"",1,-1,4259,"F",-1,-1,-1,0
"2006-08-10","As","left",1,19,68,4,"S1000",2,0,"",2,1533,-1,"F",-1,-1,-1,0
"2006-08-10","As","left",1,19,69,6,"S0020",3,0,"",2,-1,1950,"F",-1,-1,-1,0
"2006-08-10","As","left",1,19,70,7,"S2000",2,0,"",2,-1,1271,"F",-1,-1,-1,0
"2006-08-10","As","left",1,19,71,2,"S0010",3,0,"",4,1122,-1,"F",-1,-1,-1,0
"2006-08-10","As","left",1,19,72,1,"S0001",2,0,"",1,2455,-1,"F",-1,-1,-1,0
"2006-08-10","As","left",1,19,73,7,"S2000",3,0,"",1,-1,7504,"F",-1,-1,-1,0
"2006-08-10","As","left",1,19,74,4,"S1000",2,0,"",2,1840,-1,"F",-1,-1,-1,0
"2006-08-10","As","left",1,19,75,8,"S0200",2,0,"",1,-1,2167,"F",-1,-1,-1,0
"2006-08-10","As","left",1,19,76,5,"S0002",3,0,"",1,-1,4342,"F",-1,-1,-1,0
"2006-08-10","As","left",1,19,77,1,"S0001",3,0,"",2,1552,-1,"F",-1,-1,-1,0
"2006-08-10","As","left",1,19,78,3,"S0100",2,0,"",1,2392,-1,"F",-1,-1,-1,0
"2006-08-10","As","left",1,19,79,6,"S0020",2,0,"",1,-1,2208,"F",-1,-1,-1,0
"2006-08-10","As","left",1,19,80,2,"S0010",3,0,"",3,1593,-1,"F",-1,-1,-1,0
"2006-08-11","As","left",1,20,1,7,"S2000",3,0,"",3,-1,1126,"F",-1,-1,-1,0
"2006-08-11","As","left",1,20,2,1,"S0001",2,0,"",3,1596,-1,"F",-1,-1,-1,0
"2006-08-11","As","left",1,20,3,5,"S0002",2,0,"",1,-1,4345,"F",-1,-1,-1,0
"2006-08-11","As","left",1,20,4,2,"S0010",3,0,"",4,1242,-1,"F",-1,-1,-1,0
"2006-08-11","As","left",1,20,5,6,"S0020",3,0,"",7,-1,1105,"F",-1,-1,-1,0
"2006-08-11","As","left",1,20,6,3,"S1000",2,0,"",1,3383,-1,"F",-1,-1,-1,0
"2006-08-11","As","left",1,20,7,4,"S0100",2,1,"",4,899,-1,"F",-1,-1,-1,0
"2006-08-11","As","left",1,20,8,8,"S0200",3,0,"",2,-1,2397,"F",-1,-1,-1,0
"2006-08-11","As","left",1,20,9,6,"S0020",2,0,"",2,-1,1841,"F",-1,-1,-1,0
"2006-08-11","As","left",1,20,10,4,"S0100",3,0,"",4,1228,-1,"F",-1,-1,-1,0
"2006-08-11","As","left",1,20,11,1,"S0001",2,0,"",3,1291,-1,"F",-1,-1,-1,0
"2006-08-11","As","left",1,20,12,5,"S0002",3,0,"",2,-1,2850,"F",-1,-1,-1,0
"2006-08-11","As","left",1,20,13,7,"S2000",3,1,"",4,-1,898,"F",-1,-1,-1,0
"2006-08-11","As","left",1,20,14,3,"S1000",3,0,"",5,1412,-1,"F",-1,-1,-1,0
"2006-08-11","As","left",1,20,15,8,"S0200",3,0,"",1,-1,3197,"F",-1,-1,-1,0
"2006-08-11","As","left",1,20,16,2,"S0010",3,0,"",4,1801,-1,"F",-1,-1,-1,0
"2006-08-11","As","left",1,20,17,5,"S0002",3,0,"",2,-1,1575,"F",-1,-1,-1,0
"2006-08-11","As","left",1,20,18,8,"S0200",3,0,"",3,-1,1063,"F",-1,-1,-1,0
"2006-08-11","As","left",1,20,19,1,"S0001",2,0,"",1,4266,-1,"F",-1,-1,-1,0
"2006-08-11","As","left",1,20,20,6,"S0020",2,0,"",2,-1,1698,"F",-1,-1,-1,0
"2006-08-11","As","left",1,20,21,4,"S0100",2,0,"",3,1042,-1,"F",-1,-1,-1,0
"2006-08-11","As","left",1,20,22,3,"S1000",2,0,"",1,4508,-1,"F",-1,-1,-1,0
"2006-08-11","As","left",1,20,23,7,"S2000",3,0,"",2,-1,2968,"F",-1,-1,-1,0
"2006-08-11","As","left",1,20,24,2,"S0010",2,0,"",2,1884,-1,"F",-1,-1,-1,0
"2006-08-11","As","left",1,20,25,6,"S0020",3,0,"",2,-1,2908,"F",-1,-1,-1,0
"2006-08-11","As","left",1,20,26,2,"S0010",2,0,"",1,3710,-1,"F",-1,-1,-1,0
"2006-08-11","As","left",1,20,27,3,"S1000",3,0,"",2,1063,-1,"F",-1,-1,-1,0
"2006-08-11","As","left",1,20,28,5,"S0002",2,0,"",3,-1,1351,"F",-1,-1,-1,0
"2006-08-11","As","left",1,20,29,8,"S0200",3,1,"",3,-1,1000,"F",-1,-1,-1,0
"2006-08-11","As","left",1,20,30,4,"S0100",3,0,"",3,2619,-1,"F",-1,-1,-1,0
"2006-08-11","As","left",1,20,31,7,"S2000",3,0,"",2,-1,1063,"F",-1,-1,-1,0
"2006-08-11","As","left",1,20,32,1,"S0001",3,0,"",2,2708,-1,"F",-1,-1,-1,0
"2006-08-11","As","left",1,20,33,4,"S0100",2,0,"",1,2210,-1,"F",-1,-1,-1,0
"2006-08-11","As","left",1,20,34,6,"S0020",2,0,"",1,-1,8554,"F",-1,-1,-1,0
"2006-08-11","As","left",1,20,35,2,"S0010",3,0,"",5,1882,-1,"F",-1,-1,-1,0
"2006-08-11","As","left",1,20,36,1,"S0001",2,0,"",2,1370,-1,"F",-1,-1,-1,0
"2006-08-11","As","left",1,20,37,7,"S2000",2,0,"",2,-1,1186,"F",-1,-1,-1,0
"2006-08-11","As","left",1,20,38,5,"S0002",2,0,"",1,-1,3401,"F",-1,-1,-1,0
"2006-08-11","As","left",1,20,39,3,"S1000",2,1,"",4,796,-1,"F",-1,-1,-1,0
"2006-08-11","As","left",1,20,40,8,"S0200",2,0,"",1,-1,2170,"F",-1,-1,-1,0
"2006-08-11","As","left",1,20,41,7,"S2000",3,0,"",4,-1,1063,"F",-1,-1,-1,0
"2006-08-11","As","left",1,20,42,3,"S0100",3,1,"",3,817,-1,"F",-1,-1,-1,0
"2006-08-11","As","left",1,20,43,1,"S0001",2,1,"",3,979,-1,"F",-1,-1,-1,0
"2006-08-11","As","left",1,20,44,5,"S0002",3,0,"",2,-1,1741,"F",-1,-1,-1,0
"2006-08-11","As","left",1,20,45,4,"S1000",3,0,"",2,2193,-1,"F",-1,-1,-1,0
"2006-08-11","As","left",1,20,46,6,"S0020",3,0,"",1,-1,7563,"F",-1,-1,-1,0
"2006-08-11","As","left",1,20,47,8,"S0200",2,0,"",3,-1,1144,"F",-1,-1,-1,0
"2006-08-11","As","left",1,20,48,2,"S0010",2,0,"",2,1451,-1,"F",-1,-1,-1,0
"2006-08-11","As","left",1,20,49,6,"S0020",2,0,"",1,-1,2558,"F",-1,-1,-1,0
"2006-08-11","As","left",1,20,50,2,"S0010",2,0,"",1,2722,-1,"F",-1,-1,-1,0
"2006-08-11","As","left",1,20,51,1,"S0001",2,0,"",3,1560,-1,"F",-1,-1,-1,0
"2006-08-11","As","left",1,20,52,7,"S2000",2,0,"",2,-1,1164,"F",-1,-1,-1,0
"2006-08-11","As","left",1,20,53,5,"S0002",2,0,"",2,-1,1454,"F",-1,-1,-1,0
"2006-08-11","As","left",1,20,54,3,"S0100",3,0,"",2,2104,-1,"F",-1,-1,-1,0
"2006-08-11","As","left",1,20,55,8,"S0200",2,0,"",1,-1,2271,"F",-1,-1,-1,0
"2006-08-11","As","left",1,20,56,4,"S1000",2,0,"",1,2151,-1,"F",-1,-1,-1,0
"2006-08-11","As","left",1,20,57,2,"S0010",3,0,"",2,1271,-1,"F",-1,-1,-1,0
"2006-08-11","As","left",1,20,58,5,"S0002",3,0,"",2,-1,1621,"F",-1,-1,-1,0
"2006-08-11","As","left",1,20,59,7,"S2000",2,0,"",1,-1,3542,"F",-1,-1,-1,0
"2006-08-11","As","left",1,20,60,3,"S0100",2,0,"",3,1574,-1,"F",-1,-1,-1,0
"2006-08-11","As","left",1,20,61,1,"S0001",3,0,"",3,1290,-1,"F",-1,-1,-1,0
"2006-08-11","As","left",1,20,62,6,"S0020",2,0,"",2,-1,1496,"F",-1,-1,-1,0
"2006-08-11","As","left",1,20,63,4,"S1000",3,0,"",1,4588,-1,"F",-1,-1,-1,0
"2006-08-11","As","left",1,20,64,8,"S0200",2,0,"",3,-1,1470,"F",-1,-1,-1,0
"2006-08-11","As","left",1,20,65,2,"S0010",2,0,"",1,2926,-1,"F",-1,-1,-1,0
"2006-08-11","As","left",1,20,66,4,"S1000",2,0,"",2,1183,-1,"F",-1,-1,-1,0
"2006-08-11","As","left",1,20,67,6,"S0020",2,0,"",1,-1,4568,"F",-1,-1,-1,0
"2006-08-11","As","left",1,20,68,3,"S0100",3,0,"",4,1186,-1,"F",-1,-1,-1,0
"2006-08-11","As","left",1,20,69,5,"S0002",3,0,"",1,-1,3603,"F",-1,-1,-1,0
"2006-08-11","As","left",1,20,70,8,"S0200",3,0,"",1,-1,4448,"F",-1,-1,-1,0
"2006-08-11","As","left",1,20,71,1,"S0001",2,0,"",1,4670,-1,"F",-1,-1,-1,0
"2006-08-11","As","left",1,20,72,7,"S2000",3,0,"",3,-1,1306,"F",-1,-1,-1,0
"2006-08-11","As","left",1,20,73,6,"S0020",2,0,"",1,-1,2618,"F",-1,-1,-1,0
"2006-08-11","As","left",1,20,74,4,"S1000",3,0,"",3,2659,-1,"F",-1,-1,-1,0
"2006-08-11","As","left",1,20,75,8,"S0200",2,0,"",1,-1,2372,"F",-1,-1,-1,0
"2006-08-11","As","left",1,20,76,2,"S0010",2,0,"",2,1534,-1,"F",-1,-1,-1,0
"2006-08-11","As","left",1,20,77,5,"S0002",2,0,"",2,-1,1839,"F",-1,-1,-1,0
"2006-08-11","As","left",1,20,78,1,"S0001",2,0,"",1,2885,-1,"F",-1,-1,-1,0
"2006-08-11","As","left",1,20,79,7,"S2000",3,0,"",1,-1,3952,"F",-1,-1,-1,0
"2006-08-11","As","left",1,20,80,3,"S0100",3,0,"",2,1285,-1,"F",-1,-1,-1,0
"2006-08-14","As","left",1,21,1,1,"S0001",3,0,"",3,1948,-1,"F",-1,-1,-1,0
"2006-08-14","As","left",1,21,2,4,"S0100",2,0,"",2,1413,-1,"F",-1,-1,-1,0
"2006-08-14","As","left",1,21,3,5,"S0002",3,0,"",2,-1,1395,"F",-1,-1,-1,0
"2006-08-14","As","left",1,21,4,3,"S1000",3,1,"",5,1005,-1,"F",-1,-1,-1,0
"2006-08-14","As","left",1,21,5,8,"S0200",3,0,"",2,-1,1166,"F",-1,-1,-1,0
"2006-08-14","As","left",1,21,6,2,"S0010",2,0,"",2,1781,-1,"F",-1,-1,-1,0
"2006-08-14","As","left",1,21,7,6,"S0020",3,0,"",2,-1,2622,"F",-1,-1,-1,0
"2006-08-14","As","left",1,21,8,7,"S2000",3,1,"",3,-1,776,"F",-1,-1,-1,0
"2006-08-14","As","left",1,21,9,2,"S0010",2,0,"",1,5781,-1,"F",-1,-1,-1,0
"2006-08-14","As","left",1,21,10,7,"S2000",3,0,"",2,-1,2623,"F",-1,-1,-1,0
"2006-08-14","As","left",1,21,11,4,"S0100",3,0,"",1,3814,-1,"F",-1,-1,-1,0
"2006-08-14","As","left",1,21,12,6,"S0020",2,0,"",1,-1,2503,"F",-1,-1,-1,0
"2006-08-14","As","left",1,21,13,1,"S0001",2,0,"",1,2276,-1,"F",-1,-1,-1,0
"2006-08-14","As","left",1,21,14,8,"S0200",3,0,"",1,-1,3443,"F",-1,-1,-1,0
"2006-08-14","As","left",1,21,15,5,"S0002",2,0,"",1,-1,3530,"F",-1,-1,-1,0
"2006-08-14","As","left",1,21,16,3,"S1000",2,0,"",3,1186,-1,"F",-1,-1,-1,0
"2006-08-14","As","left",1,21,17,3,"S1000",2,0,"",1,2588,-1,"F",-1,-1,-1,0
"2006-08-14","As","left",1,21,18,8,"S0200",2,0,"",1,-1,2211,"F",-1,-1,-1,0
"2006-08-14","As","left",1,21,19,4,"S0100",2,0,"",2,1206,-1,"F",-1,-1,-1,0
"2006-08-14","As","left",1,21,20,7,"S2000",2,0,"",1,-1,3462,"F",-1,-1,-1,0
"2006-08-14","As","left",1,21,21,2,"S0010",2,1,"",2,837,-1,"F",-1,-1,-1,0
"2006-08-14","As","left",1,21,22,6,"S0020",3,0,"",1,-1,7116,"F",-1,-1,-1,0
"2006-08-14","As","left",1,21,23,1,"S0001",2,0,"",1,2272,-1,"F",-1,-1,-1,0
"2006-08-14","As","left",1,21,24,5,"S0002",2,0,"",1,-1,5677,"F",-1,-1,-1,0
"2006-08-14","As","left",1,21,25,5,"S0002",3,0,"",1,-1,4305,"F",-1,-1,-1,0
"2006-08-14","As","left",1,21,26,2,"S0010",3,0,"",2,1923,-1,"F",-1,-1,-1,0
"2006-08-14","As","left",1,21,27,7,"S2000",3,0,"",1,-1,4222,"F",-1,-1,-1,0
"2006-08-14","As","left",1,21,28,4,"S0100",2,0,"",3,1288,-1,"F",-1,-1,-1,0
"2006-08-14","As","left",1,21,29,3,"S1000",3,0,"",2,1883,-1,"F",-1,-1,-1,0
"2006-08-14","As","left",1,21,30,8,"S0200",3,0,"",1,-1,3077,"F",-1,-1,-1,0
"2006-08-14","As","left",1,21,31,1,"S0001",2,0,"",3,1124,-1,"F",-1,-1,-1,0
"2006-08-14","As","left",1,21,32,6,"S0020",2,0,"",1,-1,3942,"F",-1,-1,-1,0
"2006-08-14","As","left",1,21,33,3,"S1000",3,1,"",2,774,-1,"F",-1,-1,-1,0
"2006-08-14","As","left",1,21,34,6,"S0020",2,0,"",1,-1,5056,"F",-1,-1,-1,0
"2006-08-14","As","left",1,21,35,4,"S0100",2,0,"",2,1882,-1,"F",-1,-1,-1,0
"2006-08-14","As","left",1,21,36,2,"S0010",3,0,"",2,1451,-1,"F",-1,-1,-1,0
"2006-08-14","As","left",1,21,37,5,"S0002",3,0,"",2,-1,1349,"F",-1,-1,-1,0
"2006-08-14","As","left",1,21,38,1,"S0001",3,0,"",2,2559,-1,"F",-1,-1,-1,0
"2006-08-14","As","left",1,21,39,7,"S2000",2,0,"",1,-1,2662,"F",-1,-1,-1,0
"2006-08-14","As","left",1,21,40,8,"S0200",3,0,"",1,-1,4841,"F",-1,-1,-1,0
"2006-08-14","As","left",1,21,41,3,"S0100",3,0,"",1,4225,-1,"F",-1,-1,-1,0
"2006-08-14","As","left",1,21,42,6,"S0020",3,0,"",1,-1,3097,"F",-1,-1,-1,0
"2006-08-14","As","left",1,21,43,5,"S0002",3,0,"",2,-1,2826,"F",-1,-1,-1,0
"2006-08-14","As","left",1,21,44,1,"S0001",3,0,"",2,1677,-1,"F",-1,-1,-1,0
"2006-08-14","As","left",1,21,45,8,"S0200",2,0,"",1,-1,2846,"F",-1,-1,-1,0
"2006-08-14","As","left",1,21,46,2,"S0010",3,0,"",2,2333,-1,"F",-1,-1,-1,0
"2006-08-14","As","left",1,21,47,7,"S2000",3,0,"",2,-1,2128,"F",-1,-1,-1,0
"2006-08-14","As","left",1,21,48,4,"S1000",3,0,"",3,1105,-1,"F",-1,-1,-1,0
"2006-08-14","As","left",1,21,49,5,"S0002",2,0,"",1,-1,8057,"F",-1,-1,-1,0
"2006-08-14","As","left",1,21,50,2,"S0010",3,0,"",4,1391,-1,"F",-1,-1,-1,0
"2006-08-14","As","left",1,21,51,7,"S2000",3,0,"",1,-1,4655,"F",-1,-1,-1,0
"2006-08-14","As","left",1,21,52,1,"S0001",2,0,"",2,1077,-1,"F",-1,-1,-1,0
"2006-08-14","As","left",1,21,53,3,"S0100",2,0,"",1,2314,-1,"F",-1,-1,-1,0
"2006-08-14","As","left",1,21,54,8,"S0200",3,0,"",2,-1,2210,"F",-1,-1,-1,0
"2006-08-14","As","left",1,21,55,4,"S1000",3,0,"",2,2500,-1,"F",-1,-1,-1,0
"2006-08-14","As","left",1,21,56,6,"S0020",3,0,"",2,-1,1984,"F",-1,-1,-1,0
"2006-08-14","As","left",1,21,57,2,"S0010",2,0,"",2,1102,-1,"F",-1,-1,-1,0
"2006-08-14","As","left",1,21,58,6,"S0020",2,0,"",1,-1,2171,"F",-1,-1,-1,0
"2006-08-14","As","left",1,21,59,4,"S1000",3,0,"",2,1474,-1,"F",-1,-1,-1,0
"2006-08-14","As","left",1,21,60,5,"S0002",2,0,"",1,-1,10639,"F",-1,-1,-1,0
"2006-08-14","As","left",1,21,61,3,"S0100",3,0,"",2,1841,-1,"F",-1,-1,-1,0
"2006-08-14","As","left",1,21,62,8,"S0200",2,0,"",1,-1,8740,"F",-1,-1,-1,0
"2006-08-14","As","left",1,21,63,7,"S2000",3,0,"",1,-1,9994,"F",-1,-1,-1,0
"2006-08-14","As","left",1,21,64,1,"S0001",2,0,"",1,3481,-1,"F",-1,-1,-1,0
"2006-08-14","As","left",1,21,65,6,"S0020",3,0,"",1,-1,5203,"F",-1,-1,-1,0
"2006-08-14","As","left",1,21,66,3,"S0100",2,0,"",1,2235,-1,"F",-1,-1,-1,0
"2006-08-14","As","left",1,21,67,5,"S0002",2,0,"",1,-1,6693,"F",-1,-1,-1,0
"2006-08-14","As","left",1,21,68,1,"S0001",3,0,"",1,3816,-1,"F",-1,-1,-1,0
"2006-08-14","As","left",1,21,69,7,"S2000",3,0,"",1,-1,6132,"F",-1,-1,-1,0
"2006-08-14","As","left",1,21,70,8,"S0200",3,0,"",1,-1,4921,"F",-1,-1,-1,0
"2006-08-14","As","left",1,21,71,4,"S1000",3,0,"",4,1266,-1,"F",-1,-1,-1,0
"2006-08-14","As","left",1,21,72,2,"S0010",3,0,"",3,1103,-1,"F",-1,-1,-1,0
"2006-08-14","As","left",1,21,73,8,"S0200",2,0,"",1,-1,3460,"F",-1,-1,-1,0
"2006-08-14","As","left",1,21,74,4,"S1000",2,0,"",2,1963,-1,"F",-1,-1,-1,0
"2006-08-14","As","left",1,21,75,5,"S0002",2,0,"",1,-1,2845,"F",-1,-1,-1,0
"2006-08-14","As","left",1,21,76,3,"S0100",3,0,"",2,1824,-1,"F",-1,-1,-1,0
"2006-08-14","As","left",1,21,77,7,"S2000",2,0,"",1,-1,3296,"F",-1,-1,-1,0
"2006-08-14","As","left",1,21,78,1,"S0001",2,0,"",2,1655,-1,"F",-1,-1,-1,0
"2006-08-14","As","left",1,21,79,6,"S0020",3,0,"",2,-1,2086,"F",-1,-1,-1,0
"2006-08-14","As","left",1,21,80,2,"S0010",3,0,"",3,2086,-1,"F",-1,-1,-1,0
"2006-08-15","As","left",1,22,1,2,"S0010",3,0,"*",3,1206,-1,"",-1,-1,-1,1
"2006-08-15","As","left",1,22,2,7,"S2000",2,0,"*",1,-1,2191,"",-1,-1,-1,1
"2006-08-15","As","left",1,22,3,8,"S0200",2,0,"+",1,4037,19974,"",-1,-1,-1,1
"2006-08-15","As","left",1,22,4,1,"S0001",2,0,"+",1,58116,7407,"",-1,-1,-1,1
"2006-08-15","As","left",1,22,5,6,"S0020",3,0,"*",1,-1,5578,"",-1,-1,-1,1
"2006-08-15","As","left",1,22,6,5,"S0002",2,0,"+",1,1002,16572,"",-1,-1,-1,1
"2006-08-15","As","left",1,22,7,3,"S1000",3,0,"*",3,1514,8735,"",-1,-1,-1,1
"2006-08-15","As","left",1,22,8,4,"S0100",2,0,"*",1,2047,-1,"",-1,-1,-1,1
"2006-08-15","As","left",1,22,9,6,"S0020",3,0,"+",1,2519,19653,"",-1,-1,-1,1
"2006-08-15","As","left",1,22,10,8,"S0200",3,0,"*",1,-1,3998,"",-1,-1,-1,1
"2006-08-15","As","left",1,22,11,2,"S0010",2,0,"*",1,3216,-1,"",-1,-1,-1,1
"2006-08-15","As","left",1,22,12,1,"S0001",3,0,"*",4,1390,-1,"",-1,-1,-1,1
"2006-08-15","As","left",1,22,13,7,"S2000",3,0,"*",1,-1,3154,"",-1,-1,-1,1
"2006-08-15","As","left",1,22,14,3,"S1000",3,0,"*",2,2806,-1,"",-1,-1,-1,1
"2006-08-15","As","left",1,22,15,5,"S0002",3,0,"+",1,10928,19202,"",-1,-1,-1,1
"2006-08-15","As","left",1,22,16,4,"S0100",3,0,"*",2,2769,-1,"",-1,-1,-1,1
"2006-08-15","As","left",1,22,17,3,"S1000",2,0,"*",3,1637,-1,"",-1,-1,-1,1
"2006-08-15","As","left",1,22,18,7,"S2000",3,0,"*",1,-1,4125,"",-1,-1,-1,1
