subj,block,trial,stim,resp,rt2,1,1,10,B,100742,1,2,4,A,40112,1,3,6,B,34152,1,4,2,B,56562,1,5,9,B,23732,1,6,1,A,18562,1,7,5,A,38952,1,8,3,A,20582,1,9,7,A,14502,1,10,8,B,20902,2,1,6,B,319582,2,2,1,A,17312,2,3,3,A,33282,2,4,4,A,21452,2,5,7,B,282842,2,6,10,B,31682,2,7,9,B,55242,2,8,2,A,46852,2,9,5,A,30162,2,10,8,B,155972,3,1,7,B,70042,3,2,1,A,40932,3,3,8,B,107612,3,4,2,A,31662,3,5,4,A,46432,3,6,9,B,52092,3,7,6,B,52882,3,8,10,B,41782,3,9,5,A,36132,3,10,3,A,34482,4,1,1,A,32082,4,2,7,B,37322,4,3,6,B,59742,4,4,9,B,40102,4,5,8,B,40132,4,6,4,A,52082,4,7,10,B,36842,4,8,2,A,26482,4,9,3,A,25662,4,10,5,A,23702,5,1,10,B,41692,5,2,1,A,33272,5,3,6,B,38742,5,4,4,A,31082,5,5,9,B,49652,5,6,3,A,48122,5,7,5,A,40162,5,8,7,B,50542,5,9,8,B,69662,5,10,2,A,64092,6,1,6,B,35042,6,2,7,B,52932,6,3,2,A,29732,6,4,9,B,51712,6,5,1,A,32882,6,6,4,A,23032,6,7,8,B,61292,6,8,10,B,37332,6,9,5,A,28092,6,10,3,A,31742,7,1,6,B,56482,7,2,7,B,31862,7,3,1,A,23102,7,4,9,B,46462,7,5,3,A,28562,7,6,10,B,30552,7,7,5,A,24932,7,8,4,A,50142,7,9,2,A,59622,7,10,8,B,63662,8,1,6,B,34562,8,2,1,A,34142,8,3,4,A,28882,8,4,9,B,37302,8,5,10,B,50032,8,6,3,A,43642,8,7,7,B,30162,8,8,8,B,44982,8,9,2,A,26892,8,10,5,B,38934,1,1,10,B,82024,1,2,3,A,34164,1,3,5,A,27334,1,4,4,A,27724,1,5,8,B,31844,1,6,9,B,38934,1,7,2,B,24604,1,8,6,B,27704,1,9,1,A,20254,1,10,7,A,19714,2,1,5,A,108844,2,2,3,A,43314,2,3,1,A,24894,2,4,2,B,29754,2,5,4,A,27374,2,6,9,B,28974,2,7,8,B,33014,2,8,10,B,36674,2,9,6,B,20444,2,10,7,A,22564,3,1,7,A,42484,3,2,10,B,18894,3,3,6,B,20964,3,4,9,B,11044,3,5,2,B,9424,3,6,8,B,23714,3,7,1,A,23354,3,8,3,A,10174,3,9,5,A,11774,3,10,4,A,8924,4,1,7,B,172774,4,2,6,B,40924,4,3,3,B,177964,4,4,4,A,20944,4,5,9,B,25704,4,6,5,A,17334,4,7,1,A,8184,4,8,8,A,10564,4,9,10,B,13004,4,10,2,A,13784,5,1,2,A,33214,5,2,3,B,8534,5,3,5,A,9794,5,4,9,B,8144,5,5,1,A,14544,5,6,10,B,9394,5,7,7,B,9544,5,8,4,A,24904,5,9,8,A,10204,5,10,6,B,10194,6,1,7,B,87614,6,2,6,B,17334,6,3,1,A,42104,6,4,3,B,94464,6,5,9,B,14954,6,6,2,A,14134,6,7,8,A,6534,6,8,10,B,9384,6,9,4,A,6714,6,10,5,A,8954,7,1,10,B,36134,7,2,3,B,103994,7,3,2,A,12234,7,4,1,A,5734,7,5,4,A,7814,7,6,8,A,8184,7,7,9,B,12584,7,8,5,A,7314,7,9,7,B,16534,7,10,6,B,14184,8,1,3,B,43304,8,2,6,B,23114,8,3,5,A,25744,8,4,4,A,7814,8,5,1,A,7374,8,6,7,B,11084,8,7,2,A,5764,8,8,10,B,10524,8,9,8,A,6974,8,10,9,B,9155,1,1,3,A,63305,1,2,8,B,64515,1,3,7,B,110785,1,4,6,B,77325,1,5,4,A,46275,1,6,9,B,119565,1,7,1,A,41755,1,8,2,A,72105,1,9,10,B,55705,1,10,5,A,56875,2,1,9,B,86545,2,2,4,A,54475,2,3,6,B,63345,2,4,1,A,28495,2,5,5,A,82435,2,6,3,A,30105,2,7,2,A,23085,2,8,8,B,53675,2,9,7,B,34185,2,10,10,B,68105,3,1,6,B,93205,3,2,5,A,31365,3,3,10,B,86085,3,4,3,A,26915,3,5,4,A,25455,3,6,9,B,39715,3,7,8,B,43315,3,8,2,A,34105,3,9,7,B,69315,3,10,1,A,23785,4,1,10,B,95675,4,2,9,B,85285,4,3,7,B,181955,4,4,5,A,30925,4,5,8,B,79325,4,6,4,A,35765,4,7,3,A,41875,4,8,6,B,21795,4,9,2,A,22505,4,10,1,A,14945,5,1,5,A,50115,5,2,3,A,28985,5,3,2,A,15025,5,4,10,B,26605,5,5,8,B,22505,5,6,4,A,29295,5,7,1,A,39695,5,8,7,B,24525,5,9,9,B,17345,5,10,6,B,20555,6,1,5,A,50075,6,2,8,B,14195,6,3,1,A,9785,6,4,6,B,10945,6,5,3,A,26085,6,6,2,A,28175,6,7,9,B,40125,6,8,7,B,40185,6,9,10,B,31725,6,10,4,A,21085,7,1,1,A,44655,7,2,6,B,19335,7,3,10,B,30145,7,4,5,A,22505,7,5,8,B,24555,7,6,3,A,36145,7,7,2,A,38895,7,8,9,B,27865,7,9,4,A,37755,7,10,7,B,27785,8,1,9,B,68145,8,2,10,B,78915,8,3,3,A,70085,8,4,4,A,24535,8,5,6,B,22685,8,6,7,B,22295,8,7,5,A,24955,8,8,2,A,18925,8,9,1,A,15805,8,10,8,B,35326,1,1,5,A,74036,1,2,8,B,22606,1,3,10,B,23326,1,4,1,A,16536,1,5,2,B,14576,1,6,9,B,16906,1,7,3,A,11786,1,8,7,A,11746,1,9,4,A,13416,1,10,6,B,13406,2,1,5,A,13036,2,2,7,A,11806,2,3,1,A,20146,2,4,10,B,15346,2,5,9,B,11756,2,6,6,B,10136,2,7,8,B,13836,2,8,2,B,12596,2,9,3,A,14926,2,10,4,A,11416,3,1,6,B,31776,3,2,10,B,10516,3,3,3,A,15056,3,4,8,B,14106,3,5,2,B,165096,3,6,9,B,21326,3,7,5,A,38496,3,8,4,A,22526,3,9,1,A,23736,3,10,7,A,21376,4,1,2,A,146,4,2,10,B,109226,4,3,5,A,55346,4,4,9,B,26996,4,5,1,A,23346,4,6,3,A,266976,4,7,8,B,35716,4,8,4,A,24536,4,9,6,B,22146,4,10,7,B,61666,5,1,6,B,25786,5,2,5,A,32096,5,3,1,A,20976,5,4,10,B,46486,5,5,8,B,59336,5,6,9,B,19716,5,7,7,B,37316,5,8,3,A,72826,5,9,4,A,32146,5,10,2,A,52446,6,1,9,B,156376,6,2,4,A,53246,6,3,6,B,51276,6,4,7,B,66886,6,5,2,A,31696,6,6,8,B,65266,6,7,10,B,75226,6,8,3,A,36466,6,9,1,A,31856,6,10,5,A,35756,7,1,8,B,45256,7,2,3,A,20966,7,3,6,B,31686,7,4,10,B,46866,7,5,7,B,47256,7,6,4,A,27036,7,7,5,A,49726,7,8,1,A,48496,7,9,9,B,42046,7,10,2,A,40466,8,1,9,B,57666,8,2,7,B,39866,8,3,3,A,28146,8,4,10,B,68836,8,5,8,B,60106,8,6,1,A,35316,8,7,5,A,27896,8,8,2,A,50666,8,9,6,B,32956,8,10,4,A,26157,1,1,5,A,113197,1,2,10,B,256297,1,3,8,B,43647,1,4,4,A,48777,1,5,3,A,32487,1,6,2,B,18377,1,7,7,A,87837,1,8,9,B,10017,1,9,1,A,11337,1,10,6,B,17877,2,1,9,B,56967,2,2,2,A,118477,2,3,1,A,22137,2,4,3,B,45287,2,5,7,B,18187,2,6,4,A,44547,2,7,6,B,25347,2,8,8,A,17837,2,9,10,B,13397,2,10,5,A,14617,3,1,3,A,116437,3,2,7,B,43267,3,3,4,A,98087,3,4,1,A,20117,3,5,8,A,70047,3,6,2,A,32487,3,7,10,B,18497,3,8,5,A,40487,3,9,6,B,25307,3,10,9,B,21317,4,1,10,B,51367,4,2,9,B,43717,4,3,8,A,52907,4,4,7,B,18167,4,5,4,A,28537,4,6,5,A,24167,4,7,2,A,27747,4,8,1,A,48977,4,9,3,A,59677,4,10,6,B,60937,5,1,1,A,137277,5,2,3,A,110517,5,3,9,B,41747,5,4,5,A,48167,5,5,7,B,62467,5,6,4,A,25777,5,7,6,B,36887,5,8,10,B,10677,5,9,8,A,24197,5,10,2,A,17377,6,1,3,A,35077,6,2,6,B,65667,6,3,4,A,436527,6,4,5,A,22207,6,5,8,A,13427,6,6,7,B,26097,6,7,2,A,9647,6,8,9,B,19087,6,9,10,A,18947,6,10,1,A,9327,7,1,7,B,50937,7,2,5,A,51767,7,3,3,B,20187,7,4,1,A,24587,7,5,2,A,25777,7,6,4,A,19317,7,7,8,A,25337,7,8,6,B,163157,7,9,10,B,201207,7,10,9,B,13407,8,1,9,B,14317,8,2,7,B,11017,8,3,8,A,20197,8,4,3,A,46167,8,5,10,B,33717,8,6,5,A,68927,8,7,6,B,23377,8,8,4,A,59727,8,9,1,A,16957,8,10,2,A,37318,1,1,10,B,64578,1,2,4,B,58558,1,3,3,A,53348,1,4,2,A,70918,1,5,5,A,37758,1,6,9,B,58578,1,7,1,A,47008,1,8,7,B,38528,1,9,6,B,57348,1,10,8,B,56268,2,1,8,B,71708,2,2,7,B,30268,2,3,4,A,48228,2,4,3,A,36788,2,5,1,A,41578,2,6,5,A,114878,2,7,10,B,36608,2,8,6,B,37318,2,9,2,A,45708,2,10,9,B,93318,3,1,2,A,40518,3,2,9,B,104088,3,3,10,B,59728,3,4,6,B,162578,3,5,8,B,84178,3,6,3,A,61698,3,7,1,A,56918,3,8,7,B,80538,3,9,5,A,128158,3,10,4,A,91318,4,1,7,B,111748,4,2,6,B,96888,4,3,9,B,71918,4,4,10,B,88978,4,5,2,A,39408,4,6,1,A,35818,4,7,4,A,33448,4,8,8,B,65318,4,9,3,A,72598,4,10,5,A,70258,5,1,6,B,64158,5,2,2,A,51018,5,3,3,A,56558,5,4,8,B,63748,5,5,10,B,69368,5,6,5,A,59328,5,7,4,A,53688,5,8,7,B,108478,5,9,9,B,56958,5,10,1,A,78188,6,1,4,A,86988,6,2,8,B,72208,6,3,9,B,66118,6,4,3,A,60298,6,5,5,A,63608,6,6,7,B,62158,6,7,2,A,77298,6,8,1,A,105008,6,9,6,B,64208,6,10,10,A,61048,7,1,8,B,102618,7,2,4,A,85348,7,3,1,A,46898,7,4,7,B,78568,7,5,2,A,51828,7,6,9,B,68118,7,7,5,A,118158,7,8,10,B,48578,7,9,3,A,58578,7,10,6,B,62568,8,1,7,B,89738,8,2,1,A,59338,8,3,6,B,53708,8,4,8,B,62348,8,5,9,B,61948,8,6,2,A,104118,8,7,4,A,98518,8,8,5,A,67798,8,9,10,B,56608,8,10,3,A,110989,1,1,3,A,24939,1,2,6,B,15839,1,3,5,A,38609,1,4,9,B,26119,1,5,1,A,19849,1,6,4,A,44589,1,7,8,B,18619,1,8,10,B,40959,1,9,2,A,30519,1,10,7,B,40949,2,1,4,A,21109,2,2,8,B,46559,2,3,7,B,28599,2,4,5,A,30519,2,5,10,B,13759,2,6,1,A,20939,2,7,9,B,15449,2,8,2,A,24169,2,9,6,B,15759,2,10,3,B,42929,3,1,8,A,31359,3,2,5,A,16179,3,3,2,A,28199,3,4,6,B,13399,3,5,1,A,9839,3,6,9,B,11819,3,7,10,B,16599,3,8,4,A,10149,3,9,3,B,22559,3,10,7,B,24629,4,1,7,B,10979,4,2,2,A,16169,4,3,3,A,57369,4,4,1,A,12559,4,5,10,B,20239,4,6,8,B,28219,4,7,4,A,11839,4,8,6,B,16209,4,9,9,B,10639,4,10,5,A,12959,5,1,9,B,56529,5,2,3,B,56939,5,3,6,B,17019,5,4,2,A,17399,5,5,4,A,8239,5,6,7,B,29329,5,7,10,B,21369,5,8,5,A,14599,5,9,1,A,15329,5,10,8,A,19769,6,1,1,A,8559,6,2,4,A,8609,6,3,3,B,30959,6,4,7,B,18939,6,5,9,B,17849,6,6,10,B,15419,6,7,5,A,7339,6,8,8,A,15399,6,9,6,B,10229,6,10,2,A,14929,7,1,10,B,48149,7,2,5,A,7339,7,3,9,B,11379,7,4,7,B,41909,7,5,6,B,21349,7,6,1,A,8189,7,7,4,A,17409,7,8,3,A,50219,7,9,8,A,17799,7,10,2,A,40249,8,1,10,B,16169,8,2,1,A,6989,8,3,4,A,10759,8,4,3,A,31789,8,5,7,A,41329,8,6,2,A,13739,8,7,8,A,15029,8,8,9,B,16219,8,9,6,B,12369,8,10,5,A,97310,1,1,6,B,1889310,1,2,3,A,7118810,1,3,5,A,6455110,1,4,7,B,3189010,1,5,4,A,4175810,1,6,8,B,2924410,1,7,9,B,4484010,1,8,2,A,4819210,1,9,10,B,2701110,1,10,1,A,3387710,2,1,8,B,1045410,2,2,9,B,343510,2,3,3,A,302010,2,4,5,A,162210,2,5,10,B,150310,2,6,6,B,158310,2,7,2,A,285810,2,8,1,A,126310,2,9,4,B,141810,2,10,7,B,330010,3,1,9,B,925810,3,2,7,B,209810,3,3,2,A,193710,3,4,6,B,118210,3,5,4,A,405710,3,6,3,B,573810,3,7,1,A,121810,3,8,5,A,110110,3,9,8,B,161910,3,10,10,B,174210,4,1,6,B,337310,4,2,9,B,310010,4,3,1,A,117910,4,4,3,B,197610,4,5,10,B,122310,4,6,4,A,170610,4,7,2,A,157010,4,8,5,A,85910,4,9,8,A,217410,4,10,7,B,138310,5,1,3,B,466110,5,2,2,A,101210,5,3,5,A,93510,5,4,9,A,182010,5,5,8,A,186110,5,6,10,B,117410,5,7,6,B,86410,5,8,1,A,149910,5,9,4,A,273910,5,10,7,B,119010,6,1,8,A,437710,6,2,9,B,86510,6,3,1,A,82010,6,4,5,A,74310,6,5,3,B,455510,6,6,2,A,72210,6,7,7,B,77710,6,8,10,B,77610,6,9,6,B,193310,6,10,4,A,111710,7,1,4,A,932810,7,2,2,A,105810,7,3,7,B,81310,7,4,3,B,121610,7,5,10,B,113710,7,6,9,B,106210,7,7,1,A,110910,7,8,6,B,81610,7,9,8,A,65810,7,10,5,A,77510,8,1,3,B,297510,8,2,4,A,74210,8,3,5,A,61710,8,4,9,B,61910,8,5,10,B,58210,8,6,6,B,67110,8,7,8,A,81510,8,8,7,B,57910,8,9,2,A,69610,8,10,1,A,77611,1,1,10,B,499111,1,2,2,A,620011,1,3,4,A,416111,1,4,9,B,205411,1,5,8,B,1022511,1,6,6,B,400611,1,7,7,B,722811,1,8,3,A,944711,1,9,5,A,1052811,1,10,1,A,432311,2,1,8,B,1271011,2,2,9,B,807511,2,3,2,A,341511,2,4,4,A,444111,2,5,6,B,344611,2,6,5,A,527611,2,7,10,B,1142411,2,8,1,A,3169511,2,9,7,B,508711,2,10,3,A,376211,3,1,6,B,684011,3,2,8,B,515811,3,3,9,B,464211,3,4,1,A,225011,3,5,5,A,348511,3,6,4,A,332611,3,7,3,A,560311,3,8,2,A,436211,3,9,10,B,1095911,3,10,7,B,322311,4,1,5,A,272911,4,2,9,B,360211,4,3,6,B,244511,4,4,2,A,452911,4,5,10,B,397211,4,6,4,A,352811,4,7,7,B,285511,4,8,3,A,779811,4,9,1,A,197111,4,10,8,B,360911,5,1,5,A,444911,5,2,8,B,324311,5,3,6,B,185511,5,4,10,B,289311,5,5,3,A,417111,5,6,7,B,436511,5,7,2,A,233511,5,8,9,B,456611,5,9,4,A,369311,5,10,1,A,345311,6,1,3,A,436611,6,2,7,B,408111,6,3,5,A,377311,6,4,9,B,480611,6,5,10,B,628011,6,6,6,B,348711,6,7,2,A,265011,6,8,1,A,760411,6,9,4,A,141711,6,10,8,B,803911,7,1,7,B,424711,7,2,6,B,209711,7,3,5,A,228811,7,4,1,A,201311,7,5,2,A,336511,7,6,9,B,504911,7,7,3,A,600611,7,8,8,B,510911,7,9,4,A,328411,7,10,10,B,332411,8,1,10,B,264911,8,2,7,B,316611,8,3,3,A,340311,8,4,8,B,621011,8,5,5,A,368711,8,6,6,B,312811,8,7,1,A,796211,8,8,4,A,456511,8,9,9,B,568811,8,10,2,A,332312,1,1,7,A,680912,1,2,8,B,409012,1,3,4,A,385012,1,4,5,A,268912,1,5,2,B,1311512,1,6,9,B,1190812,1,7,3,A,189512,1,8,10,B,703912,1,9,6,B,452512,1,10,1,A,197412,2,1,2,A,3914312,2,2,6,B,907912,2,3,7,B,532512,2,4,10,B,1546812,2,5,3,A,808612,2,6,5,A,1168012,2,7,9,B,855712,2,8,8,B,760912,2,9,4,A,361912,2,10,1,A,408912,3,1,1,A,389912,3,2,6,B,321012,3,3,10,B,1241612,3,4,8,B,395412,3,5,2,A,624112,3,6,9,B,664212,3,7,5,A,588412,3,8,7,B,485212,3,9,4,A,708212,3,10,3,A,333412,4,1,1,A,448312,4,2,4,A,373512,4,3,8,B,387912,4,4,10,B,1001212,4,5,3,A,213312,4,6,6,B,341012,4,7,7,B,297412,4,8,2,A,289712,4,9,9,B,661212,4,10,5,A,425012,5,1,7,B,420612,5,2,8,B,448912,5,3,5,A,262312,5,4,1,A,249912,5,5,4,A,356912,5,6,10,B,536512,5,7,2,A,345612,5,8,3,A,181612,5,9,9,B,480812,5,10,6,B,261312,6,1,7,B,768812,6,2,5,A,216912,6,3,1,A,389012,6,4,4,A,405112,6,5,3,A,308712,6,6,9,B,748412,6,7,6,B,213912,6,8,10,B,425012,6,9,8,B,500512,6,10,2,A,556412,7,1,8,B,277912,7,2,6,B,193112,7,3,7,B,724012,7,4,9,B,564112,7,5,5,A,508712,7,6,1,A,197012,7,7,4,A,780412,7,8,10,B,593212,7,9,2,A,365712,7,10,3,A,249612,8,1,9,B,509412,8,2,8,B,410312,8,3,6,B,258812,8,4,5,A,465312,8,5,4,A,928712,8,6,2,A,425612,8,7,1,A,612812,8,8,3,A,241512,8,9,10,B,2616812,8,10,7,A,584613,1,1,7,A,748313,1,2,2,B,273613,1,3,4,A,877513,1,4,5,A,721313,1,5,8,B,342413,1,6,6,B,277913,1,7,10,B,620213,1,8,1,A,325813,1,9,9,B,253813,1,10,3,A,297513,2,1,10,B,441213,2,2,2,A,863013,2,3,7,B,100513,2,4,6,B,175513,2,5,4,A,528713,2,6,1,A,265013,2,7,3,A,408813,2,8,9,B,201213,2,9,5,A,332713,2,10,8,A,349513,3,1,1,A,353513,3,2,2,A,333113,3,3,9,B,280913,3,4,8,A,437313,3,5,4,A,221413,3,6,10,B,437013,3,7,7,B,230113,3,8,5,A,381413,3,9,6,B,229713,3,10,3,A,916013,4,1,10,B,565413,4,2,8,B,201113,4,3,5,A,209013,4,4,3,A,425213,4,5,4,A,222413,4,6,7,B,248813,4,7,2,A,293213,4,8,6,B,392613,4,9,9,B,237413,4,10,1,A,198813,5,1,7,B,417013,5,2,3,A,804313,5,3,10,B,293113,5,4,8,B,248913,5,5,1,A,333313,5,6,4,A,157013,5,7,2,A,373313,5,8,9,B,288913,5,9,5,A,229513,5,10,6,B,201113,6,1,8,B,1016213,6,2,9,B,206213,6,3,1,A,209213,6,4,10,B,349713,6,5,7,B,360913,6,6,6,B,225613,6,7,2,A,157813,6,8,4,A,137313,6,9,3,A,245713,6,10,5,A,381413,7,1,1,A,193413,7,2,10,B,270213,7,3,6,B,233713,7,4,2,A,181713,7,5,8,A,382713,7,6,3,A,311313,7,7,7,B,253413,7,8,5,A,389113,7,9,4,A,141713,7,10,9,B,93613,8,1,6,B,216513,8,2,9,B,153113,8,3,5,A,149213,8,4,7,B,185813,8,5,10,B,260813,8,6,4,A,110913,8,7,8,B,313013,8,8,1,A,324713,8,9,3,A,198113,8,10,2,A,233414,1,1,4,A,797114,1,2,5,A,720614,1,3,2,B,313014,1,4,3,A,110314,1,5,7,A,126114,1,6,9,B,93414,1,7,1,A,97714,1,8,6,B,109314,1,9,10,B,109114,1,10,8,B,126014,2,1,10,B,601314,2,2,9,B,202214,2,3,2,B,133914,2,4,4,A,118314,2,5,8,B,101914,2,6,5,A,130014,2,7,3,A,169614,2,8,1,A,125314,2,9,7,A,121714,2,10,6,B,109914,3,1,10,B,440914,3,2,1,A,61814,3,3,8,B,93914,3,4,3,A,61214,3,5,6,B,69414,3,6,2,B,93314,3,7,9,B,65614,3,8,5,A,114214,3,9,7,A,137114,3,10,4,A,709214,4,1,3,A,146214,4,2,6,B,113514,4,3,8,B,99014,4,4,5,A,110514,4,5,7,A,93114,4,6,1,A,105414,4,7,9,B,93914,4,8,2,B,81114,4,9,10,B,81214,4,10,4,A,105314,5,1,10,B,157114,5,2,1,A,61914,5,3,7,A,78114,5,4,4,A,86714,5,5,8,B,86214,5,6,6,B,53514,5,7,5,A,69814,5,8,3,A,73914,5,9,2,B,57014,5,10,9,B,101914,6,1,3,A,126314,6,2,6,B,97614,6,3,1,A,69414,6,4,2,B,96314,6,5,5,A,100814,6,6,4,A,120014,6,7,8,B,83514,6,8,10,B,83014,6,9,7,A,70114,6,10,9,B,61814,7,1,7,A,130714,7,2,9,B,66314,7,3,5,A,117014,7,4,4,A,97714,7,5,6,B,125214,7,6,3,A,293514,7,7,8,B,664914,7,8,1,A,74114,7,9,2,B,113214,7,10,10,B,101714,8,1,9,B,349614,8,2,1,A,276814,8,3,10,B,269414,8,4,2,A,244814,8,5,8,B,340914,8,6,3,A,293714,8,7,4,A,369514,8,8,6,B,202114,8,9,7,B,243014,8,10,5,A,169715,1,1,7,B,1911415,1,2,3,A,1174115,1,3,8,B,771115,1,4,2,A,631015,1,5,1,A,536015,1,6,9,B,630215,1,7,4,A,1851715,1,8,10,B,741815,1,9,5,A,469015,1,10,6,B,1283015,2,1,6,B,1087115,2,2,10,B,424615,2,3,3,A,485115,2,4,8,B,935215,2,5,2,A,1127215,2,6,9,B,963515,2,7,4,A,811915,2,8,1,A,864215,2,9,7,B,568015,2,10,5,A,648215,3,1,10,B,1270415,3,2,4,A,356515,3,3,1,A,732715,3,4,8,B,727915,3,5,2,A,496515,3,6,9,B,868315,3,7,7,B,688415,3,8,5,A,421115,3,9,3,A,1167715,3,10,6,B,644615,4,1,8,B,562415,4,2,10,B,558915,4,3,5,A,333515,4,4,6,B,452515,4,5,7,B,540715,4,6,4,A,468515,4,7,2,A,360415,4,8,1,A,330015,4,9,3,A,355615,4,10,9,B,360715,5,1,4,A,628515,5,2,8,B,728815,5,3,2,A,408315,5,4,9,B,960415,5,5,10,A,417215,5,6,7,B,1925615,5,7,6,B,369015,5,8,3,A,477915,5,9,5,A,424215,5,10,1,A,573515,6,1,4,A,780215,6,2,2,A,576715,6,3,7,B,573115,6,4,1,A,501315,6,5,9,B,465215,6,6,6,B,584715,6,7,8,B,653315,6,8,3,A,1810615,6,9,10,B,1015915,6,10,5,A,341515,7,1,4,A,616815,7,2,6,B,404315,7,3,8,B,470215,7,4,10,B,512615,7,5,7,B,601615,7,6,3,A,504115,7,7,2,A,855915,7,8,1,A,556015,7,9,9,B,696215,7,10,5,A,796015,8,1,2,A,1602115,8,2,1,A,501015,8,3,7,B,349215,8,4,4,A,489015,8,5,9,B,484815,8,6,3,A,413515,8,7,8,B,763815,8,8,5,A,413315,8,9,6,B,416615,8,10,10,B,524017,1,1,1,A,572317,1,2,8,B,337017,1,3,6,B,544517,1,4,7,A,253317,1,5,2,B,185317,1,6,5,A,193417,1,7,9,B,133517,1,8,4,A,182517,1,9,3,A,153117,1,10,10,B,169117,2,1,1,A,160817,2,2,4,A,193817,2,3,10,B,133817,2,4,9,B,141917,2,5,8,B,113817,2,6,7,A,105917,2,7,5,A,113117,2,8,3,A,157217,2,9,2,B,97917,2,10,6,B,109217,3,1,7,A,292717,3,2,10,B,86017,3,3,9,B,85217,3,4,1,A,85717,3,5,2,B,116917,3,6,3,A,97617,3,7,4,A,232917,3,8,6,B,90017,3,9,8,B,125817,3,10,5,A,372417,4,1,7,A,178517,4,2,9,B,72617,4,3,1,A,85917,4,4,8,B,133217,4,5,2,B,205317,4,6,6,B,97517,4,7,10,B,81117,4,8,3,A,69117,4,9,4,A,122017,4,10,5,A,125717,5,1,2,B,110317,5,2,4,A,73917,5,3,8,B,73217,5,4,10,B,97317,5,5,1,A,101917,5,6,9,B,74017,5,7,7,A,97117,5,8,5,A,89617,5,9,6,B,86317,5,10,3,A,92717,6,1,10,B,97917,6,2,5,A,105517,6,3,6,B,293617,6,4,9,B,141517,6,5,8,B,77417,6,6,7,A,85117,6,7,2,B,89417,6,8,1,A,328817,6,9,4,A,101417,6,10,3,A,82517,7,1,2,B,201717,7,2,3,A,97617,7,3,9,B,77217,7,4,10,B,93917,7,5,6,B,72917,7,6,5,A,77117,7,7,8,B,77817,7,8,7,A,89617,7,9,4,A,89217,7,10,1,A,148917,8,1,2,B,125817,8,2,10,B,105017,8,3,4,A,97417,8,4,7,A,141017,8,5,5,A,106217,8,6,9,B,93517,8,7,3,A,241417,8,8,1,A,129117,8,9,8,B,110017,8,10,6,B,97818,1,1,5,A,2659318,1,2,8,B,716318,1,3,4,A,1190918,1,4,1,A,918718,1,5,3,A,657518,1,6,6,B,950718,1,7,7,B,827618,1,8,9,B,665118,1,9,10,B,913318,1,10,2,A,499918,2,1,7,B,881118,2,2,8,B,667518,2,3,3,A,444718,2,4,2,A,408918,2,5,10,B,1022418,2,6,4,A,575918,2,7,1,A,364118,2,8,5,A,373418,2,9,6,B,1102018,2,10,9,B,431718,3,1,6,B,703218,3,2,3,A,368318,3,3,8,B,308018,3,4,9,B,345018,3,5,4,A,435918,3,6,2,A,497018,3,7,1,A,300418,3,8,5,A,1042218,3,9,7,B,460018,3,10,10,B,500618,4,1,10,B,823618,4,2,3,A,867118,4,3,8,B,537018,4,4,7,B,384218,4,5,9,B,521018,4,6,5,A,548218,4,7,6,B,944018,4,8,1,A,392918,4,9,4,A,396818,4,10,2,A,348418,5,1,2,A,990218,5,2,4,A,276518,5,3,1,A,296118,5,4,5,A,400718,5,5,8,B,603818,5,6,3,A,383918,5,7,9,B,515718,5,8,10,B,547718,5,9,7,B,531818,5,10,6,B,388918,6,1,1,A,867518,6,2,9,B,317218,6,3,2,A,404618,6,4,5,A,684718,6,5,7,B,508518,6,6,3,A,1329818,6,7,10,B,504218,6,8,8,B,615818,6,9,4,A,348118,6,10,6,B,480518,7,1,2,A,1230718,7,2,10,B,599418,7,3,6,B,352218,7,4,7,B,739418,7,5,5,A,671118,7,6,3,A,720018,7,7,8,B,651818,7,8,4,A,418318,7,9,9,B,388418,7,10,1,A,431818,8,1,9,B,1042018,8,2,7,B,503718,8,3,10,B,584418,8,4,2,A,6554518,8,5,1,A,248818,8,6,6,B,264918,8,7,3,A,460918,8,8,8,B,441718,8,9,4,A,272518,8,10,5,A,377619,1,1,8,B,1090619,1,2,4,A,588219,1,3,9,B,341219,1,4,5,A,1060819,1,5,1,A,372219,1,6,3,A,472419,1,7,6,B,268919,1,8,2,A,768119,1,9,10,B,440519,1,10,7,B,408719,2,1,3,A,811819,2,2,4,A,1111419,2,3,1,A,200719,2,4,8,B,217419,2,5,6,B,258419,2,6,9,B,293319,2,7,2,A,895419,2,8,5,A,416819,2,9,7,B,301519,2,10,10,B,174319,3,1,3,A,269219,3,2,9,B,1411119,3,3,6,B,185319,3,4,5,A,229319,3,5,10,B,209719,3,6,8,B,185119,3,7,4,A,280919,3,8,1,A,145719,3,9,2,A,365519,3,10,7,B,245319,4,1,3,A,345219,4,2,9,B,592219,4,3,1,A,160719,4,4,4,A,888219,4,5,7,B,540619,4,6,10,B,221919,4,7,6,B,241519,4,8,2,A,324819,4,9,5,A,376319,4,10,8,B,166819,5,1,10,B,612819,5,2,6,B,161719,5,3,8,B,181219,5,4,5,A,216819,5,5,7,B,412519,5,6,4,B,432819,5,7,2,A,301319,5,8,1,A,300619,5,9,3,A,202219,5,10,9,B,441219,6,1,6,B,213719,6,2,3,A,165619,6,3,8,B,173819,6,4,1,A,137819,6,5,7,B,508419,6,6,2,A,189819,6,7,5,A,396719,6,8,4,A,344619,6,9,9,B,185819,6,10,10,B,612919,7,1,1,A,213019,7,2,10,B,296719,7,3,3,A,137019,7,4,9,B,325119,7,5,7,B,235219,7,6,4,A,177819,7,7,5,A,269019,7,8,6,B,245319,7,9,2,A,548719,7,10,8,B,194819,8,1,1,A,268719,8,2,4,A,277119,8,3,6,B,145519,8,4,9,B,417119,8,5,7,B,389019,8,6,2,A,408819,8,7,3,A,249319,8,8,10,B,145819,8,9,5,A,516219,8,10,8,B,153420,1,1,9,B,552920,1,2,7,B,1355820,1,3,8,A,201420,1,4,4,A,473520,1,5,10,B,129420,1,6,2,A,268720,1,7,6,B,158320,1,8,5,A,86520,1,9,3,B,221720,1,10,1,A,257320,2,1,2,A,488420,2,2,9,B,572120,2,3,3,A,412720,2,4,6,B,233720,2,5,10,B,628820,2,6,5,A,488620,2,7,4,A,292720,2,8,8,B,654020,2,9,7,B,305520,2,10,1,A,153820,3,1,9,B,389320,3,2,2,A,170720,3,3,6,B,169020,3,4,8,B,450520,3,5,1,A,314620,3,6,4,A,241120,3,7,3,A,312820,3,8,5,A,517120,3,9,7,B,318320,3,10,10,B,560720,4,1,8,A,1236320,4,2,3,A,428920,4,3,1,A,249020,4,4,7,B,229620,4,5,6,B,238220,4,6,5,A,325220,4,7,2,A,297320,4,8,4,A,193420,4,9,10,B,608920,4,10,9,B,392820,5,1,6,B,460920,5,2,3,A,556920,5,3,4,A,316920,5,4,10,B,416820,5,5,7,B,372820,5,6,8,B,350620,5,7,9,B,269820,5,8,1,A,309120,5,9,5,A,341420,5,10,2,A,400820,6,1,9,B,293720,6,2,3,A,405220,6,3,8,B,396920,6,4,5,A,608720,6,5,4,A,212920,6,6,1,A,520320,6,7,6,B,364520,6,8,2,A,270720,6,9,7,B,229620,6,10,10,B,181220,7,1,1,A,329420,7,2,8,B,244920,7,3,5,A,312920,7,4,3,A,406420,7,5,6,B,165420,7,6,2,A,205620,7,7,9,B,673120,7,8,10,B,210020,7,9,4,A,253120,7,10,7,B,285020,8,1,9,B,428920,8,2,5,A,381320,8,3,7,B,222020,8,4,6,B,177820,8,5,3,A,278120,8,6,4,A,221220,8,7,1,A,324720,8,8,10,B,248820,8,9,8,B,177420,8,10,2,A,325721,1,1,4,A,467821,1,2,5,A,176321,1,3,1,A,197621,1,4,9,B,1585321,1,5,10,B,171121,1,6,3,A,203421,1,7,6,B,263421,1,8,7,A,248321,1,9,2,B,108021,1,10,8,B,96121,2,1,4,A,220921,2,2,8,B,197321,2,3,5,A,117521,2,4,10,B,128821,2,5,9,B,93421,2,6,7,A,101621,2,7,1,A,340721,2,8,2,B,221021,2,9,3,A,117921,2,10,6,B,127021,3,1,1,A,281521,3,2,3,A,133721,3,3,9,B,113721,3,4,6,B,217521,3,5,10,B,109721,3,6,7,A,97321,3,7,2,B,86021,3,8,5,A,97121,3,9,4,A,141421,3,10,8,B,129121,4,1,2,B,297121,4,2,6,B,93521,4,3,1,A,105321,4,4,5,A,141721,4,5,9,B,93421,4,6,4,A,121321,4,7,10,B,90021,4,8,8,B,116021,4,9,7,A,91321,4,10,3,A,81721,5,1,2,B,300421,5,2,8,B,113321,5,3,4,A,81321,5,4,3,A,141021,5,5,9,B,173721,5,6,5,A,101521,5,7,7,A,109421,5,8,1,A,65121,5,9,10,B,89421,5,10,6,B,81121,6,1,1,A,1741521,6,2,8,B,104921,6,3,7,A,149021,6,4,10,B,93921,6,5,6,B,257521,6,6,9,B,173621,6,7,3,A,77621,6,8,5,A,101021,6,9,4,A,88921,6,10,2,B,89521,7,1,1,A,237521,7,2,3,A,125621,7,3,7,A,62221,7,4,8,B,80821,7,5,6,B,50021,7,6,4,A,66021,7,7,5,A,77021,7,8,9,B,92021,7,9,2,B,57421,7,10,10,B,54021,8,1,6,B,164721,8,2,3,A,78221,8,3,2,B,99421,8,4,7,A,87521,8,5,5,A,81621,8,6,1,A,69521,8,7,8,B,65921,8,8,10,B,64421,8,9,9,B,46321,8,10,4,A,85422,1,1,4,A,414222,1,2,6,B,184722,1,3,3,A,116122,1,4,9,B,451422,1,5,8,B,250222,1,6,2,B,204822,1,7,1,A,108822,1,8,10,B,79822,1,9,5,A,86022,1,10,7,A,168622,2,1,9,B,596422,2,2,2,B,161722,2,3,3,A,113822,2,4,4,A,77622,2,5,5,A,113022,2,6,7,A,97122,2,7,1,A,82622,2,8,6,B,145322,2,9,10,B,305122,2,10,8,B,153222,3,1,1,A,202022,3,2,10,B,93822,3,3,3,A,66022,3,4,4,A,57322,3,5,7,A,53922,3,6,5,A,38022,3,7,8,B,53522,3,8,6,B,77722,3,9,9,B,73222,3,10,2,B,169222,4,1,3,A,161922,4,2,4,A,69822,4,3,6,B,61422,4,4,7,A,113422,4,5,10,B,250222,4,6,5,A,73722,4,7,1,A,193722,4,8,2,B,73722,4,9,8,B,70922,4,10,9,B,65522,5,1,2,B,145422,5,2,3,A,61722,5,3,10,B,57622,5,4,8,B,50422,5,5,5,A,58222,5,6,9,B,57822,5,7,7,A,101122,5,8,4,A,116922,5,9,6,B,65622,5,10,1,A,84122,6,1,4,A,149522,6,2,3,A,69222,6,3,10,B,92922,6,4,8,B,113022,6,5,5,A,53522,6,6,7,A,69622,6,7,1,A,69322,6,8,6,A,43422,6,9,9,B,54722,6,10,2,B,46022,7,1,3,A,113722,7,2,5,A,73822,7,3,8,B,50322,7,4,7,A,55022,7,5,9,B,70322,7,6,10,B,117622,7,7,4,A,50122,7,8,6,B,57822,7,9,2,B,89522,7,10,1,A,93122,8,1,8,B,352822,8,2,3,A,77922,8,3,7,A,205222,8,4,2,B,73222,8,5,9,B,145622,8,6,5,A,57822,8,7,4,A,49322,8,8,6,B,112922,8,9,10,B,69122,8,10,1,A,66123,1,1,4,A,879023,1,2,10,B,440723,1,3,2,B,1194723,1,4,1,A,269423,1,5,8,B,320223,1,6,7,A,512123,1,7,3,A,280523,1,8,9,B,190223,1,9,6,B,209423,1,10,5,A,184723,2,1,1,A,1379323,2,2,3,A,931523,2,3,8,B,923123,2,4,6,B,509223,2,5,5,A,328923,2,6,9,B,580223,2,7,7,B,796323,2,8,4,A,412723,2,9,10,B,289223,2,10,2,A,241423,3,1,6,B,340323,3,2,3,A,1166523,3,3,7,B,688623,3,4,2,A,548923,3,5,10,B,656023,3,6,9,B,336623,3,7,1,A,448023,3,8,8,B,472923,3,9,5,A,895923,3,10,4,A,1090723,4,1,4,A,512423,4,2,3,A,767623,4,3,1,A,212823,4,4,7,B,465223,4,5,2,A,312823,4,6,8,B,796223,4,7,10,B,528223,4,8,9,B,876123,4,9,6,B,304723,4,10,5,A,505123,5,1,5,A,848323,5,2,10,B,349223,5,3,8,B,429023,5,4,1,A,847823,5,5,2,A,364523,5,6,6,B,357023,5,7,3,B,799923,5,8,7,B,819823,5,9,4,A,304923,5,10,9,B,512123,6,1,3,A,2803123,6,2,6,B,405023,6,3,4,A,488123,6,4,2,A,600623,6,5,1,A,213023,6,6,8,B,492223,6,7,5,A,971123,6,8,10,B,608723,6,9,9,B,596123,6,10,7,B,1043323,7,1,6,B,1011523,7,2,7,B,340623,7,3,10,B,827923,7,4,8,B,1550023,7,5,2,A,472823,7,6,5,A,425123,7,7,9,B,328623,7,8,4,A,352523,7,9,1,A,237423,7,10,3,A,313423,8,1,8,B,839823,8,2,5,A,1075223,8,3,2,A,340923,8,4,4,A,520623,8,5,10,B,356723,8,6,1,A,218523,8,7,9,B,351723,8,8,6,B,177823,8,9,3,A,436423,8,10,7,B,820324,1,1,7,A,568624,1,2,5,A,452224,1,3,6,B,444624,1,4,4,A,624724,1,5,8,B,425124,1,6,10,B,544324,1,7,1,A,329124,1,8,2,B,113724,1,9,9,B,122924,1,10,3,A,118324,2,1,4,A,325024,2,2,10,B,193024,2,3,7,A,112924,2,4,9,B,73124,2,5,8,B,81424,2,6,1,A,244924,2,7,6,B,125224,2,8,3,A,97524,2,9,5,A,304624,2,10,2,B,78024,3,1,10,B,245824,3,2,1,A,158024,3,3,5,A,1137624,3,4,9,A,230724,3,5,3,A,1000124,3,6,4,A,105924,3,7,7,A,575724,3,8,2,B,109024,3,9,8,B,89924,3,10,6,B,205324,4,1,9,B,995524,4,2,7,A,193624,4,3,4,A,61724,4,4,6,B,141524,4,5,3,A,85424,4,6,1,A,57924,4,7,10,B,57424,4,8,5,A,57224,4,9,8,B,54024,4,10,2,B,62124,5,1,9,B,101324,5,2,2,B,89324,5,3,10,B,85024,5,4,7,A,53424,5,5,8,B,93724,5,6,6,B,71124,5,7,1,A,109524,5,8,3,A,69124,5,9,4,A,71324,5,10,5,A,72824,6,1,3,A,277524,6,2,4,A,80124,6,3,1,A,59224,6,4,6,B,121424,6,5,5,A,90224,6,6,10,A,98024,6,7,2,B,97424,6,8,8,B,90024,6,9,7,A,81824,6,10,9,B,89824,7,1,7,A,229724,7,2,4,A,105324,7,3,8,B,81624,7,4,2,B,73724,7,5,3,A,58024,7,6,1,A,49524,7,7,10,B,74224,7,8,9,B,89424,7,9,5,A,85024,7,10,6,B,53624,8,1,2,B,161824,8,2,10,B,413224,8,3,7,A,85124,8,4,1,A,74524,8,5,8,B,57724,8,6,5,A,92924,8,7,9,B,89324,8,8,6,B,148824,8,9,4,A,89524,8,10,3,A,276925,1,1,8,B,1156225,1,2,2,A,1197225,1,3,1,A,859925,1,4,9,B,347825,1,5,7,B,914425,1,6,4,A,494725,1,7,6,B,436325,1,8,5,A,582325,1,9,3,A,1176825,1,10,10,B,611325,2,1,4,A,950825,2,2,3,A,732025,2,3,2,A,596525,2,4,10,B,721125,2,5,9,B,460525,2,6,8,B,1661125,2,7,5,A,476625,2,8,1,A,465025,2,9,6,B,500725,2,10,7,B,844525,3,1,8,B,1737325,3,2,7,B,887425,3,3,5,A,816725,3,4,10,B,676325,3,5,6,B,540425,3,6,2,A,842925,3,7,1,A,336225,3,8,4,A,353825,3,9,9,B,353025,3,10,3,A,324025,4,1,5,A,782025,4,2,9,B,461025,4,3,2,A,907625,4,4,3,A,1554225,4,5,1,A,264625,4,6,8,B,660325,4,7,10,B,329425,4,8,6,B,238625,4,9,7,B,672225,4,10,4,A,216625,5,1,10,B,1912525,5,2,6,B,141325,5,3,8,B,527725,5,4,9,B,320625,5,5,2,A,273125,5,6,7,B,404225,5,7,4,A,384625,5,8,3,A,325325,5,9,5,A,173225,5,10,1,A,492125,6,1,4,A,2072825,6,2,9,B,424525,6,3,1,A,229325,6,4,3,A,604625,6,5,7,B,445025,6,6,2,A,208425,6,7,5,A,404325,6,8,8,B,460725,6,9,6,B,280925,6,10,10,B,274425,7,1,3,A,528425,7,2,9,B,349425,7,3,6,B,176625,7,4,2,A,288625,7,5,1,A,152925,7,6,5,A,2343325,7,7,4,A,1461725,7,8,10,B,386325,7,9,8,B,647825,7,10,7,B,468325,8,1,6,B,2104025,8,2,4,A,301625,8,3,7,B,328625,8,4,3,A,356625,8,5,10,B,200625,8,6,1,A,190125,8,7,8,B,440925,8,8,5,A,747925,8,9,9,B,312725,8,10,2,A,281326,1,1,4,A,832926,1,2,5,A,293126,1,3,6,B,157926,1,4,10,B,177126,1,5,1,A,161526,1,6,3,A,117226,1,7,7,A,101826,1,8,2,A,101626,1,9,9,B,161426,1,10,8,B,113226,2,1,4,A,983526,2,2,8,B,102326,2,3,7,A,84926,2,4,2,B,89426,2,5,1,A,77026,2,6,9,B,77526,2,7,5,A,101126,2,8,3,A,101126,2,9,6,B,92826,2,10,10,B,116926,3,1,6,B,189426,3,2,5,A,85026,3,3,7,A,81426,3,4,10,B,89326,3,5,8,B,156826,3,6,4,A,49626,3,7,3,A,41326,3,8,9,B,53426,3,9,2,B,105526,3,10,1,A,89926,4,1,6,B,193826,4,2,1,A,118626,4,3,2,B,113926,4,4,4,A,98126,4,5,5,A,85526,4,6,8,B,138726,4,7,10,B,98026,4,8,7,A,101526,4,9,3,A,105326,4,10,9,B,153526,5,1,2,A,1894226,5,2,1,A,165726,5,3,8,A,168526,5,4,7,B,101426,5,5,9,B,209126,5,6,5,A,109726,5,7,10,B,105326,5,8,4,A,85726,5,9,3,B,86026,5,10,6,B,109226,6,1,1,A,552726,6,2,2,A,129526,6,3,4,A,78026,6,4,3,B,78626,6,5,8,A,68026,6,6,6,B,76926,6,7,10,B,77626,6,8,5,A,208826,6,9,7,B,378026,6,10,9,B,109326,7,1,6,B,284526,7,2,9,B,161926,7,3,7,B,365026,7,4,10,B,388626,7,5,8,A,141226,7,6,4,A,96926,7,7,1,A,97526,7,8,2,A,80926,7,9,5,A,70126,7,10,3,A,97926,8,1,10,B,4479826,8,2,2,A,89426,8,3,7,B,85026,8,4,4,A,81526,8,5,3,B,93526,8,6,6,B,73526,8,7,8,A,69926,8,8,1,A,62526,8,9,9,B,61426,8,10,5,A,65427,1,1,4,A,668127,1,2,3,A,420927,1,3,10,B,696527,1,4,2,A,1436127,1,5,5,A,381127,1,6,1,A,329527,1,7,8,B,444127,1,8,6,B,289027,1,9,7,A,317227,1,10,9,B,321127,2,1,9,B,859927,2,2,10,B,456727,2,3,6,B,360327,2,4,1,A,368827,2,5,4,A,277027,2,6,8,B,317027,2,7,7,A,592427,2,8,3,A,304827,2,9,2,A,252727,2,10,5,A,321327,3,1,7,B,657227,3,2,6,B,317027,3,3,4,A,356727,3,4,3,A,456427,3,5,2,A,788427,3,6,1,A,185627,3,7,8,B,277727,3,8,10,B,288427,3,9,5,A,216827,3,10,9,B,224927,4,1,7,B,1153327,4,2,4,A,209327,4,3,9,B,344427,4,4,10,B,217527,4,5,6,B,201827,4,6,1,A,153627,4,7,3,A,321227,4,8,2,A,241727,4,9,8,B,644327,4,10,5,A,209227,5,1,3,A,269527,5,2,4,A,240827,5,3,8,B,1191427,5,4,2,A,188827,5,5,10,B,181327,5,6,6,B,224927,5,7,5,A,272727,5,8,9,B,153827,5,9,1,A,145727,5,10,7,B,317627,6,1,4,A,860327,6,2,1,A,221527,6,3,3,A,197127,6,4,5,A,181627,6,5,6,B,281027,6,6,10,B,189827,6,7,7,B,388827,6,8,9,B,524427,6,9,2,A,381127,6,10,8,B,341327,7,1,3,A,1066927,7,2,9,B,288927,7,3,8,B,433127,7,4,7,B,373327,7,5,6,B,237127,7,6,5,A,221227,7,7,4,A,256627,7,8,2,B,165127,7,9,1,A,293127,7,10,10,B,220827,8,1,2,A,285227,8,2,8,B,213127,8,3,10,B,197127,8,4,3,A,353027,8,5,4,A,212727,8,6,9,B,213727,8,7,6,B,186727,8,8,7,B,333227,8,9,1,A,193027,8,10,5,A,212928,1,1,10,B,683528,1,2,6,B,300628,1,3,8,B,324428,1,4,5,A,300628,1,5,9,B,129228,1,6,1,A,225328,1,7,4,A,340328,1,8,7,A,316028,1,9,3,A,208828,1,10,2,B,137228,2,1,7,A,236728,2,2,3,A,192528,2,3,10,B,109528,2,4,4,A,121028,2,5,2,B,100628,2,6,9,B,133228,2,7,1,A,121028,2,8,8,B,96928,2,9,5,A,144728,2,10,6,B,81028,3,1,8,B,220628,3,2,3,A,93328,3,3,7,A,145128,3,4,2,B,105028,3,5,9,B,124828,3,6,1,A,316128,3,7,4,A,181228,3,8,10,B,240328,3,9,6,B,232428,3,10,5,A,149328,4,1,10,B,309128,4,2,2,B,926728,4,3,1,A,595228,4,4,5,A,408328,4,5,7,A,391628,4,6,8,B,448428,4,7,9,B,319828,4,8,4,A,241228,4,9,6,B,331928,4,10,3,A,4343328,5,1,1,A,1281328,5,2,9,B,192628,5,3,7,B,400728,5,4,5,A,360428,5,5,6,B,264428,5,6,4,A,281028,5,7,8,B,189428,5,8,10,B,284128,5,9,2,A,472828,5,10,3,A,576028,6,1,1,A,567628,6,2,8,B,515628,6,3,3,A,423728,6,4,10,B,403628,6,5,6,B,403828,6,6,5,A,220528,6,7,4,A,388228,6,8,7,B,372828,6,9,2,A,393628,6,10,9,B,535828,7,1,5,A,504028,7,2,1,A,308128,7,3,3,A,333928,7,4,8,B,604028,7,5,9,B,563328,7,6,2,A,364728,7,7,7,B,297128,7,8,10,B,356528,7,9,4,A,388928,7,10,6,B,288828,8,1,5,A,650928,8,2,9,B,340028,8,3,6,B,330228,8,4,4,A,237028,8,5,10,B,292828,8,6,7,B,404728,8,7,3,A,508528,8,8,8,B,284228,8,9,2,A,380528,8,10,1,A,420229,1,1,7,B,2950629,1,2,3,A,1027529,1,3,5,A,1486429,1,4,1,A,959029,1,5,8,B,520429,1,6,6,B,851229,1,7,9,B,519929,1,8,2,A,476829,1,9,4,A,603729,1,10,10,B,540729,2,1,5,A,784829,2,2,9,B,361129,2,3,1,A,460829,2,4,7,B,396829,2,5,2,A,416729,2,6,6,B,285229,2,7,4,A,380629,2,8,3,A,488429,2,9,8,B,587729,2,10,10,B,368529,3,1,10,B,317029,3,2,1,A,221229,3,3,5,A,289229,3,4,3,A,772229,3,5,4,A,329429,3,6,8,B,393229,3,7,2,A,14752329,3,8,9,B,233529,3,9,6,B,412829,3,10,7,B,253329,4,1,4,A,596229,4,2,8,B,177329,4,3,7,B,325329,4,4,2,A,249029,4,5,9,B,189429,4,6,1,A,236529,4,7,6,B,260629,4,8,5,A,513129,4,9,10,B,264429,4,10,3,A,429129,5,1,9,B,640229,5,2,4,A,568729,5,3,2,A,248729,5,4,8,B,221129,5,5,7,B,156729,5,6,5,A,320529,5,7,3,A,308829,5,8,1,A,197329,5,9,6,B,181429,5,10,10,B,400529,6,1,3,A,608729,6,2,9,B,204629,6,3,7,B,220729,6,4,8,B,193329,6,5,4,A,197129,6,6,10,B,332929,6,7,1,A,177629,6,8,6,B,240829,6,9,5,A,178429,6,10,2,A,241329,7,1,5,A,464729,7,2,10,B,101929,7,3,6,B,105829,7,4,9,B,148729,7,5,2,A,225229,7,6,4,A,134329,7,7,7,B,228629,7,8,8,B,268929,7,9,3,A,241329,7,10,1,A,157629,8,1,10,B,672329,8,2,6,B,148929,8,3,8,B,213329,8,4,4,A,146029,8,5,2,A,304629,8,6,5,A,552929,8,7,3,A,297229,8,8,9,B,141529,8,9,7,B,584129,8,10,1,A,256630,1,1,7,B,311230,1,2,8,B,450530,1,3,1,A,317030,1,4,4,A,428030,1,5,6,B,328830,1,6,2,A,512430,1,7,10,B,503330,1,8,3,A,519330,1,9,5,B,319530,1,10,9,B,288230,2,1,4,A,293130,2,2,7,B,268630,2,3,10,B,424330,2,4,1,A,340830,2,5,3,A,400630,2,6,6,B,356730,2,7,8,B,164730,2,8,5,A,587430,2,9,2,A,404030,2,10,9,B,352430,3,1,3,A,141830,3,2,6,B,173430,3,3,4,A,197130,3,4,7,B,328930,3,5,9,B,372830,3,6,1,A,210530,3,7,2,A,193630,3,8,5,A,376830,3,9,10,B,366230,3,10,8,B,394430,4,1,2,A,943330,4,2,3,A,280630,4,3,1,A,133430,4,4,7,B,376630,4,5,10,B,244530,4,6,6,B,277430,4,7,9,B,233330,4,8,5,A,256930,4,9,8,B,208830,4,10,4,A,257330,5,1,4,A,221330,5,2,1,A,132930,5,3,5,A,196530,5,4,7,B,193630,5,5,8,B,129530,5,6,6,B,236730,5,7,10,B,193830,5,8,2,A,121830,5,9,3,A,121630,5,10,9,B,232830,6,1,3,A,428530,6,2,10,B,324330,6,3,5,A,221230,6,4,2,A,308430,6,5,1,A,96930,6,6,4,A,221130,6,7,9,B,160730,6,8,7,B,142430,6,9,6,B,216930,6,10,8,B,113130,7,1,2,A,381030,7,2,5,A,210330,7,3,8,B,257330,7,4,1,A,85830,7,5,10,B,204530,7,6,7,B,277530,7,7,3,A,120030,7,8,4,A,153230,7,9,6,B,140930,7,10,9,B,261530,8,1,1,A,184830,8,2,3,A,93030,8,3,5,A,117830,8,4,10,B,165130,8,5,9,A,220930,8,6,7,B,217530,8,7,8,B,141930,8,8,2,A,197430,8,9,6,B,189430,8,10,4,A,204831,1,1,9,B,1757331,1,2,3,A,440831,1,3,5,A,289231,1,4,6,B,273331,1,5,7,A,296831,1,6,1,A,288731,1,7,2,B,149131,1,8,8,B,1611531,1,9,10,B,704431,1,10,4,A,3770031,2,1,1,A,780031,2,2,10,B,476831,2,3,3,A,1274431,2,4,4,A,513431,2,5,7,B,432331,2,6,6,B,903531,2,7,2,A,313131,2,8,5,A,404331,2,9,8,B,608431,2,10,9,B,508831,3,1,9,B,5385731,3,2,7,B,325231,3,3,4,A,308931,3,4,1,A,560631,3,5,5,A,1617931,3,6,6,B,647931,3,7,3,A,1028331,3,8,2,A,340831,3,9,8,B,1071631,3,10,10,B,436531,4,1,1,A,1378631,4,2,7,B,261631,4,3,4,A,412731,4,4,2,A,528931,4,5,10,B,388531,4,6,3,A,671831,4,7,8,B,1123631,4,8,5,A,704131,4,9,9,B,1090831,4,10,6,B,580631,5,1,8,B,1694331,5,2,9,B,532131,5,3,5,A,360431,5,4,6,B,304731,5,5,2,A,381431,5,6,7,B,340731,5,7,3,A,404731,5,8,4,A,1950131,5,9,1,A,436431,5,10,10,B,561031,6,1,5,A,800031,6,2,10,B,265331,6,3,6,B,186431,6,4,4,A,289131,6,5,8,B,3048731,6,6,1,A,424331,6,7,9,B,449031,6,8,2,B,8078231,6,9,7,B,544131,6,10,3,A,664131,7,1,1,A,581231,7,2,6,B,297431,7,3,4,A,325331,7,4,8,B,265131,7,5,3,A,632131,7,6,10,B,304631,7,7,2,A,532931,7,8,9,B,708631,7,9,7,B,1829431,7,10,5,A,484831,8,1,10,B,2089131,8,2,2,A,337531,8,3,1,A,269631,8,4,3,A,324831,8,5,9,B,360231,8,6,8,B,496331,8,7,7,B,644431,8,8,5,A,568531,8,9,4,A,680731,8,10,6,B,320732,1,1,10,B,736132,1,2,7,A,209232,1,3,9,B,201732,1,4,5,A,109632,1,5,6,B,105432,1,6,8,B,105832,1,7,3,A,256732,1,8,2,A,576332,1,9,1,A,137732,1,10,4,A,356632,2,1,10,A,1251332,2,2,6,B,165932,2,3,5,B,281032,2,4,7,B,89832,2,5,1,A,77632,2,6,9,B,85032,2,7,4,A,85432,2,8,3,A,94032,2,9,8,B,80932,2,10,2,A,87232,3,1,4,A,309332,3,2,5,B,257532,3,3,6,B,78132,3,4,9,B,81632,3,5,8,B,169432,3,6,10,A,452632,3,7,7,B,69632,3,8,3,A,69332,3,9,1,A,149132,3,10,2,A,109932,4,1,10,A,390032,4,2,7,B,89432,4,3,9,B,102232,4,4,8,B,81032,4,5,1,A,61232,4,6,3,A,57432,4,7,5,B,67132,4,8,6,B,89132,4,9,2,A,62132,4,10,4,A,100932,5,1,10,B,481432,5,2,3,A,121032,5,3,2,A,185832,5,4,8,B,77032,5,5,6,B,97632,5,6,7,B,77332,5,7,5,B,105932,5,8,4,A,89232,5,9,9,B,78232,5,10,1,A,65632,6,1,1,A,201332,6,2,8,B,89332,6,3,6,B,125032,6,4,10,A,65532,6,5,7,B,81932,6,6,4,A,66032,6,7,3,A,73232,6,8,2,A,69632,6,9,9,B,66432,6,10,5,B,93732,7,1,2,A,277132,7,2,7,B,77732,7,3,4,A,65232,7,4,6,B,61932,7,5,5,B,73932,7,6,8,B,84932,7,7,3,A,61532,7,8,10,A,69532,7,9,1,A,81332,7,10,9,B,97432,8,1,2,A,146032,8,2,4,A,69432,8,3,7,B,89032,8,4,6,B,62032,8,5,10,A,97932,8,6,8,B,89532,8,7,3,A,101532,8,8,1,A,149232,8,9,5,A,980432,8,10,9,A,173733,1,1,2,B,954933,1,2,7,A,194233,1,3,8,B,181033,1,4,1,A,193733,1,5,5,A,185533,1,6,6,B,313433,1,7,10,B,194433,1,8,9,B,149233,1,9,3,A,529233,1,10,4,A,440833,2,1,3,A,496833,2,2,10,B,300833,2,3,7,A,516733,2,4,6,B,344633,2,5,9,B,273533,2,6,5,A,234233,2,7,2,B,348633,2,8,8,B,149133,2,9,4,A,110033,2,10,1,A,93533,3,1,6,B,233833,3,2,3,A,90033,3,3,8,B,133533,3,4,1,A,109733,3,5,9,B,117233,3,6,10,B,103033,3,7,7,A,137533,3,8,5,A,121033,3,9,4,A,101833,3,10,2,B,141733,4,1,5,A,149033,4,2,6,B,131133,4,3,2,B,97433,4,4,3,A,166033,4,5,10,B,146133,4,6,4,A,125233,4,7,1,A,133833,4,8,7,A,145733,4,9,8,B,118733,4,10,9,B,147233,5,1,7,A,166333,5,2,10,B,137333,5,3,1,A,117833,5,4,5,A,141133,5,5,9,B,109133,5,6,3,A,106033,5,7,4,A,122933,5,8,8,B,113533,5,9,6,B,117733,5,10,2,B,117133,6,1,4,A,118033,6,2,5,A,89533,6,3,9,B,93533,6,4,2,B,98533,6,5,1,A,118033,6,6,10,B,106533,6,7,6,B,121533,6,8,7,A,78633,6,9,8,B,85033,6,10,3,A,81733,7,1,2,B,185833,7,2,1,A,153933,7,3,5,A,125933,7,4,4,A,117133,7,5,8,B,97833,7,6,3,A,81333,7,7,10,B,97133,7,8,7,A,73933,7,9,6,B,81033,7,10,9,B,104933,8,1,9,B,93533,8,2,4,A,101633,8,3,3,A,85533,8,4,7,A,90033,8,5,1,A,229533,8,6,5,A,141833,8,7,10,B,101733,8,8,2,B,73733,8,9,8,B,73933,8,10,6,B,65934,1,1,8,B,1658834,1,2,9,B,633234,1,3,3,A,665334,1,4,4,A,840034,1,5,2,A,1231534,1,6,1,A,652334,1,7,6,B,688034,1,8,5,A,2777134,1,9,7,B,580834,1,10,10,B,1239534,2,1,3,A,904134,2,2,4,A,504434,2,3,7,B,2972634,2,4,1,A,501134,2,5,8,B,832534,2,6,5,A,919934,2,7,6,B,2373734,2,8,2,A,544234,2,9,9,B,242034,2,10,10,B,477234,3,1,8,B,1486934,3,2,1,A,249834,3,3,7,B,432934,3,4,6,B,493434,3,5,2,A,280834,3,6,9,B,339534,3,7,10,B,434134,3,8,3,A,202734,3,9,5,A,528634,3,10,4,A,588334,4,1,10,B,876534,4,2,5,A,429034,4,3,4,A,449434,4,4,9,B,265634,4,5,7,B,321734,4,6,6,B,201434,4,7,8,B,3495434,4,8,2,A,337134,4,9,1,A,137534,4,10,3,A,384634,5,1,10,B,249834,5,2,8,B,1179534,5,3,7,B,269834,5,4,2,A,193234,5,5,6,B,201134,5,6,5,A,141034,5,7,9,B,670134,5,8,3,A,601234,5,9,4,A,277634,5,10,1,A,170034,6,1,1,A,1295534,6,2,10,B,369034,6,3,2,A,225534,6,4,3,A,470034,6,5,6,B,508734,6,6,8,B,221034,6,7,5,A,257934,6,8,7,B,424834,6,9,9,B,3680034,6,10,4,A,285234,7,1,8,B,399034,7,2,1,A,133234,7,3,4,A,205034,7,4,10,B,237234,7,5,6,B,125734,7,6,5,A,105034,7,7,9,B,121634,7,8,7,B,201134,7,9,2,A,196934,7,10,3,B,129534,8,1,4,A,1056134,8,2,9,B,158134,8,3,8,B,401434,8,4,1,A,420434,8,5,3,A,340834,8,6,5,A,237634,8,7,7,B,277934,8,8,10,B,348834,8,9,6,B,217234,8,10,2,A,201735,1,1,6,B,2082935,1,2,3,A,408535,1,3,1,A,628135,1,4,2,A,2034635,1,5,8,B,1003735,1,6,7,B,1247535,1,7,5,A,1004435,1,8,4,A,688135,1,9,10,B,856435,1,10,9,B,700635,2,1,2,A,2844935,2,2,1,A,1031435,2,3,9,B,1387135,2,4,3,A,768035,2,5,8,B,1157935,2,6,4,A,575535,2,7,5,A,397735,2,8,7,B,1292035,2,9,6,B,1299635,2,10,10,B,856835,3,1,1,A,532735,3,2,10,B,281335,3,3,7,B,848135,3,4,6,B,864135,3,5,9,B,368635,3,6,5,A,381835,3,7,4,A,640635,3,8,8,B,377735,3,9,2,A,292835,3,10,3,A,493435,4,1,5,A,421535,4,2,8,B,400735,4,3,3,A,357235,4,4,2,A,544935,4,5,9,B,1027635,4,6,7,B,908535,4,7,4,A,241835,4,8,1,A,193435,4,9,10,B,437135,4,10,6,B,536635,5,1,10,B,493135,5,2,9,B,276835,5,3,4,A,213135,5,4,6,B,316835,5,5,2,A,564535,5,6,3,A,417235,5,7,5,A,489035,5,8,1,A,265435,5,9,8,B,293235,5,10,7,B,1151735,6,1,10,B,293235,6,2,1,A,241835,6,3,4,A,960335,6,4,5,A,433535,6,5,2,A,809135,6,6,7,B,508535,6,7,3,A,352735,6,8,8,B,370335,6,9,9,B,545235,6,10,6,B,740135,7,1,1,A,453435,7,2,5,A,193235,7,3,4,A,205135,7,4,6,B,153535,7,5,2,A,265335,7,6,3,A,864435,7,7,10,B,377035,7,8,7,B,488735,7,9,8,B,836235,7,10,9,B,1187435,8,1,3,A,553535,8,2,1,A,221035,8,3,4,A,406535,8,4,8,B,964135,8,5,5,A,381835,8,6,6,B,381135,8,7,7,B,429335,8,8,9,B,293735,8,9,2,A,373235,8,10,10,B,572436,1,1,6,B,3873636,1,2,2,B,454536,1,3,1,A,479436,1,4,10,B,464436,1,5,7,A,371336,1,6,9,B,1208436,1,7,8,B,1521836,1,8,4,A,833836,1,9,5,A,819336,1,10,3,A,958936,2,1,7,B,1247836,2,2,6,B,541736,2,3,3,A,649836,2,4,9,B,710536,2,5,2,A,468136,2,6,5,A,969536,2,7,4,A,377436,2,8,1,A,767936,2,9,8,B,1610936,2,10,10,B,847836,3,1,3,A,1499436,3,2,2,A,1074036,3,3,1,A,621236,3,4,4,A,485836,3,5,10,B,529736,3,6,6,B,688136,3,7,8,B,564736,3,8,9,B,477336,3,9,5,A,721236,3,10,7,B,676236,4,1,2,A,609736,4,2,8,B,960236,4,3,9,B,582336,4,4,1,A,520736,4,5,7,B,738036,4,6,3,A,819636,4,7,5,A,949536,4,8,10,B,811036,4,9,6,B,641836,4,10,4,A,747336,5,1,2,A,825736,5,2,8,B,1140936,5,3,9,B,456636,5,4,6,B,576436,5,5,4,A,430636,5,6,5,A,566036,5,7,10,B,518736,5,8,7,B,900736,5,9,3,A,1176536,5,10,1,A,470536,6,1,10,B,622836,6,2,2,A,876736,6,3,5,A,886836,6,4,8,B,745436,6,5,7,B,727936,6,6,3,A,908436,6,7,6,B,446636,6,8,4,A,847536,6,9,9,B,728636,6,10,1,A,376536,7,1,6,B,1109036,7,2,3,A,411836,7,3,10,B,514536,7,4,7,B,687436,7,5,1,A,725336,7,6,2,A,662036,7,7,4,A,477336,7,8,5,A,652536,7,9,8,B,595336,7,10,9,B,490136,8,1,3,A,733236,8,2,5,A,461736,8,3,2,A,505736,8,4,7,B,509036,8,5,9,B,999036,8,6,6,B,568136,8,7,10,B,900636,8,8,8,B,856536,8,9,4,A,456236,8,10,1,A,505437,1,1,10,B,738337,1,2,9,B,271137,1,3,8,B,224237,1,4,4,A,180737,1,5,3,A,102937,1,6,2,B,129537,1,7,1,A,103937,1,8,6,B,191637,1,9,5,A,68037,1,10,7,A,70037,2,1,2,A,713637,2,2,7,A,460937,2,3,10,B,251937,2,4,6,B,453937,2,5,3,A,208437,2,6,5,B,619237,2,7,8,B,145937,2,8,1,A,137937,2,9,4,A,174937,2,10,9,B,260737,3,1,10,B,367937,3,2,6,B,98737,3,3,1,A,70337,3,4,9,B,85437,3,5,8,B,107137,3,6,4,A,92837,3,7,7,A,120737,3,8,2,A,118637,3,9,3,A,123237,3,10,5,A,165037,4,1,10,B,197037,4,2,2,A,627837,4,3,9,B,132037,4,4,6,B,75137,4,5,8,A,65737,4,6,7,B,72137,4,7,3,B,196637,4,8,5,A,88337,4,9,4,A,73737,4,10,1,A,81637,5,1,9,B,267637,5,2,2,B,149637,5,3,8,A,73637,5,4,4,A,70337,5,5,5,A,64737,5,6,6,B,72437,5,7,7,B,85037,5,8,1,A,58337,5,9,3,B,82337,5,10,10,B,125637,6,1,7,B,147437,6,2,9,B,770037,6,3,10,B,171537,6,4,5,A,152737,6,5,3,B,158837,6,6,4,A,140737,6,7,1,A,70837,6,8,6,B,87937,6,9,2,A,65237,6,10,8,A,117637,7,1,5,A,334837,7,2,10,B,97437,7,3,2,A,59037,7,4,9,B,89837,7,5,4,A,75237,7,6,3,B,75737,7,7,1,A,87137,7,8,7,B,86637,7,9,8,A,73237,7,10,6,B,108037,8,1,4,A,197637,8,2,8,A,95937,8,3,5,A,71237,8,4,2,A,91637,8,5,10,B,77537,8,6,3,B,172737,8,7,1,A,96437,8,8,7,B,150437,8,9,6,B,146537,8,10,9,B,101838,1,1,4,A,595238,1,2,6,B,385838,1,3,3,A,160238,1,4,2,B,203138,1,5,8,B,555438,1,6,5,A,528338,1,7,9,B,157038,1,8,1,A,75838,1,9,7,A,128938,1,10,10,B,165438,2,1,2,B,828738,2,2,7,A,560438,2,3,6,B,224238,2,4,10,B,175938,2,5,9,B,278138,2,6,3,A,70838,2,7,1,A,78338,2,8,4,A,98238,2,9,5,A,64738,2,10,8,B,78738,3,1,5,A,713838,3,2,10,B,253038,3,3,3,A,162338,3,4,9,A,264638,3,5,8,B,115538,3,6,6,B,101638,3,7,7,B,196738,3,8,2,A,118938,3,9,4,B,129538,3,10,1,A,94338,4,1,2,A,316038,4,2,10,B,145138,4,3,8,B,141738,4,4,6,B,86638,4,5,4,B,76238,4,6,9,A,84638,4,7,7,B,70838,4,8,5,A,59138,4,9,1,A,64238,4,10,3,A,55938,5,1,6,B,750738,5,2,7,B,2219138,5,3,5,B,174638,5,4,8,B,82838,5,5,2,A,107138,5,6,3,A,113838,5,7,9,B,81838,5,8,4,A,81838,5,9,10,A,67438,5,10,1,A,105938,6,1,7,B,205638,6,2,1,A,71938,6,3,6,B,93938,6,4,3,A,94938,6,5,5,B,86438,6,6,4,A,55038,6,7,9,B,80238,6,8,8,B,121238,6,9,2,A,79938,6,10,10,A,374138,7,1,10,B,337538,7,2,4,A,65438,7,3,6,B,71838,7,4,3,A,68138,7,5,7,A,70438,7,6,2,B,101638,7,7,5,A,65438,7,8,8,B,60638,7,9,1,A,53238,7,10,9,B,69838,8,1,3,A,555338,8,2,9,B,80338,8,3,1,A,62538,8,4,6,B,68138,8,5,10,B,71838,8,6,2,B,63538,8,7,8,B,53338,8,8,7,A,95538,8,9,5,A,80738,8,10,4,A,74039,1,1,10,B,1179239,1,2,1,A,264339,1,3,6,B,694339,1,4,9,B,2221839,1,5,5,A,445339,1,6,4,B,760039,1,7,7,B,763239,1,8,3,A,1530139,1,9,8,B,810339,1,10,2,A,708239,2,1,9,B,454439,2,2,6,B,263239,2,3,4,A,350739,2,4,7,B,340639,2,5,8,B,1397039,2,6,2,A,296739,2,7,1,A,302939,2,8,3,A,319939,2,9,10,B,729339,2,10,5,A,222239,3,1,6,B,440539,3,2,1,A,165139,3,3,7,B,506439,3,4,8,B,762339,3,5,3,B,1184739,3,6,5,A,1392639,3,7,2,A,632339,3,8,10,B,540839,3,9,9,B,717439,3,10,4,A,390139,4,1,8,B,341539,4,2,10,B,443139,4,3,9,B,758639,4,4,6,B,223739,4,5,1,A,357639,4,6,2,A,276839,4,7,7,B,475839,4,8,5,A,1140039,4,9,3,A,793339,4,10,4,A,241339,5,1,9,B,266939,5,2,2,A,220839,5,3,1,A,157339,5,4,7,B,281439,5,5,10,B,196539,5,6,3,A,374739,5,7,6,B,236539,5,8,4,A,341039,5,9,5,A,341539,5,10,8,B,441539,6,1,2,A,274139,6,2,8,B,242139,6,3,9,B,826239,6,4,6,B,267739,6,5,4,A,1200739,6,6,1,A,198939,6,7,10,B,364739,6,8,5,A,362139,6,9,7,B,592639,6,10,3,A,758739,7,1,5,A,488239,7,2,1,A,129639,7,3,4,A,278439,7,4,9,B,405539,7,5,10,B,267139,7,6,2,A,184239,7,7,8,B,712039,7,8,6,B,270139,7,9,7,B,640639,7,10,3,A,344239,8,1,10,B,211239,8,2,2,A,286739,8,3,5,A,231739,8,4,4,A,485539,8,5,9,B,887939,8,6,8,B,326239,8,7,6,B,221339,8,8,1,A,234839,8,9,7,B,291139,8,10,3,A,173040,1,1,10,B,575040,1,2,4,A,316740,1,3,9,B,222940,1,4,8,B,179240,1,5,6,B,222640,1,6,3,A,220540,1,7,5,A,158640,1,8,7,A,138940,1,9,1,A,118440,1,10,2,B,152840,2,1,10,B,4208340,2,2,7,A,105540,2,3,1,A,76840,2,4,3,A,69340,2,5,9,B,79840,2,6,6,B,82440,2,7,2,B,82440,2,8,4,A,84040,2,9,8,B,108540,2,10,5,A,83440,3,1,5,A,176140,3,2,9,B,113240,3,3,3,A,92540,3,4,8,B,75440,3,5,7,A,69240,3,6,4,A,95740,3,7,1,A,199240,3,8,2,B,7110640,3,9,10,B,100540,3,10,6,B,182540,4,1,5,A,325340,4,2,3,A,140540,4,3,10,B,153740,4,4,2,B,115340,4,5,8,B,122140,4,6,1,A,111040,4,7,9,B,87940,4,8,7,A,138940,4,9,6,B,75240,4,10,4,A,86540,5,1,1,A,122940,5,2,9,B,57540,5,3,3,A,65640,5,4,5,A,65640,5,5,4,A,64040,5,6,10,B,63840,5,7,7,A,66340,5,8,8,B,64840,5,9,2,B,99740,5,10,6,B,64940,6,1,7,A,107240,6,2,9,B,73940,6,3,6,B,94640,6,4,10,B,71840,6,5,4,A,68040,6,6,1,A,74940,6,7,3,A,73740,6,8,8,B,99240,6,9,5,A,86640,6,10,2,B,95740,7,1,8,B,76540,7,2,7,A,81940,7,3,1,A,62640,7,4,10,B,58940,7,5,6,B,68840,7,6,4,A,61340,7,7,9,B,79740,7,8,2,B,55340,7,9,5,A,85040,7,10,3,A,85740,8,1,9,B,114040,8,2,4,A,70940,8,3,10,B,67240,8,4,7,A,61140,8,5,5,A,63240,8,6,6,B,72340,8,7,8,B,145640,8,8,2,B,134440,8,9,1,A,68040,8,10,3,A,70141,1,1,4,A,684741,1,2,1,A,386141,1,3,7,A,151041,1,4,8,B,204841,1,5,6,B,107741,1,6,3,A,132041,1,7,9,B,201441,1,8,5,A,148541,1,9,2,B,339441,1,10,10,B,149341,2,1,9,B,435441,2,2,4,A,210141,2,3,8,B,152541,2,4,5,A,69141,2,5,1,A,88841,2,6,6,B,123741,2,7,7,A,189541,2,8,2,B,97541,2,9,3,A,150341,2,10,10,B,88741,3,1,8,B,571941,3,2,10,B,108541,3,3,2,B,117041,3,4,6,B,135141,3,5,3,A,411541,3,6,4,A,64541,3,7,5,A,56341,3,8,7,A,39941,3,9,9,B,137441,3,10,1,A,111841,4,1,8,B,168841,4,2,6,B,507641,4,3,9,B,123941,4,4,7,A,83041,4,5,5,A,39941,4,6,1,A,46141,4,7,4,A,34141,4,8,10,B,48541,4,9,3,A,102741,4,10,2,B,60641,5,1,2,B,259441,5,2,1,A,47041,5,3,6,B,54441,5,4,4,A,42341,5,5,5,A,59941,5,6,10,B,51041,5,7,8,B,67141,5,8,3,A,192241,5,9,9,B,52841,5,10,7,A,231041,6,1,10,B,253041,6,2,9,B,66441,6,3,5,A,1440741,6,4,2,B,216641,6,5,7,A,373141,6,6,6,B,194341,6,7,3,A,114441,6,8,8,B,128741,6,9,1,A,181441,6,10,4,B,60541,7,1,9,B,235141,7,2,6,B,93041,7,3,3,A,173541,7,4,1,A,67241,7,5,8,B,81841,7,6,7,A,101141,7,7,4,A,79141,7,8,2,B,77141,7,9,10,B,88741,7,10,5,A,85341,8,1,4,A,769441,8,2,8,B,188641,8,3,2,B,395541,8,4,3,A,117441,8,5,10,B,106941,8,6,9,B,137541,8,7,5,A,152041,8,8,7,A,95841,8,9,6,B,234341,8,10,1,A,82442,1,1,2,B,334142,1,2,7,A,346242,1,3,10,B,268242,1,4,6,B,147042,1,5,1,A,195442,1,6,5,A,146342,1,7,3,A,108142,1,8,8,B,161442,1,9,4,A,478342,1,10,9,B,188442,2,1,9,B,192642,2,2,6,B,109242,2,3,10,B,100142,2,4,4,A,251042,2,5,3,A,109042,2,6,5,A,114242,2,7,8,B,125542,2,8,1,A,126242,2,9,7,A,130242,2,10,2,B,91842,3,1,8,B,158642,3,2,1,A,153342,3,3,3,A,190142,3,4,7,A,58142,3,5,9,B,78942,3,6,4,A,86342,3,7,10,B,95042,3,8,5,A,78542,3,9,2,B,85742,3,10,6,B,89842,4,1,9,B,247442,4,2,4,A,78942,4,3,2,B,137442,4,4,6,B,68742,4,5,3,A,75642,4,6,8,B,66342,4,7,5,A,77442,4,8,1,A,75142,4,9,10,B,78642,4,10,7,A,113342,5,1,10,B,263442,5,2,5,A,74142,5,3,6,B,110842,5,4,8,B,81542,5,5,7,A,71942,5,6,4,A,98942,5,7,1,A,78342,5,8,2,B,63042,5,9,9,B,181042,5,10,3,A,115942,6,1,3,A,243942,6,2,4,A,102042,6,3,9,B,75642,6,4,1,A,61442,6,5,2,B,103842,6,6,6,B,100142,6,7,7,A,68742,6,8,5,A,62842,6,9,8,B,68642,6,10,10,B,77242,7,1,3,A,155142,7,2,2,B,84942,7,3,5,A,80742,7,4,8,B,123742,7,5,4,A,66342,7,6,6,B,64742,7,7,1,A,75742,7,8,10,B,90342,7,9,9,B,99842,7,10,7,A,72942,8,1,4,A,450642,8,2,3,A,82942,8,3,7,A,67042,8,4,6,B,52942,8,5,5,A,58442,8,6,10,B,48642,8,7,2,B,58142,8,8,8,B,78842,8,9,9,B,91042,8,10,1,A,72243,1,1,5,A,1230243,1,2,8,B,666543,1,3,6,B,460043,1,4,7,B,630343,1,5,3,A,343943,1,6,10,B,567543,1,7,9,B,802443,1,8,1,A,347943,1,9,4,A,343943,1,10,2,A,483043,2,1,4,A,466043,2,2,1,A,274043,2,3,7,B,251543,2,4,10,B,538343,2,5,8,B,479043,2,6,2,A,475343,2,7,9,B,245243,2,8,3,A,240843,2,9,6,B,307843,2,10,5,A,280843,3,1,3,A,556143,3,2,2,A,286243,3,3,10,B,658243,3,4,4,A,312643,3,5,9,B,278743,3,6,1,A,316643,3,7,7,B,197243,3,8,6,B,204043,3,9,8,B,401443,3,10,5,A,361443,4,1,6,B,302143,4,2,4,A,504743,4,3,3,A,225943,4,4,7,B,310643,4,5,1,A,137443,4,6,5,A,306943,4,7,10,B,224043,4,8,8,B,363143,4,9,9,B,182443,4,10,2,A,218543,5,1,4,A,300743,5,2,3,A,221143,5,3,6,B,180043,5,4,1,A,126143,5,5,5,A,462943,5,6,10,B,195143,5,7,2,A,186043,5,8,9,B,139643,5,9,7,B,365443,5,10,8,B,324643,6,1,9,B,300843,6,2,3,A,239143,6,3,8,B,134543,6,4,10,B,271243,6,5,4,A,134743,6,6,1,A,116543,6,7,7,B,552443,6,8,5,A,302443,6,9,2,A,292043,6,10,6,B,265443,7,1,2,A,214443,7,2,9,B,178443,7,3,5,A,228143,7,4,4,A,123043,7,5,8,B,1307243,7,6,7,B,256243,7,7,3,A,316943,7,8,1,A,199043,7,9,6,B,272143,7,10,10,B,431743,8,1,3,A,258243,8,2,7,B,245543,8,3,9,B,246343,8,4,10,B,202343,8,5,4,A,138143,8,6,1,A,155943,8,7,8,B,735243,8,8,6,B,139643,8,9,2,A,254943,8,10,5,A,300944,1,1,10,A,1292644,1,2,5,B,288544,1,3,3,A,189344,1,4,7,B,187344,1,5,8,B,86944,1,6,9,B,85244,1,7,1,A,77644,1,8,4,A,115444,1,9,2,A,115944,1,10,6,B,84544,2,1,3,A,581344,2,2,6,B,871744,2,3,2,B,146444,2,4,8,B,106544,2,5,9,B,58444,2,6,5,A,75944,2,7,4,A,54244,2,8,1,A,99744,2,9,10,B,327244,2,10,7,A,64444,3,1,2,A,1086844,3,2,3,A,87844,3,3,9,B,56844,3,4,10,A,32644,3,5,8,B,58044,3,6,1,A,53244,3,7,6,B,50344,3,8,4,A,40944,3,9,5,B,51644,3,10,7,B,58544,4,1,4,B,742144,4,2,3,A,205344,4,3,6,B,106944,4,4,5,A,51344,4,5,10,B,83444,4,6,2,A,59744,4,7,8,B,100044,4,8,1,A,71644,4,9,9,A,111244,4,10,7,B,145844,5,1,6,B,1269344,5,2,7,B,97444,5,3,2,A,98944,5,4,5,A,70544,5,5,3,A,69744,5,6,9,A,60844,5,7,10,B,99744,5,8,4,B,143244,5,9,1,A,134744,5,10,8,B,1361244,6,1,9,B,254844,6,2,4,A,54244,6,3,1,A,94944,6,4,7,B,102444,6,5,5,A,80844,6,6,3,B,83844,6,7,10,B,66544,6,8,2,A,56844,6,9,6,B,86844,6,10,8,A,76744,7,1,3,B,2656444,7,2,2,A,374744,7,3,9,B,142144,7,4,7,B,286944,7,5,1,A,86544,7,6,8,A,322344,7,7,5,A,103144,7,8,4,A,118744,7,9,10,B,174144,7,10,6,B,128544,8,1,3,B,477244,8,2,10,B,255344,8,3,6,B,80444,8,4,5,A,73644,8,5,2,A,76844,8,6,7,B,109344,8,7,1,A,62244,8,8,8,A,93244,8,9,9,B,74844,8,10,4,A,78445,1,1,2,A,1162345,1,2,1,A,607245,1,3,8,A,1081945,1,4,10,B,227445,1,5,7,B,90045,1,6,5,A,293245,1,7,3,B,882945,1,8,6,B,132945,1,9,9,B,80545,1,10,4,A,155445,2,1,4,A,451045,2,2,9,B,380845,2,3,2,A,678845,2,4,3,B,196845,2,5,10,B,205345,2,6,5,A,182245,2,7,6,B,494945,2,8,1,A,380845,2,9,7,B,237445,2,10,8,A,580545,3,1,1,A,340045,3,2,2,A,134045,3,3,4,A,243745,3,4,8,A,234445,3,5,6,B,184745,3,6,5,A,261345,3,7,3,B,1183745,3,8,9,B,138445,3,9,10,B,117645,3,10,7,B,60945,4,1,6,B,4879845,4,2,2,A,133745,4,3,9,B,124845,4,4,5,A,70945,4,5,7,B,64045,4,6,1,A,143645,4,7,3,B,93645,4,8,10,B,169645,4,9,4,A,59245,4,10,8,A,285245,5,1,4,A,215745,5,2,2,A,125645,5,3,3,B,65745,5,4,8,A,142445,5,5,5,A,128945,5,6,9,B,93245,5,7,7,B,65445,5,8,10,B,60545,5,9,1,A,64345,5,10,6,B,57645,6,1,7,B,254845,6,2,4,A,185545,6,3,5,A,160145,6,4,1,A,110145,6,5,8,A,48645,6,6,9,B,115245,6,7,3,B,354145,6,8,2,A,85345,6,9,6,B,127545,6,10,10,B,84045,7,1,8,A,90145,7,2,7,B,74145,7,3,9,B,106245,7,4,10,B,102945,7,5,3,B,59245,7,6,6,B,64445,7,7,2,A,65645,7,8,1,A,64045,7,9,5,A,215845,7,10,4,A,69745,8,1,5,A,157245,8,2,4,A,53645,8,3,7,B,54445,8,4,9,B,68045,8,5,1,A,65445,8,6,10,B,84645,8,7,8,A,62845,8,8,2,A,82945,8,9,6,B,145645,8,10,3,B,76746,1,1,6,B,847146,1,2,5,A,314846,1,3,9,B,164846,1,4,4,A,162846,1,5,10,B,184846,1,6,2,B,188846,1,7,7,A,220546,1,8,1,A,169246,1,9,3,A,169746,1,10,8,B,285546,2,1,10,B,727346,2,2,3,A,172346,2,3,6,B,192346,2,4,1,A,129846,2,5,4,A,138546,2,6,5,A,207946,2,7,9,B,168546,2,8,7,A,181046,2,9,8,B,211646,2,10,2,B,121046,3,1,2,B,365846,3,2,5,A,173146,3,3,9,B,162546,3,4,7,A,176446,3,5,10,B,102446,3,6,8,B,2310046,3,7,1,A,224146,3,8,4,A,2212346,3,9,3,A,388746,3,10,6,B,326646,4,1,9,B,1610946,4,2,3,A,2036246,4,3,6,B,844346,4,4,10,B,3073546,4,5,5,A,547346,4,6,2,A,857446,4,7,4,A,412846,4,8,7,B,1254546,4,9,1,A,318046,4,10,8,B,237446,5,1,8,B,6413146,5,2,2,A,444246,5,3,1,A,106146,5,4,10,A,531146,5,5,7,B,232146,5,6,4,A,137446,5,7,3,A,282846,5,8,5,B,201046,5,9,9,B,294346,5,10,6,B,109446,6,1,9,B,4343346,6,2,5,A,1819646,6,3,1,A,358746,6,4,3,A,436946,6,5,2,A,749946,6,6,8,B,621546,6,7,7,B,809746,6,8,4,A,248046,6,9,6,B,235646,6,10,10,B,915046,7,1,1,A,1052446,7,2,5,A,925146,7,3,6,B,498946,7,4,8,B,685046,7,5,10,B,471346,7,6,7,B,810046,7,7,3,A,526046,7,8,9,B,358246,7,9,2,A,494446,7,10,4,A,502746,8,1,9,B,743446,8,2,8,B,1536046,8,3,2,A,487846,8,4,1,A,526446,8,5,7,B,380846,8,6,10,B,704246,8,7,3,A,251646,8,8,5,A,616546,8,9,6,B,609646,8,10,4,A,279247,1,1,2,B,912747,1,2,8,B,384947,1,3,1,A,211747,1,4,5,A,322947,1,5,9,B,121847,1,6,3,A,161547,1,7,10,B,149347,1,8,7,A,200347,1,9,4,A,169147,1,10,6,B,188347,2,1,1,A,644947,2,2,9,B,1077047,2,3,10,B,530747,2,4,2,B,126947,2,5,6,B,114147,2,6,5,A,212747,2,7,8,B,87147,2,8,4,A,133747,2,9,7,A,196747,2,10,3,A,448747,3,1,7,B,1231347,3,2,10,B,526547,3,3,6,B,397147,3,4,2,A,200147,3,5,3,A,141647,3,6,1,A,117847,3,7,5,A,78847,3,8,4,B,86547,3,9,9,A,82147,3,10,8,B,90947,4,1,10,B,1479247,4,2,1,A,196247,4,3,7,B,90547,4,4,5,A,105747,4,5,3,B,78647,4,6,6,B,74347,4,7,2,A,71547,4,8,9,B,75247,4,9,4,A,79047,4,10,8,A,228147,5,1,3,A,1176147,5,2,9,B,672847,5,3,5,B,164647,5,4,10,A,590247,5,5,4,A,125447,5,6,8,B,82447,5,7,1,A,97647,5,8,6,B,114047,5,9,2,A,83147,5,10,7,B,82547,6,1,5,A,2193947,6,2,1,A,692247,6,3,6,B,310847,6,4,3,A,236147,6,5,4,A,1360247,6,6,9,B,472547,6,7,7,A,311247,6,8,2,B,248047,6,9,8,B,298647,6,10,10,B,196547,7,1,5,A,1667647,7,2,9,B,1639947,7,3,2,B,385847,7,4,3,A,271847,7,5,1,A,298447,7,6,8,B,121447,7,7,7,A,239847,7,8,6,B,105647,7,9,4,A,299047,7,10,10,B,298947,8,1,9,B,1632547,8,2,4,A,180647,8,3,8,A,452747,8,4,5,A,98847,8,5,3,B,78647,8,6,2,A,74447,8,7,6,B,81947,8,8,10,B,126547,8,9,1,A,160547,8,10,7,B,82748,1,1,2,B,726948,1,2,3,A,209948,1,3,4,A,286948,1,4,8,B,184348,1,5,6,B,204748,1,6,10,B,874448,1,7,1,A,207148,1,8,9,B,314048,1,9,5,A,210748,1,10,7,A,197048,2,1,10,B,543448,2,2,2,B,1032548,2,3,3,A,289948,2,4,8,B,225848,2,5,5,A,953848,2,6,7,A,229148,2,7,6,B,146448,2,8,4,A,157548,2,9,9,B,110348,2,10,1,A,184648,3,1,10,B,440448,3,2,4,B,256248,3,3,7,B,151948,3,4,5,A,116348,3,5,9,A,60748,3,6,3,A,150848,3,7,2,A,105648,3,8,8,B,89548,3,9,6,B,83148,3,10,1,A,72348,4,1,6,B,343948,4,2,4,A,105248,4,3,9,B,69848,4,4,3,A,70748,4,5,10,A,135548,4,6,2,B,45548,4,7,1,A,57648,4,8,7,B,57548,4,9,5,A,78448,4,10,8,B,154248,5,1,10,B,488748,5,2,4,A,80348,5,3,7,B,30648,5,4,9,A,36548,5,5,1,A,83448,5,6,2,A,54848,5,7,8,A,46448,5,8,3,B,47248,5,9,5,A,57948,5,10,6,B,59548,6,1,6,B,1847148,6,2,5,A,59448,6,3,4,A,51748,6,4,10,B,74448,6,5,2,A,56848,6,6,7,B,78848,6,7,9,B,43148,6,8,8,A,56348,6,9,1,A,124848,6,10,3,B,70848,7,1,6,B,1526748,7,2,3,A,79748,7,3,7,B,58348,7,4,10,B,115948,7,5,8,B,89348,7,6,1,A,95648,7,7,2,A,58348,7,8,4,B,63248,7,9,9,A,89848,7,10,5,A,73948,8,1,3,A,1584248,8,2,4,B,35048,8,3,6,B,110648,8,4,2,A,57348,8,5,7,B,86148,8,6,5,B,123748,8,7,8,B,72748,8,8,9,B,90148,8,9,10,A,136548,8,10,1,A,62649,1,1,7,B,1449849,1,2,4,A,459649,1,3,9,B,228449,1,4,10,B,368449,1,5,6,B,240049,1,6,8,A,203149,1,7,5,A,190849,1,8,3,B,107349,1,9,1,A,346049,1,10,2,A,138149,2,1,7,B,632449,2,2,8,B,307349,2,3,6,B,165249,2,4,9,B,405749,2,5,1,A,403349,2,6,3,A,331549,2,7,10,B,533649,2,8,5,A,156649,2,9,4,A,157249,2,10,2,A,1006049,3,1,3,A,1226349,3,2,5,A,408749,3,3,10,B,224349,3,4,8,A,347349,3,5,2,A,326749,3,6,1,A,225649,3,7,9,B,300749,3,8,4,A,134749,3,9,7,B,404749,3,10,6,B,203549,4,1,2,A,837149,4,2,10,B,520949,4,3,4,A,223149,4,4,3,B,451249,4,5,6,B,141249,4,6,9,B,135449,4,7,5,A,88449,4,8,1,A,110549,4,9,8,A,263349,4,10,7,B,93249,5,1,7,B,194549,5,2,5,A,108049,5,3,3,B,84749,5,4,10,B,146149,5,5,8,A,120349,5,6,9,B,89649,5,7,2,A,105749,5,8,4,A,94649,5,9,1,A,326049,5,10,6,B,85049,6,1,10,B,151949,6,2,7,B,81049,6,3,2,A,74349,6,4,4,A,93549,6,5,5,A,65549,6,6,9,B,83149,6,7,8,A,177649,6,8,1,A,200049,6,9,6,B,108749,6,10,3,B,161949,7,1,7,B,133749,7,2,8,A,129649,7,3,1,A,110549,7,4,9,B,84149,7,5,3,B,71949,7,6,10,B,86049,7,7,6,B,102949,7,8,4,B,83249,7,9,5,A,120149,7,10,2,A,94449,8,1,6,B,272049,8,2,3,B,314849,8,3,5,A,95949,8,4,10,B,76149,8,5,9,B,292749,8,6,8,A,80349,8,7,1,A,73749,8,8,2,A,137749,8,9,7,B,86649,8,10,4,A,987