"date"	"subj"	"phase"	"blk"	"trial"	"stimtype"	"stim"	"trialtype"	"acc"	"resp"	"rt"
"03-13-2014"	28001	1	1	1	"A"	"A.bmp"	"L+"	1	"c"	7757
"03-13-2014"	28001	1	1	2	"AB"	"AB.bmp"	"R+"	1	"m"	5322
"03-13-2014"	28001	1	1	3	"BA"	"BA.bmp"	"R+"	1	"m"	4294
"03-13-2014"	28001	1	1	4	"B"	"B.bmp"	"L+"	1	"c"	2503
"03-13-2014"	28001	1	1	5	"AB"	"AB.bmp"	"R+"	0	"c"	1765
"03-13-2014"	28001	1	1	6	"B"	"B.bmp"	"L+"	0	"m"	1324
"03-13-2014"	28001	1	1	7	"BA"	"BA.bmp"	"R+"	0	"c"	2398
"03-13-2014"	28001	1	1	8	"A"	"A.bmp"	"L+"	1	"c"	5243
"03-13-2014"	28001	1	1	9	"AB"	"AB.bmp"	"R+"	1	"m"	1979
"03-13-2014"	28001	1	1	10	"A"	"A.bmp"	"L+"	1	"c"	1430
"03-13-2014"	28001	1	1	11	"BA"	"BA.bmp"	"R+"	1	"m"	1781
"03-13-2014"	28001	1	1	12	"B"	"B.bmp"	"L+"	1	"c"	678
"03-13-2014"	28001	1	1	13	"A"	"A.bmp"	"L+"	1	"c"	916
"03-13-2014"	28001	1	1	14	"BA"	"BA.bmp"	"R+"	1	"m"	1349
"03-13-2014"	28001	1	1	15	"AB"	"AB.bmp"	"R+"	0	"c"	1084
"03-13-2014"	28001	1	1	16	"B"	"B.bmp"	"L+"	0	"m"	928
"03-13-2014"	28001	1	1	17	"A"	"A.bmp"	"L+"	1	"c"	1615
"03-13-2014"	28001	1	1	18	"BA"	"BA.bmp"	"R+"	1	"m"	1118
"03-13-2014"	28001	1	1	19	"B"	"B.bmp"	"L+"	0	"m"	824
"03-13-2014"	28001	1	1	20	"AB"	"AB.bmp"	"R+"	0	"c"	805
"03-13-2014"	28001	1	1	21	"BA"	"BA.bmp"	"R+"	0	"c"	5670
"03-13-2014"	28001	1	1	22	"B"	"B.bmp"	"L+"	0	"m"	3939
"03-13-2014"	28001	1	1	23	"A"	"A.bmp"	"L+"	1	"c"	946
"03-13-2014"	28001	1	1	24	"AB"	"AB.bmp"	"R+"	0	"c"	557
"03-13-2014"	28001	1	1	25	"A"	"A.bmp"	"L+"	0	"m"	2415
"03-13-2014"	28001	1	1	26	"BA"	"BA.bmp"	"R+"	0	"c"	1782
"03-13-2014"	28001	1	1	27	"B"	"B.bmp"	"L+"	0	"m"	652
"03-13-2014"	28001	1	1	28	"AB"	"AB.bmp"	"R+"	0	"c"	545
"03-13-2014"	28001	1	1	29	"A"	"A.bmp"	"L+"	0	"m"	926
"03-13-2014"	28001	1	1	30	"B"	"B.bmp"	"L+"	0	"m"	664
"03-13-2014"	28001	1	1	31	"BA"	"BA.bmp"	"R+"	1	"m"	815
"03-13-2014"	28001	1	1	32	"AB"	"AB.bmp"	"R+"	1	"m"	675
"03-13-2014"	28001	1	1	33	"B"	"B.bmp"	"L+"	0	"m"	3823
"03-13-2014"	28001	1	1	34	"AB"	"AB.bmp"	"R+"	0	"c"	837
"03-13-2014"	28001	1	1	35	"BA"	"BA.bmp"	"R+"	0	"c"	854
"03-13-2014"	28001	1	1	36	"A"	"A.bmp"	"L+"	0	"m"	1118
"03-13-2014"	28001	1	1	37	"BA"	"BA.bmp"	"R+"	0	"c"	685
"03-13-2014"	28001	1	1	38	"B"	"B.bmp"	"L+"	0	"m"	920
"03-13-2014"	28001	1	1	39	"AB"	"AB.bmp"	"R+"	0	"c"	479
"03-13-2014"	28001	1	1	40	"A"	"A.bmp"	"L+"	1	"c"	487
"03-13-2014"	28001	1	1	41	"B"	"B.bmp"	"L+"	0	"m"	626
"03-13-2014"	28001	1	1	42	"BA"	"BA.bmp"	"R+"	1	"m"	584
"03-13-2014"	28001	1	1	43	"A"	"A.bmp"	"L+"	1	"c"	651
"03-13-2014"	28001	1	1	44	"AB"	"AB.bmp"	"R+"	1	"m"	684
"03-13-2014"	28001	1	1	45	"BA"	"BA.bmp"	"R+"	1	"m"	692
"03-13-2014"	28001	1	1	46	"A"	"A.bmp"	"L+"	1	"c"	582
"03-13-2014"	28001	1	1	47	"B"	"B.bmp"	"L+"	0	"m"	552
"03-13-2014"	28001	1	1	48	"AB"	"AB.bmp"	"R+"	0	"c"	514
"03-13-2014"	28001	1	1	49	"B"	"B.bmp"	"L+"	0	"m"	937
"03-13-2014"	28001	1	1	50	"BA"	"BA.bmp"	"R+"	1	"m"	7898
"03-13-2014"	28001	1	1	51	"A"	"A.bmp"	"L+"	0	"m"	629
"03-13-2014"	28001	1	1	52	"AB"	"AB.bmp"	"R+"	0	"c"	748
"03-13-2014"	28001	1	1	53	"B"	"B.bmp"	"L+"	0	"m"	920
"03-13-2014"	28001	1	1	54	"AB"	"AB.bmp"	"R+"	0	"c"	651
"03-13-2014"	28001	1	1	55	"BA"	"BA.bmp"	"R+"	1	"m"	666
"03-13-2014"	28001	1	1	56	"A"	"A.bmp"	"L+"	0	"m"	691
"03-13-2014"	28001	1	1	57	"B"	"B.bmp"	"L+"	1	"c"	519
"03-13-2014"	28001	1	1	58	"BA"	"BA.bmp"	"R+"	1	"m"	1060
"03-13-2014"	28001	1	1	59	"AB"	"AB.bmp"	"R+"	0	"c"	1195
"03-13-2014"	28001	1	1	60	"A"	"A.bmp"	"L+"	0	"m"	607
"03-13-2014"	28001	1	2	1	"B"	"B.bmp"	"L+"	1	"c"	1738
"03-13-2014"	28001	1	2	2	"AB"	"AB.bmp"	"R+"	1	"m"	1471
"03-13-2014"	28001	1	2	3	"A"	"A.bmp"	"L+"	0	"m"	2061
"03-13-2014"	28001	1	2	4	"BA"	"BA.bmp"	"R+"	0	"c"	2511
"03-13-2014"	28001	1	2	5	"B"	"B.bmp"	"L+"	1	"c"	1981
"03-13-2014"	28001	1	2	6	"A"	"A.bmp"	"L+"	0	"m"	968
"03-13-2014"	28001	1	2	7	"BA"	"BA.bmp"	"R+"	1	"m"	749
"03-13-2014"	28001	1	2	8	"AB"	"AB.bmp"	"R+"	1	"m"	1124
"03-13-2014"	28001	1	2	9	"B"	"B.bmp"	"L+"	1	"c"	737
"03-13-2014"	28001	1	2	10	"BA"	"BA.bmp"	"R+"	1	"m"	481
"03-13-2014"	28001	1	2	11	"AB"	"AB.bmp"	"R+"	1	"m"	1015
"03-13-2014"	28001	1	2	12	"A"	"A.bmp"	"L+"	1	"c"	1001
"03-13-2014"	28001	1	2	13	"AB"	"AB.bmp"	"R+"	0	"c"	513
"03-13-2014"	28001	1	2	14	"BA"	"BA.bmp"	"R+"	1	"m"	794
"03-13-2014"	28001	1	2	15	"A"	"A.bmp"	"L+"	1	"c"	692
"03-13-2014"	28001	1	2	16	"B"	"B.bmp"	"L+"	1	"c"	407
"03-13-2014"	28001	1	2	17	"AB"	"AB.bmp"	"R+"	0	"c"	517
"03-13-2014"	28001	1	2	18	"A"	"A.bmp"	"L+"	0	"m"	634
"03-13-2014"	28001	1	2	19	"BA"	"BA.bmp"	"R+"	1	"m"	1102
"03-13-2014"	28001	1	2	20	"B"	"B.bmp"	"L+"	1	"c"	1204
"03-13-2014"	28001	1	2	21	"BA"	"BA.bmp"	"R+"	0	"c"	914
"03-13-2014"	28001	1	2	22	"B"	"B.bmp"	"L+"	1	"c"	449
"03-13-2014"	28001	1	2	23	"A"	"A.bmp"	"L+"	1	"c"	833
"03-13-2014"	28001	1	2	24	"AB"	"AB.bmp"	"R+"	1	"m"	1653
"03-13-2014"	28001	1	2	25	"B"	"B.bmp"	"L+"	0	"m"	2547
"03-13-2014"	28001	1	2	26	"AB"	"AB.bmp"	"R+"	0	"c"	1461
"03-13-2014"	28001	1	2	27	"A"	"A.bmp"	"L+"	1	"c"	1040
"03-13-2014"	28001	1	2	28	"BA"	"BA.bmp"	"R+"	0	"c"	656
"03-13-2014"	28001	1	2	29	"A"	"A.bmp"	"L+"	0	"m"	1754
"03-13-2014"	28001	1	2	30	"B"	"B.bmp"	"L+"	0	"m"	1281
"03-13-2014"	28001	1	2	31	"BA"	"BA.bmp"	"R+"	1	"m"	1594
"03-13-2014"	28001	1	2	32	"AB"	"AB.bmp"	"R+"	0	"c"	1805
"03-13-2014"	28001	1	2	33	"A"	"A.bmp"	"L+"	1	"c"	721
"03-13-2014"	28001	1	2	34	"AB"	"AB.bmp"	"R+"	1	"m"	865
"03-13-2014"	28001	1	2	35	"BA"	"BA.bmp"	"R+"	1	"m"	355
"03-13-2014"	28001	1	2	36	"B"	"B.bmp"	"L+"	0	"m"	748
"03-13-2014"	28001	1	2	37	"AB"	"AB.bmp"	"R+"	0	"c"	792
"03-13-2014"	28001	1	2	38	"BA"	"BA.bmp"	"R+"	1	"m"	607
"03-13-2014"	28001	1	2	39	"B"	"B.bmp"	"L+"	0	"m"	1185
"03-13-2014"	28001	1	2	40	"A"	"A.bmp"	"L+"	0	"m"	466
"03-13-2014"	28001	1	2	41	"AB"	"AB.bmp"	"R+"	1	"m"	846
"03-13-2014"	28001	1	2	42	"A"	"A.bmp"	"L+"	0	"m"	521
"03-13-2014"	28001	1	2	43	"BA"	"BA.bmp"	"R+"	1	"m"	1088
"03-13-2014"	28001	1	2	44	"B"	"B.bmp"	"L+"	0	"m"	772
"03-13-2014"	28001	1	2	45	"BA"	"BA.bmp"	"R+"	1	"m"	616
"03-13-2014"	28001	1	2	46	"AB"	"AB.bmp"	"R+"	1	"m"	1094
"03-13-2014"	28001	1	2	47	"B"	"B.bmp"	"L+"	0	"m"	1976
"03-13-2014"	28001	1	2	48	"A"	"A.bmp"	"L+"	1	"c"	1115
"03-13-2014"	28001	1	2	49	"AB"	"AB.bmp"	"R+"	0	"c"	661
"03-13-2014"	28001	1	2	50	"B"	"B.bmp"	"L+"	0	"m"	971
"03-13-2014"	28001	1	2	51	"BA"	"BA.bmp"	"R+"	1	"m"	614
"03-13-2014"	28001	1	2	52	"A"	"A.bmp"	"L+"	0	"m"	713
"03-13-2014"	28001	1	2	53	"B"	"B.bmp"	"L+"	1	"c"	1421
"03-13-2014"	28001	1	2	54	"A"	"A.bmp"	"L+"	1	"c"	396
"03-13-2014"	28001	1	2	55	"BA"	"BA.bmp"	"R+"	1	"m"	664
"03-13-2014"	28001	1	2	56	"AB"	"AB.bmp"	"R+"	0	"c"	468
"03-13-2014"	28001	1	2	57	"BA"	"BA.bmp"	"R+"	0	"c"	521
"03-13-2014"	28001	1	2	58	"AB"	"AB.bmp"	"R+"	0	"c"	479
"03-13-2014"	28001	1	2	59	"B"	"B.bmp"	"L+"	1	"c"	579
"03-13-2014"	28001	1	2	60	"A"	"A.bmp"	"L+"	1	"c"	405
"03-13-2014"	28001	1	3	1	"B"	"B.bmp"	"L+"	0	"m"	1694
"03-13-2014"	28001	1	3	2	"BA"	"BA.bmp"	"R+"	1	"m"	673
"03-13-2014"	28001	1	3	3	"AB"	"AB.bmp"	"R+"	1	"m"	846
"03-13-2014"	28001	1	3	4	"A"	"A.bmp"	"L+"	0	"m"	3951
"03-13-2014"	28001	1	3	5	"BA"	"BA.bmp"	"R+"	0	"c"	1475
"03-13-2014"	28001	1	3	6	"A"	"A.bmp"	"L+"	1	"c"	758
"03-13-2014"	28001	1	3	7	"B"	"B.bmp"	"L+"	0	"m"	428
"03-13-2014"	28001	1	3	8	"AB"	"AB.bmp"	"R+"	1	"m"	527
"03-13-2014"	28001	1	3	9	"A"	"A.bmp"	"L+"	1	"c"	664
"03-13-2014"	28001	1	3	10	"AB"	"AB.bmp"	"R+"	1	"m"	491
"03-13-2014"	28001	1	3	11	"B"	"B.bmp"	"L+"	0	"m"	852
"03-13-2014"	28001	1	3	12	"BA"	"BA.bmp"	"R+"	0	"c"	331
"03-13-2014"	28001	1	3	13	"B"	"B.bmp"	"L+"	1	"c"	956
"03-13-2014"	28001	1	3	14	"BA"	"BA.bmp"	"R+"	0	"c"	276
"03-13-2014"	28001	1	3	15	"AB"	"AB.bmp"	"R+"	0	"c"	361
"03-13-2014"	28001	1	3	16	"A"	"A.bmp"	"L+"	0	"m"	1916
"03-13-2014"	28001	1	3	17	"B"	"B.bmp"	"L+"	1	"c"	971
"03-13-2014"	28001	1	3	18	"A"	"A.bmp"	"L+"	0	"m"	307
"03-13-2014"	28001	1	3	19	"AB"	"AB.bmp"	"R+"	1	"m"	2959
"03-13-2014"	28001	1	3	20	"BA"	"BA.bmp"	"R+"	1	"m"	1459
"03-13-2014"	28001	1	3	21	"A"	"A.bmp"	"L+"	0	"m"	595
"03-13-2014"	28001	1	3	22	"BA"	"BA.bmp"	"R+"	0	"c"	3301
"03-13-2014"	28001	1	3	23	"AB"	"AB.bmp"	"R+"	1	"m"	1347
"03-13-2014"	28001	1	3	24	"B"	"B.bmp"	"L+"	1	"c"	1717
"03-13-2014"	28001	1	3	25	"A"	"A.bmp"	"L+"	0	"m"	336
"03-13-2014"	28001	1	3	26	"AB"	"AB.bmp"	"R+"	1	"m"	264
"03-13-2014"	28001	1	3	27	"B"	"B.bmp"	"L+"	1	"c"	1400
"03-13-2014"	28001	1	3	28	"BA"	"BA.bmp"	"R+"	1	"m"	434
"03-13-2014"	28001	1	3	29	"AB"	"AB.bmp"	"R+"	0	"c"	534
"03-13-2014"	28001	1	3	30	"BA"	"BA.bmp"	"R+"	1	"m"	1781
"03-13-2014"	28001	1	3	31	"A"	"A.bmp"	"L+"	0	"m"	1497
"03-13-2014"	28001	1	3	32	"B"	"B.bmp"	"L+"	1	"c"	1743
"03-13-2014"	28001	1	3	33	"A"	"A.bmp"	"L+"	0	"m"	418
"03-13-2014"	28001	1	3	34	"B"	"B.bmp"	"L+"	1	"c"	273
"03-13-2014"	28001	1	3	35	"AB"	"AB.bmp"	"R+"	1	"m"	1018
"03-13-2014"	28001	1	3	36	"BA"	"BA.bmp"	"R+"	0	"c"	234
"03-13-2014"	28001	1	3	37	"B"	"B.bmp"	"L+"	1	"c"	282
"03-13-2014"	28001	1	3	38	"AB"	"AB.bmp"	"R+"	0	"c"	1493
"03-13-2014"	28001	1	3	39	"BA"	"BA.bmp"	"R+"	1	"m"	230
"03-13-2014"	28001	1	3	40	"A"	"A.bmp"	"L+"	1	"c"	768
"03-13-2014"	28001	1	3	41	"B"	"B.bmp"	"L+"	1	"c"	289
"03-13-2014"	28001	1	3	42	"A"	"A.bmp"	"L+"	1	"c"	261
"03-13-2014"	28001	1	3	43	"AB"	"AB.bmp"	"R+"	1	"m"	222
"03-13-2014"	28001	1	3	44	"BA"	"BA.bmp"	"R+"	1	"m"	168
"03-13-2014"	28001	1	3	45	"B"	"B.bmp"	"L+"	1	"c"	206
"03-13-2014"	28001	1	3	46	"BA"	"BA.bmp"	"R+"	1	"m"	183
"03-13-2014"	28001	1	3	47	"AB"	"AB.bmp"	"R+"	1	"m"	161
"03-13-2014"	28001	1	3	48	"A"	"A.bmp"	"L+"	1	"c"	260
"03-13-2014"	28001	1	3	49	"BA"	"BA.bmp"	"R+"	1	"m"	255
"03-13-2014"	28001	1	3	50	"A"	"A.bmp"	"L+"	1	"c"	177
"03-13-2014"	28001	1	3	51	"AB"	"AB.bmp"	"R+"	1	"m"	120
"03-13-2014"	28001	1	3	52	"B"	"B.bmp"	"L+"	1	"c"	144
"03-13-2014"	28001	1	3	53	"BA"	"BA.bmp"	"R+"	1	"m"	146
"03-13-2014"	28001	1	3	54	"A"	"A.bmp"	"L+"	1	"c"	154
"03-13-2014"	28001	1	3	55	"B"	"B.bmp"	"L+"	1	"c"	176
"03-13-2014"	28001	1	3	56	"AB"	"AB.bmp"	"R+"	1	"m"	90
"03-13-2014"	28001	1	3	57	"A"	"A.bmp"	"L+"	1	"c"	131
"03-13-2014"	28001	1	3	58	"B"	"B.bmp"	"L+"	1	"c"	137
"03-13-2014"	28001	1	3	59	"AB"	"AB.bmp"	"R+"	1	"m"	112
"03-13-2014"	28001	1	3	60	"BA"	"BA.bmp"	"R+"	1	"m"	49
"03-13-2014"	28001	1	4	1	"B"	"B.bmp"	"L+"	1	"c"	128
"03-13-2014"	28001	1	4	2	"AB"	"AB.bmp"	"R+"	1	"m"	105
"03-13-2014"	28001	1	4	3	"BA"	"BA.bmp"	"R+"	1	"m"	73
"03-13-2014"	28001	1	4	4	"A"	"A.bmp"	"L+"	1	"c"	146
"03-13-2014"	28001	1	4	5	"AB"	"AB.bmp"	"R+"	1	"m"	153
"03-13-2014"	28001	1	4	6	"B"	"B.bmp"	"L+"	1	"c"	178
"03-13-2014"	28001	1	4	7	"BA"	"BA.bmp"	"R+"	1	"m"	223
"03-13-2014"	28001	1	4	8	"A"	"A.bmp"	"L+"	1	"c"	221
"03-13-2014"	28001	1	4	9	"BA"	"BA.bmp"	"R+"	1	"m"	257
"03-13-2014"	28001	1	4	10	"AB"	"AB.bmp"	"R+"	1	"m"	148
"03-13-2014"	28001	1	4	11	"A"	"A.bmp"	"L+"	0	"m"	179
"03-13-2014"	28001	1	4	12	"B"	"B.bmp"	"L+"	1	"c"	739
"03-13-2014"	28001	1	4	13	"BA"	"BA.bmp"	"R+"	1	"m"	172
"03-13-2014"	28001	1	4	14	"B"	"B.bmp"	"L+"	1	"c"	202
"03-13-2014"	28001	1	4	15	"A"	"A.bmp"	"L+"	1	"c"	110
"03-13-2014"	28001	1	4	16	"AB"	"AB.bmp"	"R+"	1	"m"	398
"03-13-2014"	28001	1	4	17	"B"	"B.bmp"	"L+"	1	"c"	119
"03-13-2014"	28001	1	4	18	"A"	"A.bmp"	"L+"	1	"c"	97
"03-13-2014"	28001	1	4	19	"AB"	"AB.bmp"	"R+"	1	"m"	131
"03-13-2014"	28001	1	4	20	"BA"	"BA.bmp"	"R+"	1	"m"	171
"03-13-2014"	28001	1	4	21	"B"	"B.bmp"	"L+"	1	"c"	331
"03-13-2014"	28001	1	4	22	"AB"	"AB.bmp"	"R+"	1	"m"	101
"03-13-2014"	28001	1	4	23	"BA"	"BA.bmp"	"R+"	1	"m"	102
"03-13-2014"	28001	1	4	24	"A"	"A.bmp"	"L+"	1	"c"	118
"03-13-2014"	28001	1	4	25	"BA"	"BA.bmp"	"R+"	1	"m"	116
"03-13-2014"	28001	1	4	26	"B"	"B.bmp"	"L+"	1	"c"	120
"03-13-2014"	28001	1	4	27	"AB"	"AB.bmp"	"R+"	1	"m"	119
"03-13-2014"	28001	1	4	28	"A"	"A.bmp"	"L+"	1	"c"	120
"03-13-2014"	28001	1	4	29	"BA"	"BA.bmp"	"R+"	1	"m"	140
"03-13-2014"	28001	1	4	30	"A"	"A.bmp"	"L+"	1	"c"	139
"03-13-2014"	28001	1	4	31	"AB"	"AB.bmp"	"R+"	1	"m"	150
"03-13-2014"	28001	1	4	32	"B"	"B.bmp"	"L+"	1	"c"	324
"03-13-2014"	28001	1	4	33	"BA"	"BA.bmp"	"R+"	1	"m"	156
"03-13-2014"	28001	1	4	34	"B"	"B.bmp"	"L+"	1	"c"	141
"03-13-2014"	28001	1	4	35	"A"	"A.bmp"	"L+"	1	"c"	258
"03-13-2014"	28001	1	4	36	"AB"	"AB.bmp"	"R+"	1	"m"	253
"03-13-2014"	28001	1	4	37	"BA"	"BA.bmp"	"R+"	1	"m"	156
"03-13-2014"	28001	1	4	38	"B"	"B.bmp"	"L+"	1	"c"	172
"03-13-2014"	28001	1	4	39	"AB"	"AB.bmp"	"R+"	1	"m"	221
"03-13-2014"	28001	1	4	40	"A"	"A.bmp"	"L+"	1	"c"	128
"03-13-2014"	28001	1	4	41	"BA"	"BA.bmp"	"R+"	1	"m"	105
"03-13-2014"	28001	1	4	42	"B"	"B.bmp"	"L+"	1	"c"	136
"03-13-2014"	28001	1	4	43	"A"	"A.bmp"	"L+"	1	"c"	128
"03-13-2014"	28001	1	4	44	"AB"	"AB.bmp"	"R+"	0	"c"	192
"03-13-2014"	28001	1	4	45	"A"	"A.bmp"	"L+"	1	"c"	143
"03-13-2014"	28001	1	4	46	"AB"	"AB.bmp"	"R+"	1	"m"	165
"03-13-2014"	28001	1	4	47	"BA"	"BA.bmp"	"R+"	1	"m"	94
"03-13-2014"	28001	1	4	48	"B"	"B.bmp"	"L+"	1	"c"	175
"03-13-2014"	28001	1	4	49	"BA"	"BA.bmp"	"R+"	1	"m"	119
"03-13-2014"	28001	1	4	50	"AB"	"AB.bmp"	"R+"	1	"m"	95
"03-13-2014"	28001	1	4	51	"A"	"A.bmp"	"L+"	1	"c"	149
"03-13-2014"	28001	1	4	52	"B"	"B.bmp"	"L+"	1	"c"	145
"03-13-2014"	28001	1	4	53	"A"	"A.bmp"	"L+"	1	"c"	180
"03-13-2014"	28001	1	4	54	"AB"	"AB.bmp"	"R+"	1	"m"	135
"03-13-2014"	28001	1	4	55	"BA"	"BA.bmp"	"R+"	1	"m"	96
"03-13-2014"	28001	1	4	56	"B"	"B.bmp"	"L+"	1	"c"	143
"03-13-2014"	28001	1	4	57	"BA"	"BA.bmp"	"R+"	1	"m"	186
"03-13-2014"	28001	1	4	58	"B"	"B.bmp"	"L+"	1	"c"	208
"03-13-2014"	28001	1	4	59	"AB"	"AB.bmp"	"R+"	1	"m"	128
"03-13-2014"	28001	1	4	60	"A"	"A.bmp"	"L+"	1	"c"	212
"03-13-2014"	28001	2	1	1	"D"	"D.bmp"	"R+"	0	"c"	656
"03-13-2014"	28001	2	1	2	"CD"	"CD.bmp"	"L+"	0	"m"	261
"03-13-2014"	28001	2	1	3	"DC"	"DC.bmp"	"L+"	1	"c"	272
"03-13-2014"	28001	2	1	4	"C"	"C.bmp"	"R+"	1	"m"	138
"03-13-2014"	28001	2	1	5	"D"	"D.bmp"	"R+"	1	"m"	121
"03-13-2014"	28001	2	1	6	"C"	"C.bmp"	"R+"	1	"m"	264
"03-13-2014"	28001	2	1	7	"CD"	"CD.bmp"	"L+"	1	"c"	28
"03-13-2014"	28001	2	1	8	"DC"	"DC.bmp"	"L+"	1	"c"	91
"03-13-2014"	28001	2	1	9	"CD"	"CD.bmp"	"L+"	1	"c"	119
"03-13-2014"	28001	2	1	10	"DC"	"DC.bmp"	"L+"	1	"c"	142
"03-13-2014"	28001	2	1	11	"C"	"C.bmp"	"R+"	0	"c"	292
"03-13-2014"	28001	2	1	12	"D"	"D.bmp"	"R+"	1	"m"	267
"03-13-2014"	28001	2	1	13	"CD"	"CD.bmp"	"L+"	1	"c"	224
"03-13-2014"	28001	2	1	14	"C"	"C.bmp"	"R+"	1	"m"	310
"03-13-2014"	28001	2	1	15	"D"	"D.bmp"	"R+"	1	"m"	186
"03-13-2014"	28001	2	1	16	"DC"	"DC.bmp"	"L+"	1	"c"	182
"03-13-2014"	28001	2	1	17	"C"	"C.bmp"	"R+"	1	"m"	268
"03-13-2014"	28001	2	1	18	"CD"	"CD.bmp"	"L+"	0	"m"	224
"03-13-2014"	28001	2	1	19	"D"	"D.bmp"	"R+"	1	"m"	520
"03-13-2014"	28001	2	1	20	"DC"	"DC.bmp"	"L+"	1	"c"	197
"03-13-2014"	28001	2	1	21	"D"	"D.bmp"	"R+"	1	"m"	556
"03-13-2014"	28001	2	1	22	"CD"	"CD.bmp"	"L+"	1	"c"	380
"03-13-2014"	28001	2	1	23	"DC"	"DC.bmp"	"L+"	1	"c"	730
"03-13-2014"	28001	2	1	24	"C"	"C.bmp"	"R+"	1	"m"	588
"03-13-2014"	28001	2	1	25	"D"	"D.bmp"	"R+"	1	"m"	1097
"03-13-2014"	28001	2	1	26	"DC"	"DC.bmp"	"L+"	1	"c"	398
"03-13-2014"	28001	2	1	27	"C"	"C.bmp"	"R+"	1	"m"	808
"03-13-2014"	28001	2	1	28	"CD"	"CD.bmp"	"L+"	1	"c"	173
"03-13-2014"	28001	2	1	29	"D"	"D.bmp"	"R+"	1	"m"	177
"03-13-2014"	28001	2	1	30	"CD"	"CD.bmp"	"L+"	1	"c"	208
"03-13-2014"	28001	2	1	31	"DC"	"DC.bmp"	"L+"	1	"c"	182
"03-13-2014"	28001	2	1	32	"C"	"C.bmp"	"R+"	1	"m"	416
"03-13-2014"	28001	2	1	33	"D"	"D.bmp"	"R+"	1	"m"	208
"03-13-2014"	28001	2	1	34	"CD"	"CD.bmp"	"L+"	1	"c"	184
"03-13-2014"	28001	2	1	35	"DC"	"DC.bmp"	"L+"	1	"c"	234
"03-13-2014"	28001	2	1	36	"C"	"C.bmp"	"R+"	1	"m"	301
"03-13-2014"	28001	2	1	37	"DC"	"DC.bmp"	"L+"	1	"c"	263
"03-13-2014"	28001	2	1	38	"CD"	"CD.bmp"	"L+"	1	"c"	173
"03-13-2014"	28001	2	1	39	"D"	"D.bmp"	"R+"	1	"m"	176
"03-13-2014"	28001	2	1	40	"C"	"C.bmp"	"R+"	1	"m"	210
"03-13-2014"	28001	2	1	41	"DC"	"DC.bmp"	"L+"	1	"c"	395
"03-13-2014"	28001	2	1	42	"C"	"C.bmp"	"R+"	1	"m"	173
"03-13-2014"	28001	2	1	43	"CD"	"CD.bmp"	"L+"	1	"c"	201
"03-13-2014"	28001	2	1	44	"D"	"D.bmp"	"R+"	1	"m"	227
"03-13-2014"	28001	2	1	45	"CD"	"CD.bmp"	"L+"	1	"c"	380
"03-13-2014"	28001	2	1	46	"DC"	"DC.bmp"	"L+"	1	"c"	235
"03-13-2014"	28001	2	1	47	"D"	"D.bmp"	"R+"	1	"m"	223
"03-13-2014"	28001	2	1	48	"C"	"C.bmp"	"R+"	1	"m"	215
"03-13-2014"	28001	2	1	49	"DC"	"DC.bmp"	"L+"	1	"c"	576
"03-13-2014"	28001	2	1	50	"CD"	"CD.bmp"	"L+"	1	"c"	298
"03-13-2014"	28001	2	1	51	"C"	"C.bmp"	"R+"	1	"m"	232
"03-13-2014"	28001	2	1	52	"D"	"D.bmp"	"R+"	1	"m"	208
"03-13-2014"	28001	2	1	53	"DC"	"DC.bmp"	"L+"	1	"c"	223
"03-13-2014"	28001	2	1	54	"C"	"C.bmp"	"R+"	1	"m"	218
"03-13-2014"	28001	2	1	55	"D"	"D.bmp"	"R+"	1	"m"	246
"03-13-2014"	28001	2	1	56	"CD"	"CD.bmp"	"L+"	1	"c"	347
"03-13-2014"	28001	2	1	57	"DC"	"DC.bmp"	"L+"	1	"c"	473
"03-13-2014"	28001	2	1	58	"CD"	"CD.bmp"	"L+"	1	"c"	179
"03-13-2014"	28001	2	1	59	"C"	"C.bmp"	"R+"	0	"c"	358
"03-13-2014"	28001	2	1	60	"D"	"D.bmp"	"R+"	1	"m"	529
"03-13-2014"	28001	2	1	61	"C"	"C.bmp"	"R+"	1	"m"	261
"03-13-2014"	28001	2	1	62	"CD"	"CD.bmp"	"L+"	1	"c"	247
"03-13-2014"	28001	2	1	63	"DC"	"DC.bmp"	"L+"	1	"c"	286
"03-13-2014"	28001	2	1	64	"D"	"D.bmp"	"R+"	1	"m"	325
"03-13-2014"	28001	3	1	1	"A"	"A.bmp"	"L+"	0	"m"	274
"03-13-2014"	28001	3	1	2	"CD"	"CD.bmp"	"L+"	1	"c"	146
"03-13-2014"	28001	3	1	3	"D"	"D.bmp"	"R+"	1	"m"	212
"03-13-2014"	28001	3	1	4	"DC"	"DC.bmp"	"L+"	1	"c"	216
"03-13-2014"	28001	3	1	5	"B"	"B.bmp"	"L+"	1	"c"	145
"03-13-2014"	28001	3	1	6	"AB"	"AB.bmp"	"R+"	1	"m"	624
"03-13-2014"	28001	3	1	7	"C"	"C.bmp"	"R+"	0	"c"	344
"03-13-2014"	28001	3	1	8	"BA"	"BA.bmp"	"R+"	1	"m"	313
"03-13-2014"	28001	3	1	9	"AB"	"AB.bmp"	"R+"	1	"m"	219
"03-13-2014"	28001	3	1	10	"C"	"C.bmp"	"R+"	1	"m"	369
"03-13-2014"	28001	3	1	11	"BA"	"BA.bmp"	"R+"	1	"m"	496
"03-13-2014"	28001	3	1	12	"D"	"D.bmp"	"R+"	1	"m"	490
"03-13-2014"	28001	3	1	13	"B"	"B.bmp"	"L+"	1	"c"	519
"03-13-2014"	28001	3	1	14	"CD"	"CD.bmp"	"L+"	1	"c"	295
"03-13-2014"	28001	3	1	15	"DC"	"DC.bmp"	"L+"	1	"c"	433
"03-13-2014"	28001	3	1	16	"A"	"A.bmp"	"L+"	1	"c"	450
"03-13-2014"	28001	3	1	17	"CD"	"CD.bmp"	"L+"	1	"c"	568
"03-13-2014"	28001	3	1	18	"BA"	"BA.bmp"	"R+"	1	"m"	721
"03-13-2014"	28001	3	1	19	"D"	"D.bmp"	"R+"	1	"m"	245
"03-13-2014"	28001	3	1	20	"A"	"A.bmp"	"L+"	1	"c"	367
"03-13-2014"	28001	3	1	21	"DC"	"DC.bmp"	"L+"	1	"c"	236
"03-13-2014"	28001	3	1	22	"C"	"C.bmp"	"R+"	1	"m"	235
"03-13-2014"	28001	3	1	23	"AB"	"AB.bmp"	"R+"	1	"m"	373
"03-13-2014"	28001	3	1	24	"B"	"B.bmp"	"L+"	1	"c"	515
"03-13-2014"	28001	3	1	25	"D"	"D.bmp"	"R+"	1	"m"	207
"03-13-2014"	28001	3	1	26	"AB"	"AB.bmp"	"R+"	0	"c"	195
"03-13-2014"	28001	3	1	27	"BA"	"BA.bmp"	"R+"	1	"m"	212
"03-13-2014"	28001	3	1	28	"CD"	"CD.bmp"	"L+"	1	"c"	228
"03-13-2014"	28001	3	1	29	"C"	"C.bmp"	"R+"	1	"m"	224
"03-13-2014"	28001	3	1	30	"A"	"A.bmp"	"L+"	1	"c"	214
"03-13-2014"	28001	3	1	31	"B"	"B.bmp"	"L+"	1	"c"	485
"03-13-2014"	28001	3	1	32	"DC"	"DC.bmp"	"L+"	0	"m"	193
"03-13-2014"	28001	3	1	33	"B"	"B.bmp"	"L+"	1	"c"	189
"03-13-2014"	28001	3	1	34	"AB"	"AB.bmp"	"R+"	1	"m"	140
"03-13-2014"	28001	3	1	35	"DC"	"DC.bmp"	"L+"	1	"c"	281
"03-13-2014"	28001	3	1	36	"D"	"D.bmp"	"R+"	0	"c"	468
"03-13-2014"	28001	3	1	37	"A"	"A.bmp"	"L+"	1	"c"	254
"03-13-2014"	28001	3	1	38	"CD"	"CD.bmp"	"L+"	1	"c"	368
"03-13-2014"	28001	3	1	39	"BA"	"BA.bmp"	"R+"	1	"m"	187
"03-13-2014"	28001	3	1	40	"C"	"C.bmp"	"R+"	1	"m"	193
"03-13-2014"	28001	3	1	41	"BA"	"BA.bmp"	"R+"	1	"m"	725
"03-13-2014"	28001	3	1	42	"D"	"D.bmp"	"R+"	1	"m"	202
"03-13-2014"	28001	3	1	43	"B"	"B.bmp"	"L+"	1	"c"	225
"03-13-2014"	28001	3	1	44	"C"	"C.bmp"	"R+"	1	"m"	204
"03-13-2014"	28001	3	1	45	"DC"	"DC.bmp"	"L+"	1	"c"	327
"03-13-2014"	28001	3	1	46	"A"	"A.bmp"	"L+"	1	"c"	434
"03-13-2014"	28001	3	1	47	"CD"	"CD.bmp"	"L+"	1	"c"	226
"03-13-2014"	28001	3	1	48	"AB"	"AB.bmp"	"R+"	1	"m"	455
"03-13-2014"	28001	3	1	49	"CD"	"CD.bmp"	"L+"	1	"c"	188
"03-13-2014"	28001	3	1	50	"AB"	"AB.bmp"	"R+"	1	"m"	122
"03-13-2014"	28001	3	1	51	"DC"	"DC.bmp"	"L+"	1	"c"	114
"03-13-2014"	28001	3	1	52	"A"	"A.bmp"	"L+"	1	"c"	132
"03-13-2014"	28001	3	1	53	"D"	"D.bmp"	"R+"	1	"m"	170
"03-13-2014"	28001	3	1	54	"B"	"B.bmp"	"L+"	1	"c"	202
"03-13-2014"	28001	3	1	55	"C"	"C.bmp"	"R+"	1	"m"	160
"03-13-2014"	28001	3	1	56	"BA"	"BA.bmp"	"R+"	1	"m"	370
"03-13-2014"	28001	3	1	57	"DC"	"DC.bmp"	"L+"	1	"c"	257
"03-13-2014"	28001	3	1	58	"C"	"C.bmp"	"R+"	1	"m"	225
"03-13-2014"	28001	3	1	59	"CD"	"CD.bmp"	"L+"	1	"c"	276
"03-13-2014"	28001	3	1	60	"B"	"B.bmp"	"L+"	1	"c"	334
"03-13-2014"	28001	3	1	61	"BA"	"BA.bmp"	"R+"	1	"m"	512
"03-13-2014"	28001	3	1	62	"A"	"A.bmp"	"L+"	1	"c"	415
"03-13-2014"	28001	3	1	63	"D"	"D.bmp"	"R+"	1	"m"	367
"03-13-2014"	28001	3	1	64	"AB"	"AB.bmp"	"R+"	1	"m"	273
"03-13-2014"	28001	4	1	1	"A"	"A.bmp"	"L+"	1	"c"	272
"03-13-2014"	28001	4	1	2	"B"	"B.bmp"	"L+"	1	"c"	141
"03-13-2014"	28001	4	1	3	"D"	"D.bmp"	"R+"	1	"m"	168
"03-13-2014"	28001	4	1	4	"DC"	"DC.bmp"	"L+"	1	"c"	274
"03-13-2014"	28001	4	1	5	"C"	"C.bmp"	"R+"	1	"m"	199
"03-13-2014"	28001	4	1	6	"F"	"F.bmp"	"R+"	0	"c"	1719
"03-13-2014"	28001	4	1	7	"BA"	"BA.bmp"	"R+"	1	"m"	197
"03-13-2014"	28001	4	1	8	"HG"	"HG.bmp"	"L+"	0	"m"	1754
"03-13-2014"	28001	4	1	9	"E"	"E.bmp"	"R+"	0	"c"	305
"03-13-2014"	28001	4	1	10	"L"	"L.bmp"	"L+"	0	"m"	238
"03-13-2014"	28001	4	1	11	"GH"	"GH.bmp"	"L+"	1	"c"	331
"03-13-2014"	28001	4	1	12	"JI"	"JI.bmp"	"R+"	0	"c"	242
"03-13-2014"	28001	4	1	13	"K"	"K.bmp"	"L+"	1	"c"	264
"03-13-2014"	28001	4	1	14	"IJ"	"IJ.bmp"	"R+"	0	"c"	280
"03-13-2014"	28001	4	1	15	"AB"	"AB.bmp"	"R+"	1	"m"	225
"03-13-2014"	28001	4	1	16	"CD"	"CD.bmp"	"L+"	1	"c"	151
"03-13-2014"	28001	4	1	17	"AB"	"AB.bmp"	"R+"	1	"m"	167
"03-13-2014"	28001	4	1	18	"GH"	"GH.bmp"	"L+"	0	"m"	172
"03-13-2014"	28001	4	1	19	"L"	"L.bmp"	"L+"	0	"m"	209
"03-13-2014"	28001	4	1	20	"DC"	"DC.bmp"	"L+"	1	"c"	135
"03-13-2014"	28001	4	1	21	"F"	"F.bmp"	"R+"	0	"c"	163
"03-13-2014"	28001	4	1	22	"C"	"C.bmp"	"R+"	1	"m"	128
"03-13-2014"	28001	4	1	23	"B"	"B.bmp"	"L+"	1	"c"	214
"03-13-2014"	28001	4	1	24	"K"	"K.bmp"	"L+"	0	"m"	213
"03-13-2014"	28001	4	1	25	"JI"	"JI.bmp"	"R+"	0	"c"	816
"03-13-2014"	28001	4	1	26	"IJ"	"IJ.bmp"	"R+"	1	"m"	202
"03-13-2014"	28001	4	1	27	"E"	"E.bmp"	"R+"	1	"m"	228
"03-13-2014"	28001	4	1	28	"BA"	"BA.bmp"	"R+"	1	"m"	140
"03-13-2014"	28001	4	1	29	"CD"	"CD.bmp"	"L+"	1	"c"	196
"03-13-2014"	28001	4	1	30	"D"	"D.bmp"	"R+"	1	"m"	683
"03-13-2014"	28001	4	1	31	"A"	"A.bmp"	"L+"	1	"c"	328
"03-13-2014"	28001	4	1	32	"HG"	"HG.bmp"	"L+"	1	"c"	931
"03-13-2014"	28001	4	1	33	"L"	"L.bmp"	"L+"	0	"m"	805
"03-13-2014"	28001	4	1	34	"K"	"K.bmp"	"L+"	1	"c"	553
"03-13-2014"	28001	4	1	35	"CD"	"CD.bmp"	"L+"	1	"c"	180
"03-13-2014"	28001	4	1	36	"GH"	"GH.bmp"	"L+"	0	"m"	2293
"03-13-2014"	28001	4	1	37	"BA"	"BA.bmp"	"R+"	1	"m"	594
"03-13-2014"	28001	4	1	38	"HG"	"HG.bmp"	"L+"	0	"m"	1625
"03-13-2014"	28001	4	1	39	"F"	"F.bmp"	"R+"	0	"c"	1120
"03-13-2014"	28001	4	1	40	"JI"	"JI.bmp"	"R+"	1	"m"	250
"03-13-2014"	28001	4	1	41	"DC"	"DC.bmp"	"L+"	1	"c"	178
"03-13-2014"	28001	4	1	42	"B"	"B.bmp"	"L+"	1	"c"	125
"03-13-2014"	28001	4	1	43	"C"	"C.bmp"	"R+"	1	"m"	165
"03-13-2014"	28001	4	1	44	"D"	"D.bmp"	"R+"	1	"m"	218
"03-13-2014"	28001	4	1	45	"A"	"A.bmp"	"L+"	1	"c"	153
"03-13-2014"	28001	4	1	46	"IJ"	"IJ.bmp"	"R+"	1	"m"	223
"03-13-2014"	28001	4	1	47	"E"	"E.bmp"	"R+"	1	"m"	240
"03-13-2014"	28001	4	1	48	"AB"	"AB.bmp"	"R+"	1	"m"	264
"03-13-2014"	28001	4	1	49	"B"	"B.bmp"	"L+"	1	"c"	191
"03-13-2014"	28001	4	1	50	"C"	"C.bmp"	"R+"	1	"m"	191
"03-13-2014"	28001	4	1	51	"K"	"K.bmp"	"L+"	1	"c"	393
"03-13-2014"	28001	4	1	52	"HG"	"HG.bmp"	"L+"	1	"c"	352
"03-13-2014"	28001	4	1	53	"D"	"D.bmp"	"R+"	1	"m"	260
"03-13-2014"	28001	4	1	54	"BA"	"BA.bmp"	"R+"	0	"c"	396
"03-13-2014"	28001	4	1	55	"L"	"L.bmp"	"L+"	0	"m"	707
"03-13-2014"	28001	4	1	56	"DC"	"DC.bmp"	"L+"	1	"c"	230
"03-13-2014"	28001	4	1	57	"CD"	"CD.bmp"	"L+"	1	"c"	195
"03-13-2014"	28001	4	1	58	"E"	"E.bmp"	"R+"	1	"m"	218
"03-13-2014"	28001	4	1	59	"JI"	"JI.bmp"	"R+"	1	"m"	114
"03-13-2014"	28001	4	1	60	"F"	"F.bmp"	"R+"	0	"c"	1189
"03-13-2014"	28001	4	1	61	"GH"	"GH.bmp"	"L+"	1	"c"	547
"03-13-2014"	28001	4	1	62	"AB"	"AB.bmp"	"R+"	1	"m"	859
"03-13-2014"	28001	4	1	63	"IJ"	"IJ.bmp"	"R+"	1	"m"	211
"03-13-2014"	28001	4	1	64	"A"	"A.bmp"	"L+"	1	"c"	246
"03-13-2014"	28001	4	2	1	"B"	"B.bmp"	"L+"	1	"c"	241
"03-13-2014"	28001	4	2	2	"BA"	"BA.bmp"	"R+"	1	"m"	275
"03-13-2014"	28001	4	2	3	"AB"	"AB.bmp"	"R+"	1	"m"	736
"03-13-2014"	28001	4	2	4	"E"	"E.bmp"	"R+"	1	"m"	180
"03-13-2014"	28001	4	2	5	"CD"	"CD.bmp"	"L+"	1	"c"	322
"03-13-2014"	28001	4	2	6	"JI"	"JI.bmp"	"R+"	1	"m"	224
"03-13-2014"	28001	4	2	7	"K"	"K.bmp"	"L+"	0	"m"	229
"03-13-2014"	28001	4	2	8	"A"	"A.bmp"	"L+"	1	"c"	240
"03-13-2014"	28001	4	2	9	"IJ"	"IJ.bmp"	"R+"	1	"m"	170
"03-13-2014"	28001	4	2	10	"HG"	"HG.bmp"	"L+"	1	"c"	219
"03-13-2014"	28001	4	2	11	"GH"	"GH.bmp"	"L+"	1	"c"	203
"03-13-2014"	28001	4	2	12	"D"	"D.bmp"	"R+"	1	"m"	205
"03-13-2014"	28001	4	2	13	"L"	"L.bmp"	"L+"	0	"m"	298
"03-13-2014"	28001	4	2	14	"C"	"C.bmp"	"R+"	1	"m"	273
"03-13-2014"	28001	4	2	15	"F"	"F.bmp"	"R+"	0	"c"	1979
"03-13-2014"	28001	4	2	16	"DC"	"DC.bmp"	"L+"	1	"c"	440
"03-13-2014"	28001	4	2	17	"CD"	"CD.bmp"	"L+"	1	"c"	165
"03-13-2014"	28001	4	2	18	"E"	"E.bmp"	"R+"	1	"m"	126
"03-13-2014"	28001	4	2	19	"C"	"C.bmp"	"R+"	0	"c"	172
"03-13-2014"	28001	4	2	20	"A"	"A.bmp"	"L+"	0	"m"	341
"03-13-2014"	28001	4	2	21	"L"	"L.bmp"	"L+"	1	"c"	200
"03-13-2014"	28001	4	2	22	"JI"	"JI.bmp"	"R+"	1	"m"	168
"03-13-2014"	28001	4	2	23	"F"	"F.bmp"	"R+"	1	"m"	245
"03-13-2014"	28001	4	2	24	"IJ"	"IJ.bmp"	"R+"	1	"m"	139
"03-13-2014"	28001	4	2	25	"B"	"B.bmp"	"L+"	1	"c"	221
"03-13-2014"	28001	4	2	26	"AB"	"AB.bmp"	"R+"	1	"m"	308
"03-13-2014"	28001	4	2	27	"K"	"K.bmp"	"L+"	0	"m"	212
"03-13-2014"	28001	4	2	28	"BA"	"BA.bmp"	"R+"	1	"m"	618
"03-13-2014"	28001	4	2	29	"DC"	"DC.bmp"	"L+"	1	"c"	208
"03-13-2014"	28001	4	2	30	"GH"	"GH.bmp"	"L+"	0	"m"	157
"03-13-2014"	28001	4	2	31	"HG"	"HG.bmp"	"L+"	1	"c"	159
"03-13-2014"	28001	4	2	32	"D"	"D.bmp"	"R+"	1	"m"	155
"03-13-2014"	28001	4	2	33	"L"	"L.bmp"	"L+"	1	"c"	965
"03-13-2014"	28001	4	2	34	"HG"	"HG.bmp"	"L+"	1	"c"	152
"03-13-2014"	28001	4	2	35	"CD"	"CD.bmp"	"L+"	1	"c"	400
"03-13-2014"	28001	4	2	36	"C"	"C.bmp"	"R+"	1	"m"	150
"03-13-2014"	28001	4	2	37	"JI"	"JI.bmp"	"R+"	1	"m"	198
"03-13-2014"	28001	4	2	38	"GH"	"GH.bmp"	"L+"	1	"c"	135
"03-13-2014"	28001	4	2	39	"AB"	"AB.bmp"	"R+"	1	"m"	845
"03-13-2014"	28001	4	2	40	"F"	"F.bmp"	"R+"	1	"m"	187
"03-13-2014"	28001	4	2	41	"B"	"B.bmp"	"L+"	1	"c"	306
"03-13-2014"	28001	4	2	42	"K"	"K.bmp"	"L+"	1	"c"	184
"03-13-2014"	28001	4	2	43	"E"	"E.bmp"	"R+"	1	"m"	156
"03-13-2014"	28001	4	2	44	"IJ"	"IJ.bmp"	"R+"	1	"m"	157
"03-13-2014"	28001	4	2	45	"DC"	"DC.bmp"	"L+"	1	"c"	146
"03-13-2014"	28001	4	2	46	"D"	"D.bmp"	"R+"	1	"m"	147
"03-13-2014"	28001	4	2	47	"BA"	"BA.bmp"	"R+"	1	"m"	233
"03-13-2014"	28001	4	2	48	"A"	"A.bmp"	"L+"	1	"c"	255
"03-13-2014"	28001	4	2	49	"HG"	"HG.bmp"	"L+"	1	"c"	147
"03-13-2014"	28001	4	2	50	"DC"	"DC.bmp"	"L+"	1	"c"	119
"03-13-2014"	28001	4	2	51	"L"	"L.bmp"	"L+"	1	"c"	384
"03-13-2014"	28001	4	2	52	"A"	"A.bmp"	"L+"	1	"c"	301
"03-13-2014"	28001	4	2	53	"IJ"	"IJ.bmp"	"R+"	1	"m"	156
"03-13-2014"	28001	4	2	54	"GH"	"GH.bmp"	"L+"	1	"c"	182
"03-13-2014"	28001	4	2	55	"JI"	"JI.bmp"	"R+"	1	"m"	133
"03-13-2014"	28001	4	2	56	"C"	"C.bmp"	"R+"	1	"m"	116
"03-13-2014"	28001	4	2	57	"E"	"E.bmp"	"R+"	1	"m"	125
"03-13-2014"	28001	4	2	58	"CD"	"CD.bmp"	"L+"	1	"c"	69
"03-13-2014"	28001	4	2	59	"K"	"K.bmp"	"L+"	1	"c"	244
"03-13-2014"	28001	4	2	60	"F"	"F.bmp"	"R+"	1	"m"	92
"03-13-2014"	28001	4	2	61	"BA"	"BA.bmp"	"R+"	1	"m"	258
"03-13-2014"	28001	4	2	62	"B"	"B.bmp"	"L+"	1	"c"	320
"03-13-2014"	28001	4	2	63	"AB"	"AB.bmp"	"R+"	1	"m"	63
"03-13-2014"	28001	4	2	64	"D"	"D.bmp"	"R+"	1	"m"	137
"03-13-2014"	28001	5	1	1	"CD"	"CD.bmp"	"L+"	1	"c"	145
"03-13-2014"	28001	5	1	2	"F"	"F.bmp"	"R+"	1	"m"	131
"03-13-2014"	28001	5	1	3	"HG"	"HG.bmp"	"L+"	1	"c"	130
"03-13-2014"	28001	5	1	4	"G"	"G.bmp"	"R+"	1	"m"	742
"03-13-2014"	28001	5	1	5	"KL"	"KL.bmp"	"R+"	1	"m"	1078
"03-13-2014"	28001	5	1	6	"LK"	"LK.bmp"	"R+"	1	"m"	124
"03-13-2014"	28001	5	1	7	"H"	"H.bmp"	"R+"	0	"c"	266
"03-13-2014"	28001	5	1	8	"B"	"B.bmp"	"L+"	1	"c"	113
"03-13-2014"	28001	5	1	9	"D"	"D.bmp"	"R+"	1	"m"	233
"03-13-2014"	28001	5	1	10	"EF"	"EF.bmp"	"L+"	1	"c"	399
"03-13-2014"	28001	5	1	11	"AB"	"AB.bmp"	"R+"	1	"m"	277
"03-13-2014"	28001	5	1	12	"E"	"E.bmp"	"R+"	1	"m"	224
"03-13-2014"	28001	5	1	13	"IJ"	"IJ.bmp"	"R+"	1	"m"	135
"03-13-2014"	28001	5	1	14	"A"	"A.bmp"	"L+"	1	"c"	148
"03-13-2014"	28001	5	1	15	"J"	"J.bmp"	"L+"	0	"m"	418
"03-13-2014"	28001	5	1	16	"JI"	"JI.bmp"	"R+"	1	"m"	129
"03-13-2014"	28001	5	1	17	"L"	"L.bmp"	"L+"	1	"c"	119
"03-13-2014"	28001	5	1	18	"K"	"K.bmp"	"L+"	1	"c"	1801
"03-13-2014"	28001	5	1	19	"C"	"C.bmp"	"R+"	0	"c"	1136
"03-13-2014"	28001	5	1	20	"FE"	"FE.bmp"	"L+"	1	"c"	131
"03-13-2014"	28001	5	1	21	"DC"	"DC.bmp"	"L+"	1	"c"	130
"03-13-2014"	28001	5	1	22	"BA"	"BA.bmp"	"R+"	1	"m"	115
"03-13-2014"	28001	5	1	23	"GH"	"GH.bmp"	"L+"	1	"c"	125
"03-13-2014"	28001	5	1	24	"I"	"I.bmp"	"L+"	1	"c"	123
"03-13-2014"	28001	5	1	25	"D"	"D.bmp"	"R+"	0	"c"	601
"03-13-2014"	28001	5	1	26	"L"	"L.bmp"	"L+"	0	"m"	384
"03-13-2014"	28001	5	1	27	"GH"	"GH.bmp"	"L+"	1	"c"	101
"03-13-2014"	28001	5	1	28	"DC"	"DC.bmp"	"L+"	1	"c"	98
"03-13-2014"	28001	5	1	29	"G"	"G.bmp"	"R+"	0	"c"	531
"03-13-2014"	28001	5	1	30	"B"	"B.bmp"	"L+"	1	"c"	530
"03-13-2014"	28001	5	1	31	"F"	"F.bmp"	"R+"	1	"m"	153
"03-13-2014"	28001	5	1	32	"AB"	"AB.bmp"	"R+"	1	"m"	433
"03-13-2014"	28001	5	1	33	"H"	"H.bmp"	"R+"	1	"m"	345
"03-13-2014"	28001	5	1	34	"K"	"K.bmp"	"L+"	1	"c"	148
"03-13-2014"	28001	5	1	35	"HG"	"HG.bmp"	"L+"	1	"c"	120
"03-13-2014"	28001	5	1	36	"FE"	"FE.bmp"	"L+"	1	"c"	130
"03-13-2014"	28001	5	1	37	"CD"	"CD.bmp"	"L+"	1	"c"	275
"03-13-2014"	28001	5	1	38	"LK"	"LK.bmp"	"R+"	1	"m"	269
"03-13-2014"	28001	5	1	39	"J"	"J.bmp"	"L+"	0	"m"	144
"03-13-2014"	28001	5	1	40	"BA"	"BA.bmp"	"R+"	1	"m"	53
"03-13-2014"	28001	5	1	41	"E"	"E.bmp"	"R+"	1	"m"	274
"03-13-2014"	28001	5	1	42	"JI"	"JI.bmp"	"R+"	1	"m"	105
"03-13-2014"	28001	5	1	43	"I"	"I.bmp"	"L+"	1	"c"	155
"03-13-2014"	28001	5	1	44	"IJ"	"IJ.bmp"	"R+"	1	"m"	56
"03-13-2014"	28001	5	1	45	"EF"	"EF.bmp"	"L+"	1	"c"	94
"03-13-2014"	28001	5	1	46	"C"	"C.bmp"	"R+"	1	"m"	97
"03-13-2014"	28001	5	1	47	"A"	"A.bmp"	"L+"	1	"c"	47
"03-13-2014"	28001	5	1	48	"KL"	"KL.bmp"	"R+"	0	"c"	115
"03-13-2014"	28001	5	1	49	"GH"	"GH.bmp"	"L+"	1	"c"	44
"03-13-2014"	28001	5	1	50	"I"	"I.bmp"	"L+"	1	"c"	96
"03-13-2014"	28001	5	1	51	"AB"	"AB.bmp"	"R+"	1	"m"	108
"03-13-2014"	28001	5	1	52	"CD"	"CD.bmp"	"L+"	1	"c"	116
"03-13-2014"	28001	5	1	53	"F"	"F.bmp"	"R+"	1	"m"	236
"03-13-2014"	28001	5	1	54	"G"	"G.bmp"	"R+"	1	"m"	80
"03-13-2014"	28001	5	1	55	"HG"	"HG.bmp"	"L+"	1	"c"	71
"03-13-2014"	28001	5	1	56	"DC"	"DC.bmp"	"L+"	1	"c"	96
"03-13-2014"	28001	5	1	57	"E"	"E.bmp"	"R+"	1	"m"	65
"03-13-2014"	28001	5	1	58	"JI"	"JI.bmp"	"R+"	1	"m"	83
"03-13-2014"	28001	5	1	59	"LK"	"LK.bmp"	"R+"	1	"m"	175
"03-13-2014"	28001	5	1	60	"J"	"J.bmp"	"L+"	1	"c"	155
"03-13-2014"	28001	5	1	61	"FE"	"FE.bmp"	"L+"	1	"c"	79
"03-13-2014"	28001	5	1	62	"A"	"A.bmp"	"L+"	1	"c"	89
"03-13-2014"	28001	5	1	63	"B"	"B.bmp"	"L+"	1	"c"	95
"03-13-2014"	28001	5	1	64	"K"	"K.bmp"	"L+"	1	"c"	1981
"03-13-2014"	28001	5	1	65	"C"	"C.bmp"	"R+"	1	"m"	69
"03-13-2014"	28001	5	1	66	"D"	"D.bmp"	"R+"	1	"m"	326
"03-13-2014"	28001	5	1	67	"IJ"	"IJ.bmp"	"R+"	1	"m"	127
"03-13-2014"	28001	5	1	68	"BA"	"BA.bmp"	"R+"	1	"m"	167
"03-13-2014"	28001	5	1	69	"L"	"L.bmp"	"L+"	1	"c"	1108
"03-13-2014"	28001	5	1	70	"H"	"H.bmp"	"R+"	0	"c"	127
"03-13-2014"	28001	5	1	71	"KL"	"KL.bmp"	"R+"	0	"c"	120
"03-13-2014"	28001	5	1	72	"EF"	"EF.bmp"	"L+"	0	"m"	188
"03-13-2014"	28002	1	1	1	"B"	"D.bmp"	"R+"	0	"c"	4425
"03-13-2014"	28002	1	1	2	"AB"	"CD.bmp"	"L+"	1	"c"	2880
"03-13-2014"	28002	1	1	3	"A"	"C.bmp"	"R+"	1	"m"	1899
"03-13-2014"	28002	1	1	4	"BA"	"DC.bmp"	"L+"	0	"m"	1796
"03-13-2014"	28002	1	1	5	"B"	"D.bmp"	"R+"	1	"m"	1473
"03-13-2014"	28002	1	1	6	"BA"	"DC.bmp"	"L+"	1	"c"	1457
"03-13-2014"	28002	1	1	7	"A"	"C.bmp"	"R+"	1	"m"	1928
"03-13-2014"	28002	1	1	8	"AB"	"CD.bmp"	"L+"	1	"c"	1504
"03-13-2014"	28002	1	1	9	"A"	"C.bmp"	"R+"	1	"m"	1555
"03-13-2014"	28002	1	1	10	"AB"	"CD.bmp"	"L+"	1	"c"	1192
"03-13-2014"	28002	1	1	11	"B"	"D.bmp"	"R+"	0	"c"	1041
"03-13-2014"	28002	1	1	12	"BA"	"DC.bmp"	"L+"	0	"m"	847
"03-13-2014"	28002	1	1	13	"B"	"D.bmp"	"R+"	1	"m"	666
"03-13-2014"	28002	1	1	14	"BA"	"DC.bmp"	"L+"	1	"c"	2260
"03-13-2014"	28002	1	1	15	"AB"	"CD.bmp"	"L+"	0	"m"	1180
"03-13-2014"	28002	1	1	16	"A"	"C.bmp"	"R+"	1	"m"	1717
"03-13-2014"	28002	1	1	17	"AB"	"CD.bmp"	"L+"	0	"m"	1026
"03-13-2014"	28002	1	1	18	"A"	"C.bmp"	"R+"	0	"c"	1855
"03-13-2014"	28002	1	1	19	"BA"	"DC.bmp"	"L+"	1	"c"	1188
"03-13-2014"	28002	1	1	20	"B"	"D.bmp"	"R+"	1	"m"	1737
"03-13-2014"	28002	1	1	21	"AB"	"CD.bmp"	"L+"	1	"c"	2161
"03-13-2014"	28002	1	1	22	"BA"	"DC.bmp"	"L+"	0	"m"	960
"03-13-2014"	28002	1	1	23	"A"	"C.bmp"	"R+"	1	"m"	1513
"03-13-2014"	28002	1	1	24	"B"	"D.bmp"	"R+"	0	"c"	1197
"03-13-2014"	28002	1	1	25	"BA"	"DC.bmp"	"L+"	1	"c"	1225
"03-13-2014"	28002	1	1	26	"AB"	"CD.bmp"	"L+"	0	"m"	876
"03-13-2014"	28002	1	1	27	"A"	"C.bmp"	"R+"	1	"m"	2937
"03-13-2014"	28002	1	1	28	"B"	"D.bmp"	"R+"	1	"m"	1249
"03-13-2014"	28002	1	1	29	"AB"	"CD.bmp"	"L+"	1	"c"	1850
"03-13-2014"	28002	1	1	30	"A"	"C.bmp"	"R+"	0	"c"	1345
"03-13-2014"	28002	1	1	31	"BA"	"DC.bmp"	"L+"	1	"c"	683
"03-13-2014"	28002	1	1	32	"B"	"D.bmp"	"R+"	0	"c"	1410
"03-13-2014"	28002	1	1	33	"BA"	"DC.bmp"	"L+"	1	"c"	988
"03-13-2014"	28002	1	1	34	"AB"	"CD.bmp"	"L+"	0	"m"	795
"03-13-2014"	28002	1	1	35	"B"	"D.bmp"	"R+"	1	"m"	2057
"03-13-2014"	28002	1	1	36	"A"	"C.bmp"	"R+"	0	"c"	1209
"03-13-2014"	28002	1	1	37	"B"	"D.bmp"	"R+"	0	"c"	1536
"03-13-2014"	28002	1	1	38	"BA"	"DC.bmp"	"L+"	1	"c"	2030
"03-13-2014"	28002	1	1	39	"A"	"C.bmp"	"R+"	1	"m"	860
"03-13-2014"	28002	1	1	40	"AB"	"CD.bmp"	"L+"	0	"m"	1134
"03-13-2014"	28002	1	1	41	"B"	"D.bmp"	"R+"	1	"m"	693
"03-13-2014"	28002	1	1	42	"AB"	"CD.bmp"	"L+"	0	"m"	1309
"03-13-2014"	28002	1	1	43	"A"	"C.bmp"	"R+"	0	"c"	5768
"03-13-2014"	28002	1	1	44	"BA"	"DC.bmp"	"L+"	0	"m"	1675
"03-13-2014"	28002	1	1	45	"A"	"C.bmp"	"R+"	1	"m"	2129
"03-13-2014"	28002	1	1	46	"B"	"D.bmp"	"R+"	1	"m"	2275
"03-13-2014"	28002	1	1	47	"BA"	"DC.bmp"	"L+"	0	"m"	1186
"03-13-2014"	28002	1	1	48	"AB"	"CD.bmp"	"L+"	1	"c"	2202
"03-13-2014"	28002	1	1	49	"B"	"D.bmp"	"R+"	0	"c"	997
"03-13-2014"	28002	1	1	50	"AB"	"CD.bmp"	"L+"	1	"c"	1150
"03-13-2014"	28002	1	1	51	"A"	"C.bmp"	"R+"	1	"m"	1820
"03-13-2014"	28002	1	1	52	"BA"	"DC.bmp"	"L+"	1	"c"	2116
"03-13-2014"	28002	1	1	53	"AB"	"CD.bmp"	"L+"	0	"m"	1238
"03-13-2014"	28002	1	1	54	"A"	"C.bmp"	"R+"	1	"m"	738
"03-13-2014"	28002	1	1	55	"B"	"D.bmp"	"R+"	0	"c"	1531
"03-13-2014"	28002	1	1	56	"BA"	"DC.bmp"	"L+"	0	"m"	1943
"03-13-2014"	28002	1	1	57	"AB"	"CD.bmp"	"L+"	0	"m"	3473
"03-13-2014"	28002	1	1	58	"A"	"C.bmp"	"R+"	1	"m"	2601
"03-13-2014"	28002	1	1	59	"BA"	"DC.bmp"	"L+"	1	"c"	2249
"03-13-2014"	28002	1	1	60	"B"	"D.bmp"	"R+"	0	"c"	1399
"03-13-2014"	28002	1	2	1	"A"	"C.bmp"	"R+"	1	"m"	2455
"03-13-2014"	28002	1	2	2	"AB"	"CD.bmp"	"L+"	0	"m"	1523
"03-13-2014"	28002	1	2	3	"B"	"D.bmp"	"R+"	0	"c"	1849
"03-13-2014"	28002	1	2	4	"BA"	"DC.bmp"	"L+"	1	"c"	1197
"03-13-2014"	28002	1	2	5	"B"	"D.bmp"	"R+"	1	"m"	2436
"03-13-2014"	28002	1	2	6	"AB"	"CD.bmp"	"L+"	0	"m"	1551
"03-13-2014"	28002	1	2	7	"A"	"C.bmp"	"R+"	0	"c"	2033
"03-13-2014"	28002	1	2	8	"BA"	"DC.bmp"	"L+"	1	"c"	2613
"03-13-2014"	28002	1	2	9	"B"	"D.bmp"	"R+"	1	"m"	1283
"03-13-2014"	28002	1	2	10	"A"	"C.bmp"	"R+"	0	"c"	1459
"03-13-2014"	28002	1	2	11	"AB"	"CD.bmp"	"L+"	1	"c"	2350
"03-13-2014"	28002	1	2	12	"BA"	"DC.bmp"	"L+"	0	"m"	1356
"03-13-2014"	28002	1	2	13	"B"	"D.bmp"	"R+"	0	"c"	2073
"03-13-2014"	28002	1	2	14	"BA"	"DC.bmp"	"L+"	1	"c"	809
"03-13-2014"	28002	1	2	15	"AB"	"CD.bmp"	"L+"	0	"m"	1303
"03-13-2014"	28002	1	2	16	"A"	"C.bmp"	"R+"	0	"c"	1990
"03-13-2014"	28002	1	2	17	"B"	"D.bmp"	"R+"	0	"c"	2338
"03-13-2014"	28002	1	2	18	"AB"	"CD.bmp"	"L+"	1	"c"	1690
"03-13-2014"	28002	1	2	19	"BA"	"DC.bmp"	"L+"	1	"c"	1286
"03-13-2014"	28002	1	2	20	"A"	"C.bmp"	"R+"	1	"m"	2447
"03-13-2014"	28002	1	2	21	"AB"	"CD.bmp"	"L+"	0	"m"	3154
"03-13-2014"	28002	1	2	22	"A"	"C.bmp"	"R+"	1	"m"	909
"03-13-2014"	28002	1	2	23	"BA"	"DC.bmp"	"L+"	0	"m"	2281
"03-13-2014"	28002	1	2	24	"B"	"D.bmp"	"R+"	1	"m"	1032
"03-13-2014"	28002	1	2	25	"AB"	"CD.bmp"	"L+"	1	"c"	1238
"03-13-2014"	28002	1	2	26	"BA"	"DC.bmp"	"L+"	1	"c"	1239
"03-13-2014"	28002	1	2	27	"A"	"C.bmp"	"R+"	1	"m"	800
"03-13-2014"	28002	1	2	28	"B"	"D.bmp"	"R+"	0	"c"	1195
"03-13-2014"	28002	1	2	29	"A"	"C.bmp"	"R+"	0	"c"	1016
"03-13-2014"	28002	1	2	30	"AB"	"CD.bmp"	"L+"	0	"m"	789
"03-13-2014"	28002	1	2	31	"B"	"D.bmp"	"R+"	1	"m"	2220
"03-13-2014"	28002	1	2	32	"BA"	"DC.bmp"	"L+"	0	"m"	1894
"03-13-2014"	28002	1	2	33	"B"	"D.bmp"	"R+"	1	"m"	1200
"03-13-2014"	28002	1	2	34	"AB"	"CD.bmp"	"L+"	0	"m"	1096
"03-13-2014"	28002	1	2	35	"A"	"C.bmp"	"R+"	1	"m"	2021
"03-13-2014"	28002	1	2	36	"BA"	"DC.bmp"	"L+"	0	"m"	1496
"03-13-2014"	28002	1	2	37	"A"	"C.bmp"	"R+"	1	"m"	2380
"03-13-2014"	28002	1	2	38	"BA"	"DC.bmp"	"L+"	1	"c"	1130
"03-13-2014"	28002	1	2	39	"AB"	"CD.bmp"	"L+"	1	"c"	982
"03-13-2014"	28002	1	2	40	"B"	"D.bmp"	"R+"	1	"m"	921
"03-13-2014"	28002	1	2	41	"AB"	"CD.bmp"	"L+"	1	"c"	1377
"03-13-2014"	28002	1	2	42	"A"	"C.bmp"	"R+"	1	"m"	1350
"03-13-2014"	28002	1	2	43	"B"	"D.bmp"	"R+"	1	"m"	1047
"03-13-2014"	28002	1	2	44	"BA"	"DC.bmp"	"L+"	1	"c"	2326
"03-13-2014"	28002	1	2	45	"AB"	"CD.bmp"	"L+"	0	"m"	804
"03-13-2014"	28002	1	2	46	"A"	"C.bmp"	"R+"	1	"m"	1186
"03-13-2014"	28002	1	2	47	"BA"	"DC.bmp"	"L+"	0	"m"	971
"03-13-2014"	28002	1	2	48	"B"	"D.bmp"	"R+"	0	"c"	1649
"03-13-2014"	28002	1	2	49	"AB"	"CD.bmp"	"L+"	1	"c"	1068
"03-13-2014"	28002	1	2	50	"B"	"D.bmp"	"R+"	0	"c"	1210
"03-13-2014"	28002	1	2	51	"A"	"C.bmp"	"R+"	1	"m"	933
"03-13-2014"	28002	1	2	52	"BA"	"DC.bmp"	"L+"	0	"m"	769
"03-13-2014"	28002	1	2	53	"A"	"C.bmp"	"R+"	1	"m"	831
"03-13-2014"	28002	1	2	54	"B"	"D.bmp"	"R+"	1	"m"	929
"03-13-2014"	28002	1	2	55	"BA"	"DC.bmp"	"L+"	1	"c"	645
"03-13-2014"	28002	1	2	56	"AB"	"CD.bmp"	"L+"	0	"m"	1553
"03-13-2014"	28002	1	2	57	"BA"	"DC.bmp"	"L+"	1	"c"	1224
"03-13-2014"	28002	1	2	58	"B"	"D.bmp"	"R+"	1	"m"	1146
"03-13-2014"	28002	1	2	59	"A"	"C.bmp"	"R+"	1	"m"	699
"03-13-2014"	28002	1	2	60	"AB"	"CD.bmp"	"L+"	0	"m"	965
"03-13-2014"	28002	1	3	1	"A"	"C.bmp"	"R+"	1	"m"	928
"03-13-2014"	28002	1	3	2	"AB"	"CD.bmp"	"L+"	0	"m"	1033
"03-13-2014"	28002	1	3	3	"BA"	"DC.bmp"	"L+"	0	"m"	1140
"03-13-2014"	28002	1	3	4	"B"	"D.bmp"	"R+"	1	"m"	984
"03-13-2014"	28002	1	3	5	"A"	"C.bmp"	"R+"	1	"m"	743
"03-13-2014"	28002	1	3	6	"AB"	"CD.bmp"	"L+"	1	"c"	499
"03-13-2014"	28002	1	3	7	"B"	"D.bmp"	"R+"	0	"c"	1121
"03-13-2014"	28002	1	3	8	"BA"	"DC.bmp"	"L+"	1	"c"	767
"03-13-2014"	28002	1	3	9	"B"	"D.bmp"	"R+"	1	"m"	1463
"03-13-2014"	28002	1	3	10	"BA"	"DC.bmp"	"L+"	0	"m"	775
"03-13-2014"	28002	1	3	11	"A"	"C.bmp"	"R+"	1	"m"	1602
"03-13-2014"	28002	1	3	12	"AB"	"CD.bmp"	"L+"	0	"m"	698
"03-13-2014"	28002	1	3	13	"BA"	"DC.bmp"	"L+"	0	"m"	677
"03-13-2014"	28002	1	3	14	"A"	"C.bmp"	"R+"	1	"m"	1039
"03-13-2014"	28002	1	3	15	"AB"	"CD.bmp"	"L+"	1	"c"	631
"03-13-2014"	28002	1	3	16	"B"	"D.bmp"	"R+"	0	"c"	654
"03-13-2014"	28002	1	3	17	"BA"	"DC.bmp"	"L+"	1	"c"	539
"03-13-2014"	28002	1	3	18	"B"	"D.bmp"	"R+"	0	"c"	1000
"03-13-2014"	28002	1	3	19	"AB"	"CD.bmp"	"L+"	1	"c"	1678
"03-13-2014"	28002	1	3	20	"A"	"C.bmp"	"R+"	1	"m"	964
"03-13-2014"	28002	1	3	21	"AB"	"CD.bmp"	"L+"	0	"m"	950
"03-13-2014"	28002	1	3	22	"B"	"D.bmp"	"R+"	1	"m"	1130
"03-13-2014"	28002	1	3	23	"BA"	"DC.bmp"	"L+"	0	"m"	1431
"03-13-2014"	28002	1	3	24	"A"	"C.bmp"	"R+"	0	"c"	1036
"03-13-2014"	28002	1	3	25	"B"	"D.bmp"	"R+"	0	"c"	507
"03-13-2014"	28002	1	3	26	"BA"	"DC.bmp"	"L+"	1	"c"	792
"03-13-2014"	28002	1	3	27	"A"	"C.bmp"	"R+"	0	"c"	1074
"03-13-2014"	28002	1	3	28	"AB"	"CD.bmp"	"L+"	0	"m"	1503
"03-13-2014"	28002	1	3	29	"BA"	"DC.bmp"	"L+"	0	"m"	720
"03-13-2014"	28002	1	3	30	"A"	"C.bmp"	"R+"	1	"m"	759
"03-13-2014"	28002	1	3	31	"AB"	"CD.bmp"	"L+"	1	"c"	1171
"03-13-2014"	28002	1	3	32	"B"	"D.bmp"	"R+"	0	"c"	774
"03-13-2014"	28002	1	3	33	"AB"	"CD.bmp"	"L+"	1	"c"	1831
"03-13-2014"	28002	1	3	34	"BA"	"DC.bmp"	"L+"	0	"m"	1069
"03-13-2014"	28002	1	3	35	"B"	"D.bmp"	"R+"	1	"m"	966
"03-13-2014"	28002	1	3	36	"A"	"C.bmp"	"R+"	1	"m"	1910
"03-13-2014"	28002	1	3	37	"AB"	"CD.bmp"	"L+"	1	"c"	1158
"03-13-2014"	28002	1	3	38	"BA"	"DC.bmp"	"L+"	0	"m"	883
"03-13-2014"	28002	1	3	39	"A"	"C.bmp"	"R+"	1	"m"	1400
"03-13-2014"	28002	1	3	40	"B"	"D.bmp"	"R+"	0	"c"	1749
"03-13-2014"	28002	1	3	41	"BA"	"DC.bmp"	"L+"	1	"c"	752
"03-13-2014"	28002	1	3	42	"B"	"D.bmp"	"R+"	1	"m"	1348
"03-13-2014"	28002	1	3	43	"A"	"C.bmp"	"R+"	1	"m"	2277
"03-13-2014"	28002	1	3	44	"AB"	"CD.bmp"	"L+"	1	"c"	2311
"03-13-2014"	28002	1	3	45	"A"	"C.bmp"	"R+"	0	"c"	1389
"03-13-2014"	28002	1	3	46	"BA"	"DC.bmp"	"L+"	1	"c"	1160
"03-13-2014"	28002	1	3	47	"B"	"D.bmp"	"R+"	0	"c"	1575
"03-13-2014"	28002	1	3	48	"AB"	"CD.bmp"	"L+"	0	"m"	1154
"03-13-2014"	28002	1	3	49	"B"	"D.bmp"	"R+"	1	"m"	1383
"03-13-2014"	28002	1	3	50	"AB"	"CD.bmp"	"L+"	0	"m"	1598
"03-13-2014"	28002	1	3	51	"BA"	"DC.bmp"	"L+"	1	"c"	698
"03-13-2014"	28002	1	3	52	"A"	"C.bmp"	"R+"	0	"c"	803
"03-13-2014"	28002	1	3	53	"B"	"D.bmp"	"R+"	0	"c"	1739
"03-13-2014"	28002	1	3	54	"BA"	"DC.bmp"	"L+"	1	"c"	1530
"03-13-2014"	28002	1	3	55	"AB"	"CD.bmp"	"L+"	0	"m"	1018
"03-13-2014"	28002	1	3	56	"A"	"C.bmp"	"R+"	1	"m"	1822
"03-13-2014"	28002	1	3	57	"BA"	"DC.bmp"	"L+"	0	"m"	847
"03-13-2014"	28002	1	3	58	"B"	"D.bmp"	"R+"	1	"m"	1406
"03-13-2014"	28002	1	3	59	"AB"	"CD.bmp"	"L+"	1	"c"	1295
"03-13-2014"	28002	1	3	60	"A"	"C.bmp"	"R+"	1	"m"	2034
"03-13-2014"	28002	1	4	1	"AB"	"CD.bmp"	"L+"	0	"m"	520
"03-13-2014"	28002	1	4	2	"A"	"C.bmp"	"R+"	1	"m"	840
"03-13-2014"	28002	1	4	3	"B"	"D.bmp"	"R+"	0	"c"	1183
"03-13-2014"	28002	1	4	4	"BA"	"DC.bmp"	"L+"	1	"c"	607
"03-13-2014"	28002	1	4	5	"A"	"C.bmp"	"R+"	0	"c"	2100
"03-13-2014"	28002	1	4	6	"B"	"D.bmp"	"R+"	0	"c"	1423
"03-13-2014"	28002	1	4	7	"AB"	"CD.bmp"	"L+"	1	"c"	1957
"03-13-2014"	28002	1	4	8	"BA"	"DC.bmp"	"L+"	0	"m"	1075
"03-13-2014"	28002	1	4	9	"A"	"C.bmp"	"R+"	0	"c"	1021
"03-13-2014"	28002	1	4	10	"B"	"D.bmp"	"R+"	0	"c"	1112
"03-13-2014"	28002	1	4	11	"AB"	"CD.bmp"	"L+"	1	"c"	2149
"03-13-2014"	28002	1	4	12	"BA"	"DC.bmp"	"L+"	0	"m"	810
"03-13-2014"	28002	1	4	13	"A"	"C.bmp"	"R+"	1	"m"	973
"03-13-2014"	28002	1	4	14	"BA"	"DC.bmp"	"L+"	0	"m"	1760
"03-13-2014"	28002	1	4	15	"B"	"D.bmp"	"R+"	1	"m"	1070
"03-13-2014"	28002	1	4	16	"AB"	"CD.bmp"	"L+"	1	"c"	2450
"03-13-2014"	28002	1	4	17	"BA"	"DC.bmp"	"L+"	1	"c"	1110
"03-13-2014"	28002	1	4	18	"AB"	"CD.bmp"	"L+"	0	"m"	1127
"03-13-2014"	28002	1	4	19	"A"	"C.bmp"	"R+"	1	"m"	1103
"03-13-2014"	28002	1	4	20	"B"	"D.bmp"	"R+"	1	"m"	1451
"03-13-2014"	28002	1	4	21	"BA"	"DC.bmp"	"L+"	1	"c"	928
"03-13-2014"	28002	1	4	22	"B"	"D.bmp"	"R+"	1	"m"	856
"03-13-2014"	28002	1	4	23	"AB"	"CD.bmp"	"L+"	0	"m"	1255
"03-13-2014"	28002	1	4	24	"A"	"C.bmp"	"R+"	0	"c"	1343
"03-13-2014"	28002	1	4	25	"BA"	"DC.bmp"	"L+"	1	"c"	638
"03-13-2014"	28002	1	4	26	"AB"	"CD.bmp"	"L+"	1	"c"	1116
"03-13-2014"	28002	1	4	27	"A"	"C.bmp"	"R+"	0	"c"	1516
"03-13-2014"	28002	1	4	28	"B"	"D.bmp"	"R+"	0	"c"	853
"03-13-2014"	28002	1	4	29	"A"	"C.bmp"	"R+"	0	"c"	1424
"03-13-2014"	28002	1	4	30	"AB"	"CD.bmp"	"L+"	1	"c"	1255
"03-13-2014"	28002	1	4	31	"BA"	"DC.bmp"	"L+"	0	"m"	965
"03-13-2014"	28002	1	4	32	"B"	"D.bmp"	"R+"	1	"m"	1031
"03-13-2014"	28002	1	4	33	"BA"	"DC.bmp"	"L+"	0	"m"	1087
"03-13-2014"	28002	1	4	34	"AB"	"CD.bmp"	"L+"	1	"c"	964
"03-13-2014"	28002	1	4	35	"B"	"D.bmp"	"R+"	0	"c"	1357
"03-13-2014"	28002	1	4	36	"A"	"C.bmp"	"R+"	0	"c"	794
"03-13-2014"	28002	1	4	37	"AB"	"CD.bmp"	"L+"	1	"c"	885
"03-13-2014"	28002	1	4	38	"B"	"D.bmp"	"R+"	1	"m"	959
"03-13-2014"	28002	1	4	39	"A"	"C.bmp"	"R+"	1	"m"	1481
"03-13-2014"	28002	1	4	40	"BA"	"DC.bmp"	"L+"	0	"m"	947
"03-13-2014"	28002	1	4	41	"A"	"C.bmp"	"R+"	0	"c"	2087
"03-13-2014"	28002	1	4	42	"B"	"D.bmp"	"R+"	0	"c"	674
"03-13-2014"	28002	1	4	43	"BA"	"DC.bmp"	"L+"	1	"c"	1432
"03-13-2014"	28002	1	4	44	"AB"	"CD.bmp"	"L+"	0	"m"	891
"03-13-2014"	28002	1	4	45	"B"	"D.bmp"	"R+"	1	"m"	639
"03-13-2014"	28002	1	4	46	"A"	"C.bmp"	"R+"	1	"m"	831
"03-13-2014"	28002	1	4	47	"BA"	"DC.bmp"	"L+"	0	"m"	1325
"03-13-2014"	28002	1	4	48	"AB"	"CD.bmp"	"L+"	0	"m"	791
"03-13-2014"	28002	1	4	49	"B"	"D.bmp"	"R+"	1	"m"	575
"03-13-2014"	28002	1	4	50	"BA"	"DC.bmp"	"L+"	1	"c"	658
"03-13-2014"	28002	1	4	51	"AB"	"CD.bmp"	"L+"	1	"c"	914
"03-13-2014"	28002	1	4	52	"A"	"C.bmp"	"R+"	1	"m"	1034
"03-13-2014"	28002	1	4	53	"BA"	"DC.bmp"	"L+"	0	"m"	1064
"03-13-2014"	28002	1	4	54	"A"	"C.bmp"	"R+"	1	"m"	642
"03-13-2014"	28002	1	4	55	"B"	"D.bmp"	"R+"	1	"m"	906
"03-13-2014"	28002	1	4	56	"AB"	"CD.bmp"	"L+"	0	"m"	1298
"03-13-2014"	28002	1	4	57	"A"	"C.bmp"	"R+"	1	"m"	778
"03-13-2014"	28002	1	4	58	"AB"	"CD.bmp"	"L+"	1	"c"	1288
"03-13-2014"	28002	1	4	59	"BA"	"DC.bmp"	"L+"	0	"m"	1813
"03-13-2014"	28002	1	4	60	"B"	"D.bmp"	"R+"	1	"m"	760
"03-13-2014"	28002	1	5	1	"AB"	"CD.bmp"	"L+"	1	"c"	993
"03-13-2014"	28002	1	5	2	"B"	"D.bmp"	"R+"	0	"c"	835
"03-13-2014"	28002	1	5	3	"BA"	"DC.bmp"	"L+"	1	"c"	1015
"03-13-2014"	28002	1	5	4	"A"	"C.bmp"	"R+"	0	"c"	989
"03-13-2014"	28002	1	5	5	"B"	"D.bmp"	"R+"	0	"c"	1664
"03-13-2014"	28002	1	5	6	"A"	"C.bmp"	"R+"	0	"c"	1243
"03-13-2014"	28002	1	5	7	"AB"	"CD.bmp"	"L+"	1	"c"	1365
"03-13-2014"	28002	1	5	8	"BA"	"DC.bmp"	"L+"	1	"c"	1490
"03-13-2014"	28002	1	5	9	"AB"	"CD.bmp"	"L+"	0	"m"	716
"03-13-2014"	28002	1	5	10	"B"	"D.bmp"	"R+"	0	"c"	1669
"03-13-2014"	28002	1	5	11	"BA"	"DC.bmp"	"L+"	0	"m"	656
"03-13-2014"	28002	1	5	12	"A"	"C.bmp"	"R+"	0	"c"	989
"03-13-2014"	28002	1	5	13	"AB"	"CD.bmp"	"L+"	0	"m"	627
"03-13-2014"	28002	1	5	14	"A"	"C.bmp"	"R+"	1	"m"	877
"03-13-2014"	28002	1	5	15	"B"	"D.bmp"	"R+"	1	"m"	1613
"03-13-2014"	28002	1	5	16	"BA"	"DC.bmp"	"L+"	0	"m"	1874
"03-13-2014"	28002	1	5	17	"A"	"C.bmp"	"R+"	1	"m"	868
"03-13-2014"	28002	1	5	18	"B"	"D.bmp"	"R+"	1	"m"	1133
"03-13-2014"	28002	1	5	19	"BA"	"DC.bmp"	"L+"	1	"c"	1258
"03-13-2014"	28002	1	5	20	"AB"	"CD.bmp"	"L+"	1	"c"	962
"03-13-2014"	28002	1	5	21	"B"	"D.bmp"	"R+"	1	"m"	991
"03-13-2014"	28002	1	5	22	"BA"	"DC.bmp"	"L+"	0	"m"	1164
"03-13-2014"	28002	1	5	23	"AB"	"CD.bmp"	"L+"	0	"m"	545
"03-13-2014"	28002	1	5	24	"A"	"C.bmp"	"R+"	1	"m"	1279
"03-13-2014"	28002	1	5	25	"BA"	"DC.bmp"	"L+"	1	"c"	669
"03-13-2014"	28002	1	5	26	"AB"	"CD.bmp"	"L+"	1	"c"	734
"03-13-2014"	28002	1	5	27	"A"	"C.bmp"	"R+"	0	"c"	754
"03-13-2014"	28002	1	5	28	"B"	"D.bmp"	"R+"	0	"c"	660
"03-13-2014"	28002	1	5	29	"BA"	"DC.bmp"	"L+"	1	"c"	977
"03-13-2014"	28002	1	5	30	"B"	"D.bmp"	"R+"	1	"m"	993
"03-13-2014"	28002	1	5	31	"A"	"C.bmp"	"R+"	1	"m"	667
"03-13-2014"	28002	1	5	32	"AB"	"CD.bmp"	"L+"	0	"m"	1272
"03-13-2014"	28002	1	5	33	"B"	"D.bmp"	"R+"	1	"m"	688
"03-13-2014"	28002	1	5	34	"BA"	"DC.bmp"	"L+"	1	"c"	1267
"03-13-2014"	28002	1	5	35	"A"	"C.bmp"	"R+"	0	"c"	831
"03-13-2014"	28002	1	5	36	"AB"	"CD.bmp"	"L+"	1	"c"	731
"03-13-2014"	28002	1	5	37	"B"	"D.bmp"	"R+"	0	"c"	1439
"03-13-2014"	28002	1	5	38	"BA"	"DC.bmp"	"L+"	1	"c"	643
"03-13-2014"	28002	1	5	39	"A"	"C.bmp"	"R+"	1	"m"	1223
"03-13-2014"	28002	1	5	40	"AB"	"CD.bmp"	"L+"	0	"m"	1014
"03-13-2014"	28002	1	5	41	"BA"	"DC.bmp"	"L+"	0	"m"	643
"03-13-2014"	28002	1	5	42	"A"	"C.bmp"	"R+"	0	"c"	631
"03-13-2014"	28002	1	5	43	"AB"	"CD.bmp"	"L+"	0	"m"	696
"03-13-2014"	28002	1	5	44	"B"	"D.bmp"	"R+"	1	"m"	1120
"03-13-2014"	28002	1	5	45	"AB"	"CD.bmp"	"L+"	1	"c"	2192
"03-13-2014"	28002	1	5	46	"B"	"D.bmp"	"R+"	0	"c"	856
"03-13-2014"	28002	1	5	47	"BA"	"DC.bmp"	"L+"	1	"c"	631
"03-13-2014"	28002	1	5	48	"A"	"C.bmp"	"R+"	0	"c"	972
"03-13-2014"	28002	1	5	49	"B"	"D.bmp"	"R+"	0	"c"	893
"03-13-2014"	28002	1	5	50	"A"	"C.bmp"	"R+"	0	"c"	910
"03-13-2014"	28002	1	5	51	"AB"	"CD.bmp"	"L+"	1	"c"	824
"03-13-2014"	28002	1	5	52	"BA"	"DC.bmp"	"L+"	1	"c"	851
"03-13-2014"	28002	1	5	53	"AB"	"CD.bmp"	"L+"	0	"m"	1774
"03-13-2014"	28002	1	5	54	"BA"	"DC.bmp"	"L+"	0	"m"	721
"03-13-2014"	28002	1	5	55	"B"	"D.bmp"	"R+"	1	"m"	758
"03-13-2014"	28002	1	5	56	"A"	"C.bmp"	"R+"	0	"c"	1468
"03-13-2014"	28002	1	5	57	"AB"	"CD.bmp"	"L+"	0	"m"	694
"03-13-2014"	28002	1	5	58	"B"	"D.bmp"	"R+"	0	"c"	803
"03-13-2014"	28002	1	5	59	"A"	"C.bmp"	"R+"	1	"m"	789
"03-13-2014"	28002	1	5	60	"BA"	"DC.bmp"	"L+"	0	"m"	863
"03-13-2014"	28002	1	6	1	"AB"	"CD.bmp"	"L+"	1	"c"	824
"03-13-2014"	28002	1	6	2	"A"	"C.bmp"	"R+"	0	"c"	880
"03-13-2014"	28002	1	6	3	"BA"	"DC.bmp"	"L+"	0	"m"	1703
"03-13-2014"	28002	1	6	4	"B"	"D.bmp"	"R+"	1	"m"	732
"03-13-2014"	28002	1	6	5	"BA"	"DC.bmp"	"L+"	0	"m"	692
"03-13-2014"	28002	1	6	6	"A"	"C.bmp"	"R+"	1	"m"	1280
"03-13-2014"	28002	1	6	7	"AB"	"CD.bmp"	"L+"	0	"m"	1222
"03-13-2014"	28002	1	6	8	"B"	"D.bmp"	"R+"	1	"m"	894
"03-13-2014"	28002	1	6	9	"A"	"C.bmp"	"R+"	1	"m"	1050
"03-13-2014"	28002	1	6	10	"B"	"D.bmp"	"R+"	0	"c"	653
"03-13-2014"	28002	1	6	11	"BA"	"DC.bmp"	"L+"	0	"m"	754
"03-13-2014"	28002	1	6	12	"AB"	"CD.bmp"	"L+"	0	"m"	710
"03-13-2014"	28002	1	6	13	"BA"	"DC.bmp"	"L+"	1	"c"	766
"03-13-2014"	28002	1	6	14	"AB"	"CD.bmp"	"L+"	1	"c"	1238
"03-13-2014"	28002	1	6	15	"A"	"C.bmp"	"R+"	0	"c"	687
"03-13-2014"	28002	1	6	16	"B"	"D.bmp"	"R+"	0	"c"	2038
"03-13-2014"	28002	1	6	17	"A"	"C.bmp"	"R+"	0	"c"	680
"03-13-2014"	28002	1	6	18	"BA"	"DC.bmp"	"L+"	1	"c"	654
"03-13-2014"	28002	1	6	19	"AB"	"CD.bmp"	"L+"	0	"m"	940
"03-13-2014"	28002	1	6	20	"B"	"D.bmp"	"R+"	1	"m"	716
"03-13-2014"	28002	1	6	21	"AB"	"CD.bmp"	"L+"	0	"m"	715
"03-13-2014"	28002	1	6	22	"BA"	"DC.bmp"	"L+"	0	"m"	710
"03-13-2014"	28002	1	6	23	"B"	"D.bmp"	"R+"	1	"m"	648
"03-13-2014"	28002	1	6	24	"A"	"C.bmp"	"R+"	1	"m"	748
"03-13-2014"	28002	1	6	25	"BA"	"DC.bmp"	"L+"	1	"c"	587
"03-13-2014"	28002	1	6	26	"AB"	"CD.bmp"	"L+"	1	"c"	670
"03-13-2014"	28002	1	6	27	"B"	"D.bmp"	"R+"	1	"m"	1847
"03-13-2014"	28002	1	6	28	"A"	"C.bmp"	"R+"	1	"m"	840
"03-13-2014"	28002	1	6	29	"BA"	"DC.bmp"	"L+"	1	"c"	1051
"03-13-2014"	28002	1	6	30	"AB"	"CD.bmp"	"L+"	1	"c"	755
"03-13-2014"	28002	1	6	31	"A"	"C.bmp"	"R+"	1	"m"	1321
"03-13-2014"	28002	1	6	32	"B"	"D.bmp"	"R+"	1	"m"	868
"03-13-2014"	28002	1	6	33	"BA"	"DC.bmp"	"L+"	1	"c"	618
"03-13-2014"	28002	1	6	34	"B"	"D.bmp"	"R+"	0	"c"	818
"03-13-2014"	28002	1	6	35	"AB"	"CD.bmp"	"L+"	1	"c"	557
"03-13-2014"	28002	1	6	36	"A"	"C.bmp"	"R+"	0	"c"	1033
"03-13-2014"	28002	1	6	37	"BA"	"DC.bmp"	"L+"	1	"c"	573
"03-13-2014"	28002	1	6	38	"AB"	"CD.bmp"	"L+"	0	"m"	814
"03-13-2014"	28002	1	6	39	"B"	"D.bmp"	"R+"	1	"m"	562
"03-13-2014"	28002	1	6	40	"A"	"C.bmp"	"R+"	1	"m"	753
"03-13-2014"	28002	1	6	41	"AB"	"CD.bmp"	"L+"	1	"c"	1103
"03-13-2014"	28002	1	6	42	"BA"	"DC.bmp"	"L+"	1	"c"	1490
"03-13-2014"	28002	1	6	43	"A"	"C.bmp"	"R+"	0	"c"	1270
"03-13-2014"	28002	1	6	44	"B"	"D.bmp"	"R+"	0	"c"	971
"03-13-2014"	28002	1	6	45	"AB"	"CD.bmp"	"L+"	1	"c"	890
"03-13-2014"	28002	1	6	46	"A"	"C.bmp"	"R+"	0	"c"	1681
"03-13-2014"	28002	1	6	47	"B"	"D.bmp"	"R+"	0	"c"	1064
"03-13-2014"	28002	1	6	48	"BA"	"DC.bmp"	"L+"	1	"c"	1263
"03-13-2014"	28002	1	6	49	"AB"	"CD.bmp"	"L+"	0	"m"	578
"03-13-2014"	28002	1	6	50	"A"	"C.bmp"	"R+"	0	"c"	745
"03-13-2014"	28002	1	6	51	"B"	"D.bmp"	"R+"	1	"m"	770
"03-13-2014"	28002	1	6	52	"BA"	"DC.bmp"	"L+"	0	"m"	866
"03-13-2014"	28002	1	6	53	"A"	"C.bmp"	"R+"	1	"m"	1644
"03-13-2014"	28002	1	6	54	"AB"	"CD.bmp"	"L+"	0	"m"	645
"03-13-2014"	28002	1	6	55	"B"	"D.bmp"	"R+"	1	"m"	1327
"03-13-2014"	28002	1	6	56	"BA"	"DC.bmp"	"L+"	1	"c"	727
"03-13-2014"	28002	1	6	57	"B"	"D.bmp"	"R+"	0	"c"	693
"03-13-2014"	28002	1	6	58	"A"	"C.bmp"	"R+"	0	"c"	694
"03-13-2014"	28002	1	6	59	"BA"	"DC.bmp"	"L+"	1	"c"	1330
"03-13-2014"	28002	1	6	60	"AB"	"CD.bmp"	"L+"	0	"m"	803
"03-13-2014"	28002	1	7	1	"B"	"D.bmp"	"R+"	1	"m"	1270
"03-13-2014"	28002	1	7	2	"AB"	"CD.bmp"	"L+"	0	"m"	1382
"03-13-2014"	28002	1	7	3	"BA"	"DC.bmp"	"L+"	0	"m"	755
"03-13-2014"	28002	1	7	4	"A"	"C.bmp"	"R+"	1	"m"	659
"03-13-2014"	28002	1	7	5	"BA"	"DC.bmp"	"L+"	0	"m"	768
"03-13-2014"	28002	1	7	6	"B"	"D.bmp"	"R+"	1	"m"	902
"03-13-2014"	28002	1	7	7	"AB"	"CD.bmp"	"L+"	1	"c"	912
"03-13-2014"	28002	1	7	8	"A"	"C.bmp"	"R+"	0	"c"	701
"03-13-2014"	28002	1	7	9	"BA"	"DC.bmp"	"L+"	1	"c"	1191
"03-13-2014"	28002	1	7	10	"B"	"D.bmp"	"R+"	0	"c"	590
"03-13-2014"	28002	1	7	11	"A"	"C.bmp"	"R+"	0	"c"	924
"03-13-2014"	28002	1	7	12	"AB"	"CD.bmp"	"L+"	1	"c"	770
"03-13-2014"	28002	1	7	13	"A"	"C.bmp"	"R+"	0	"c"	722
"03-13-2014"	28002	1	7	14	"BA"	"DC.bmp"	"L+"	1	"c"	688
"03-13-2014"	28002	1	7	15	"AB"	"CD.bmp"	"L+"	0	"m"	761
"03-13-2014"	28002	1	7	16	"B"	"D.bmp"	"R+"	1	"m"	1030
"03-13-2014"	28002	1	7	17	"BA"	"DC.bmp"	"L+"	0	"m"	1276
"03-13-2014"	28002	1	7	18	"A"	"C.bmp"	"R+"	1	"m"	734
"03-13-2014"	28002	1	7	19	"AB"	"CD.bmp"	"L+"	0	"m"	1600
"03-13-2014"	28002	1	7	20	"B"	"D.bmp"	"R+"	1	"m"	798
"03-13-2014"	28002	1	7	21	"A"	"C.bmp"	"R+"	1	"m"	1488
"03-13-2014"	28002	1	7	22	"AB"	"CD.bmp"	"L+"	1	"c"	904
"03-13-2014"	28002	1	7	23	"BA"	"DC.bmp"	"L+"	1	"c"	809
"03-13-2014"	28002	1	7	24	"B"	"D.bmp"	"R+"	1	"m"	1047
"03-13-2014"	28002	1	7	25	"A"	"C.bmp"	"R+"	1	"m"	937
"03-13-2014"	28002	1	7	26	"B"	"D.bmp"	"R+"	0	"c"	682
"03-13-2014"	28002	1	7	27	"AB"	"CD.bmp"	"L+"	1	"c"	543
"03-13-2014"	28002	1	7	28	"BA"	"DC.bmp"	"L+"	1	"c"	604
"03-13-2014"	28002	1	7	29	"B"	"D.bmp"	"R+"	1	"m"	708
"03-13-2014"	28002	1	7	30	"AB"	"CD.bmp"	"L+"	0	"m"	1174
"03-13-2014"	28002	1	7	31	"A"	"C.bmp"	"R+"	1	"m"	548
"03-13-2014"	28002	1	7	32	"BA"	"DC.bmp"	"L+"	0	"m"	604
"03-13-2014"	28002	1	7	33	"B"	"D.bmp"	"R+"	1	"m"	902
"03-13-2014"	28002	1	7	34	"BA"	"DC.bmp"	"L+"	1	"c"	702
"03-13-2014"	28002	1	7	35	"AB"	"CD.bmp"	"L+"	1	"c"	919
"03-13-2014"	28002	1	7	36	"A"	"C.bmp"	"R+"	0	"c"	992
"03-13-2014"	28002	1	7	37	"B"	"D.bmp"	"R+"	0	"c"	625
"03-13-2014"	28002	1	7	38	"BA"	"DC.bmp"	"L+"	1	"c"	477
"03-13-2014"	28002	1	7	39	"A"	"C.bmp"	"R+"	1	"m"	1060
"03-13-2014"	28002	1	7	40	"AB"	"CD.bmp"	"L+"	0	"m"	742
"03-13-2014"	28002	1	7	41	"A"	"C.bmp"	"R+"	1	"m"	642
"03-13-2014"	28002	1	7	42	"BA"	"DC.bmp"	"L+"	0	"m"	1012
"03-13-2014"	28002	1	7	43	"AB"	"CD.bmp"	"L+"	0	"m"	645
"03-13-2014"	28002	1	7	44	"B"	"D.bmp"	"R+"	1	"m"	875
"03-13-2014"	28002	1	7	45	"AB"	"CD.bmp"	"L+"	0	"m"	621
"03-13-2014"	28002	1	7	46	"A"	"C.bmp"	"R+"	1	"m"	708
"03-13-2014"	28002	1	7	47	"BA"	"DC.bmp"	"L+"	1	"c"	660
"03-13-2014"	28002	1	7	48	"B"	"D.bmp"	"R+"	0	"c"	1013
"03-13-2014"	28002	1	7	49	"BA"	"DC.bmp"	"L+"	1	"c"	495
"03-13-2014"	28002	1	7	50	"A"	"C.bmp"	"R+"	1	"m"	2253
"03-13-2014"	28002	1	7	51	"B"	"D.bmp"	"R+"	1	"m"	768
"03-13-2014"	28002	1	7	52	"AB"	"CD.bmp"	"L+"	0	"m"	649
"03-13-2014"	28002	1	7	53	"A"	"C.bmp"	"R+"	1	"m"	644
"03-13-2014"	28002	1	7	54	"B"	"D.bmp"	"R+"	0	"c"	807
"03-13-2014"	28002	1	7	55	"BA"	"DC.bmp"	"L+"	1	"c"	600
"03-13-2014"	28002	1	7	56	"AB"	"CD.bmp"	"L+"	1	"c"	629
"03-13-2014"	28002	1	7	57	"B"	"D.bmp"	"R+"	1	"m"	1286
"03-13-2014"	28002	1	7	58	"BA"	"DC.bmp"	"L+"	0	"m"	1107
"03-13-2014"	28002	1	7	59	"A"	"C.bmp"	"R+"	1	"m"	987
"03-13-2014"	28002	1	7	60	"AB"	"CD.bmp"	"L+"	1	"c"	523
"03-13-2014"	28002	1	8	1	"BA"	"DC.bmp"	"L+"	1	"c"	663
"03-13-2014"	28002	1	8	2	"B"	"D.bmp"	"R+"	0	"c"	786
"03-13-2014"	28002	1	8	3	"AB"	"CD.bmp"	"L+"	1	"c"	711
"03-13-2014"	28002	1	8	4	"A"	"C.bmp"	"R+"	1	"m"	1581
"03-13-2014"	28002	1	8	5	"B"	"D.bmp"	"R+"	1	"m"	863
"03-13-2014"	28002	1	8	6	"A"	"C.bmp"	"R+"	1	"m"	651
"03-13-2014"	28002	1	8	7	"BA"	"DC.bmp"	"L+"	1	"c"	540
"03-13-2014"	28002	1	8	8	"AB"	"CD.bmp"	"L+"	1	"c"	731
"03-13-2014"	28002	1	8	9	"A"	"C.bmp"	"R+"	0	"c"	550
"03-13-2014"	28002	1	8	10	"B"	"D.bmp"	"R+"	0	"c"	380
"03-13-2014"	28002	1	8	11	"BA"	"DC.bmp"	"L+"	1	"c"	376
"03-13-2014"	28002	1	8	12	"AB"	"CD.bmp"	"L+"	1	"c"	449
"03-13-2014"	28002	1	8	13	"B"	"D.bmp"	"R+"	1	"m"	537
"03-13-2014"	28002	1	8	14	"AB"	"CD.bmp"	"L+"	0	"m"	648
"03-13-2014"	28002	1	8	15	"BA"	"DC.bmp"	"L+"	0	"m"	466
"03-13-2014"	28002	1	8	16	"A"	"C.bmp"	"R+"	1	"m"	1217
"03-13-2014"	28002	1	8	17	"B"	"D.bmp"	"R+"	1	"m"	704
"03-13-2014"	28002	1	8	18	"AB"	"CD.bmp"	"L+"	1	"c"	504
"03-13-2014"	28002	1	8	19	"A"	"C.bmp"	"R+"	0	"c"	594
"03-13-2014"	28002	1	8	20	"BA"	"DC.bmp"	"L+"	1	"c"	611
"03-13-2014"	28002	1	8	21	"B"	"D.bmp"	"R+"	1	"m"	807
"03-13-2014"	28002	1	8	22	"AB"	"CD.bmp"	"L+"	0	"m"	930
"03-13-2014"	28002	1	8	23	"A"	"C.bmp"	"R+"	1	"m"	819
"03-13-2014"	28002	1	8	24	"BA"	"DC.bmp"	"L+"	0	"m"	891
"03-13-2014"	28002	1	8	25	"AB"	"CD.bmp"	"L+"	0	"m"	859
"03-13-2014"	28002	1	8	26	"B"	"D.bmp"	"R+"	1	"m"	1543
"03-13-2014"	28002	1	8	27	"BA"	"DC.bmp"	"L+"	1	"c"	681
"03-13-2014"	28002	1	8	28	"A"	"C.bmp"	"R+"	0	"c"	591
"03-13-2014"	28002	1	8	29	"B"	"D.bmp"	"R+"	0	"c"	738
"03-13-2014"	28002	1	8	30	"BA"	"DC.bmp"	"L+"	0	"m"	1315
"03-13-2014"	28002	1	8	31	"AB"	"CD.bmp"	"L+"	0	"m"	518
"03-13-2014"	28002	1	8	32	"A"	"C.bmp"	"R+"	1	"m"	515
"03-13-2014"	28002	1	8	33	"AB"	"CD.bmp"	"L+"	0	"m"	1361
"03-13-2014"	28002	1	8	34	"B"	"D.bmp"	"R+"	0	"c"	505
"03-13-2014"	28002	1	8	35	"A"	"C.bmp"	"R+"	0	"c"	531
"03-13-2014"	28002	1	8	36	"BA"	"DC.bmp"	"L+"	1	"c"	490
"03-13-2014"	28002	1	8	37	"A"	"C.bmp"	"R+"	0	"c"	559
"03-13-2014"	28002	1	8	38	"B"	"D.bmp"	"R+"	0	"c"	531
"03-13-2014"	28002	1	8	39	"BA"	"DC.bmp"	"L+"	1	"c"	550
"03-13-2014"	28002	1	8	40	"AB"	"CD.bmp"	"L+"	1	"c"	753
"03-13-2014"	28002	1	8	41	"A"	"C.bmp"	"R+"	1	"m"	1158
"03-13-2014"	28002	1	8	42	"B"	"D.bmp"	"R+"	1	"m"	658
"03-13-2014"	28002	1	8	43	"AB"	"CD.bmp"	"L+"	1	"c"	589
"03-13-2014"	28002	1	8	44	"BA"	"DC.bmp"	"L+"	1	"c"	577
"03-13-2014"	28002	1	8	45	"A"	"C.bmp"	"R+"	1	"m"	1665
"03-13-2014"	28002	1	8	46	"AB"	"CD.bmp"	"L+"	0	"m"	573
"03-13-2014"	28002	1	8	47	"B"	"D.bmp"	"R+"	1	"m"	576
"03-13-2014"	28002	1	8	48	"BA"	"DC.bmp"	"L+"	1	"c"	581
"03-13-2014"	28002	1	8	49	"B"	"D.bmp"	"R+"	0	"c"	542
"03-13-2014"	28002	1	8	50	"BA"	"DC.bmp"	"L+"	1	"c"	531
"03-13-2014"	28002	1	8	51	"A"	"C.bmp"	"R+"	1	"m"	1422
"03-13-2014"	28002	1	8	52	"AB"	"CD.bmp"	"L+"	0	"m"	633
"03-13-2014"	28002	1	8	53	"B"	"D.bmp"	"R+"	1	"m"	580
"03-13-2014"	28002	1	8	54	"BA"	"DC.bmp"	"L+"	1	"c"	741
"03-13-2014"	28002	1	8	55	"AB"	"CD.bmp"	"L+"	1	"c"	578
"03-13-2014"	28002	1	8	56	"A"	"C.bmp"	"R+"	1	"m"	1311
"03-13-2014"	28002	1	8	57	"BA"	"DC.bmp"	"L+"	0	"m"	644
"03-13-2014"	28002	1	8	58	"A"	"C.bmp"	"R+"	1	"m"	527
"03-13-2014"	28002	1	8	59	"B"	"D.bmp"	"R+"	0	"c"	461
"03-13-2014"	28002	1	8	60	"AB"	"CD.bmp"	"L+"	1	"c"	429
"03-13-2014"	28002	1	9	1	"BA"	"DC.bmp"	"L+"	1	"c"	685
"03-13-2014"	28002	1	9	2	"AB"	"CD.bmp"	"L+"	0	"m"	1252
"03-13-2014"	28002	1	9	3	"A"	"C.bmp"	"R+"	1	"m"	432
"03-13-2014"	28002	1	9	4	"B"	"D.bmp"	"R+"	1	"m"	722
"03-13-2014"	28002	1	9	5	"AB"	"CD.bmp"	"L+"	1	"c"	499
"03-13-2014"	28002	1	9	6	"BA"	"DC.bmp"	"L+"	1	"c"	654
"03-13-2014"	28002	1	9	7	"B"	"D.bmp"	"R+"	1	"m"	897
"03-13-2014"	28002	1	9	8	"A"	"C.bmp"	"R+"	1	"m"	547
"03-13-2014"	28002	1	9	9	"AB"	"CD.bmp"	"L+"	1	"c"	514
"03-13-2014"	28002	1	9	10	"BA"	"DC.bmp"	"L+"	1	"c"	465
"03-13-2014"	28002	1	9	11	"A"	"C.bmp"	"R+"	1	"m"	813
"03-13-2014"	28002	1	9	12	"B"	"D.bmp"	"R+"	1	"m"	576
"03-13-2014"	28002	1	9	13	"AB"	"CD.bmp"	"L+"	1	"c"	562
"03-13-2014"	28002	1	9	14	"B"	"D.bmp"	"R+"	0	"c"	516
"03-13-2014"	28002	1	9	15	"A"	"C.bmp"	"R+"	0	"c"	450
"03-13-2014"	28002	1	9	16	"BA"	"DC.bmp"	"L+"	1	"c"	426
"03-13-2014"	28002	1	9	17	"A"	"C.bmp"	"R+"	0	"c"	455
"03-13-2014"	28002	1	9	18	"B"	"D.bmp"	"R+"	0	"c"	479
"03-13-2014"	28002	1	9	19	"AB"	"CD.bmp"	"L+"	1	"c"	477
"03-13-2014"	28002	1	9	20	"BA"	"DC.bmp"	"L+"	0	"m"	1087
"03-13-2014"	28002	1	9	21	"B"	"D.bmp"	"R+"	1	"m"	490
"03-13-2014"	28002	1	9	22	"A"	"C.bmp"	"R+"	1	"m"	530
"03-13-2014"	28002	1	9	23	"AB"	"CD.bmp"	"L+"	1	"c"	512
"03-13-2014"	28002	1	9	24	"BA"	"DC.bmp"	"L+"	1	"c"	551
"03-13-2014"	28002	1	9	25	"A"	"C.bmp"	"R+"	1	"m"	1058
"03-13-2014"	28002	1	9	26	"BA"	"DC.bmp"	"L+"	0	"m"	498
"03-13-2014"	28002	1	9	27	"B"	"D.bmp"	"R+"	1	"m"	392
"03-13-2014"	28002	1	9	28	"AB"	"CD.bmp"	"L+"	1	"c"	662
"03-13-2014"	28002	1	9	29	"B"	"D.bmp"	"R+"	0	"c"	488
"03-13-2014"	28002	1	9	30	"BA"	"DC.bmp"	"L+"	1	"c"	500
"03-13-2014"	28002	1	9	31	"AB"	"CD.bmp"	"L+"	1	"c"	1038
"03-13-2014"	28002	1	9	32	"A"	"C.bmp"	"R+"	0	"c"	545
"03-13-2014"	28002	1	9	33	"AB"	"CD.bmp"	"L+"	1	"c"	481
"03-13-2014"	28002	1	9	34	"BA"	"DC.bmp"	"L+"	0	"m"	919
"03-13-2014"	28002	1	9	35	"B"	"D.bmp"	"R+"	1	"m"	477
"03-13-2014"	28002	1	9	36	"A"	"C.bmp"	"R+"	1	"m"	605
"03-13-2014"	28002	1	9	37	"BA"	"DC.bmp"	"L+"	1	"c"	522
"03-13-2014"	28002	1	9	38	"A"	"C.bmp"	"R+"	0	"c"	624
"03-13-2014"	28002	1	9	39	"AB"	"CD.bmp"	"L+"	0	"m"	790
"03-13-2014"	28002	1	9	40	"B"	"D.bmp"	"R+"	1	"m"	538
"03-13-2014"	28002	1	9	41	"BA"	"DC.bmp"	"L+"	0	"m"	412
"03-13-2014"	28002	1	9	42	"B"	"D.bmp"	"R+"	1	"m"	328
"03-13-2014"	28002	1	9	43	"AB"	"CD.bmp"	"L+"	1	"c"	586
"03-13-2014"	28002	1	9	44	"A"	"C.bmp"	"R+"	0	"c"	502
"03-13-2014"	28002	1	9	45	"AB"	"CD.bmp"	"L+"	1	"c"	1098
"03-13-2014"	28002	1	9	46	"A"	"C.bmp"	"R+"	1	"m"	829
"03-13-2014"	28002	1	9	47	"B"	"D.bmp"	"R+"	1	"m"	943
"03-13-2014"	28002	1	9	48	"BA"	"DC.bmp"	"L+"	1	"c"	521
"03-13-2014"	28002	1	9	49	"B"	"D.bmp"	"R+"	0	"c"	598
"03-13-2014"	28002	1	9	50	"BA"	"DC.bmp"	"L+"	1	"c"	655
"03-13-2014"	28002	1	9	51	"A"	"C.bmp"	"R+"	0	"c"	856
"03-13-2014"	28002	1	9	52	"AB"	"CD.bmp"	"L+"	0	"m"	853
"03-13-2014"	28002	1	9	53	"A"	"C.bmp"	"R+"	1	"m"	542
"03-13-2014"	28002	1	9	54	"B"	"D.bmp"	"R+"	1	"m"	560
"03-13-2014"	28002	1	9	55	"AB"	"CD.bmp"	"L+"	0	"m"	982
"03-13-2014"	28002	1	9	56	"BA"	"DC.bmp"	"L+"	0	"m"	333
"03-13-2014"	28002	1	9	57	"A"	"C.bmp"	"R+"	0	"c"	717
"03-13-2014"	28002	1	9	58	"AB"	"CD.bmp"	"L+"	1	"c"	431
"03-13-2014"	28002	1	9	59	"BA"	"DC.bmp"	"L+"	1	"c"	458
"03-13-2014"	28002	1	9	60	"B"	"D.bmp"	"R+"	1	"m"	1105
"03-13-2014"	28002	1	10	1	"A"	"C.bmp"	"R+"	0	"c"	1748
"03-13-2014"	28002	1	10	2	"BA"	"DC.bmp"	"L+"	1	"c"	435
"03-13-2014"	28002	1	10	3	"B"	"D.bmp"	"R+"	1	"m"	640
"03-13-2014"	28002	1	10	4	"AB"	"CD.bmp"	"L+"	1	"c"	355
"03-13-2014"	28002	1	10	5	"A"	"C.bmp"	"R+"	0	"c"	508
"03-13-2014"	28002	1	10	6	"AB"	"CD.bmp"	"L+"	0	"m"	722
"03-13-2014"	28002	1	10	7	"B"	"D.bmp"	"R+"	1	"m"	381
"03-13-2014"	28002	1	10	8	"BA"	"DC.bmp"	"L+"	0	"m"	582
"03-13-2014"	28002	1	10	9	"B"	"D.bmp"	"R+"	0	"c"	382
"03-13-2014"	28002	1	10	10	"A"	"C.bmp"	"R+"	0	"c"	496
"03-13-2014"	28002	1	10	11	"AB"	"CD.bmp"	"L+"	1	"c"	434
"03-13-2014"	28002	1	10	12	"BA"	"DC.bmp"	"L+"	1	"c"	451
"03-13-2014"	28002	1	10	13	"AB"	"CD.bmp"	"L+"	0	"m"	864
"03-13-2014"	28002	1	10	14	"BA"	"DC.bmp"	"L+"	0	"m"	425
"03-13-2014"	28002	1	10	15	"A"	"C.bmp"	"R+"	1	"m"	392
"03-13-2014"	28002	1	10	16	"B"	"D.bmp"	"R+"	1	"m"	460
"03-13-2014"	28002	1	10	17	"BA"	"DC.bmp"	"L+"	1	"c"	429
"03-13-2014"	28002	1	10	18	"A"	"C.bmp"	"R+"	0	"c"	351
"03-13-2014"	28002	1	10	19	"B"	"D.bmp"	"R+"	1	"m"	386
"03-13-2014"	28002	1	10	20	"AB"	"CD.bmp"	"L+"	0	"m"	391
"03-13-2014"	28002	1	10	21	"B"	"D.bmp"	"R+"	0	"c"	289
"03-13-2014"	28002	1	10	22	"A"	"C.bmp"	"R+"	0	"c"	837
"03-13-2014"	28002	1	10	23	"BA"	"DC.bmp"	"L+"	1	"c"	422
"03-13-2014"	28002	1	10	24	"AB"	"CD.bmp"	"L+"	1	"c"	355
"03-13-2014"	28002	1	10	25	"A"	"C.bmp"	"R+"	0	"c"	416
"03-13-2014"	28002	1	10	26	"BA"	"DC.bmp"	"L+"	1	"c"	496
"03-13-2014"	28002	1	10	27	"AB"	"CD.bmp"	"L+"	0	"m"	791
"03-13-2014"	28002	1	10	28	"B"	"D.bmp"	"R+"	1	"m"	549
"03-13-2014"	28002	1	10	29	"BA"	"DC.bmp"	"L+"	0	"m"	385
"03-13-2014"	28002	1	10	30	"AB"	"CD.bmp"	"L+"	0	"m"	360
"03-13-2014"	28002	1	10	31	"B"	"D.bmp"	"R+"	0	"c"	421
"03-13-2014"	28002	1	10	32	"A"	"C.bmp"	"R+"	0	"c"	421
"03-13-2014"	28002	1	10	33	"B"	"D.bmp"	"R+"	0	"c"	388
"03-13-2014"	28002	1	10	34	"AB"	"CD.bmp"	"L+"	1	"c"	377
"03-13-2014"	28002	1	10	35	"A"	"C.bmp"	"R+"	0	"c"	491
"03-13-2014"	28002	1	10	36	"BA"	"DC.bmp"	"L+"	1	"c"	447
"03-13-2014"	28002	1	10	37	"AB"	"CD.bmp"	"L+"	0	"m"	936
"03-13-2014"	28002	1	10	38	"BA"	"DC.bmp"	"L+"	0	"m"	545
"03-13-2014"	28002	1	10	39	"B"	"D.bmp"	"R+"	1	"m"	409
"03-13-2014"	28002	1	10	40	"A"	"C.bmp"	"R+"	1	"m"	816
"03-13-2014"	28002	1	10	41	"AB"	"CD.bmp"	"L+"	1	"c"	405
"03-13-2014"	28002	1	10	42	"A"	"C.bmp"	"R+"	0	"c"	696
"03-13-2014"	28002	1	10	43	"BA"	"DC.bmp"	"L+"	0	"m"	1155
"03-13-2014"	28002	1	10	44	"B"	"D.bmp"	"R+"	1	"m"	453
"03-13-2014"	28002	1	10	45	"A"	"C.bmp"	"R+"	1	"m"	574
"03-13-2014"	28002	1	10	46	"BA"	"DC.bmp"	"L+"	1	"c"	408
"03-13-2014"	28002	1	10	47	"B"	"D.bmp"	"R+"	0	"c"	459
"03-13-2014"	28002	1	10	48	"AB"	"CD.bmp"	"L+"	1	"c"	440
"03-13-2014"	28002	1	10	49	"BA"	"DC.bmp"	"L+"	1	"c"	468
"03-13-2014"	28002	1	10	50	"B"	"D.bmp"	"R+"	0	"c"	432
"03-13-2014"	28002	1	10	51	"AB"	"CD.bmp"	"L+"	0	"m"	773
"03-13-2014"	28002	1	10	52	"A"	"C.bmp"	"R+"	1	"m"	672
"03-13-2014"	28002	1	10	53	"B"	"D.bmp"	"R+"	1	"m"	503
"03-13-2014"	28002	1	10	54	"A"	"C.bmp"	"R+"	1	"m"	613
"03-13-2014"	28002	1	10	55	"BA"	"DC.bmp"	"L+"	1	"c"	343
"03-13-2014"	28002	1	10	56	"AB"	"CD.bmp"	"L+"	1	"c"	435
"03-13-2014"	28002	1	10	57	"B"	"D.bmp"	"R+"	0	"c"	482
"03-13-2014"	28002	1	10	58	"BA"	"DC.bmp"	"L+"	1	"c"	424
"03-13-2014"	28002	1	10	59	"AB"	"CD.bmp"	"L+"	0	"m"	686
"03-13-2014"	28002	1	10	60	"A"	"C.bmp"	"R+"	1	"m"	701
"03-13-2014"	28002	2	1	1	"C"	"E.bmp"	"L+"	1	"c"	24406
"03-13-2014"	28002	2	1	2	"DC"	"FE.bmp"	"R+"	0	"c"	3396
"03-13-2014"	28002	2	1	3	"D"	"F.bmp"	"L+"	0	"m"	1412
"03-13-2014"	28002	2	1	4	"CD"	"EF.bmp"	"R+"	0	"c"	653
"03-13-2014"	28002	2	1	5	"C"	"E.bmp"	"L+"	1	"c"	905
"03-13-2014"	28002	2	1	6	"D"	"F.bmp"	"L+"	1	"c"	1645
"03-13-2014"	28002	2	1	7	"DC"	"FE.bmp"	"R+"	1	"m"	452
"03-13-2014"	28002	2	1	8	"CD"	"EF.bmp"	"R+"	0	"c"	787
"03-13-2014"	28002	2	1	9	"D"	"F.bmp"	"L+"	1	"c"	543
"03-13-2014"	28002	2	1	10	"C"	"E.bmp"	"L+"	0	"m"	698
"03-13-2014"	28002	2	1	11	"CD"	"EF.bmp"	"R+"	1	"m"	390
"03-13-2014"	28002	2	1	12	"DC"	"FE.bmp"	"R+"	1	"m"	373
"03-13-2014"	28002	2	1	13	"C"	"E.bmp"	"L+"	1	"c"	524
"03-13-2014"	28002	2	1	14	"CD"	"EF.bmp"	"R+"	0	"c"	420
"03-13-2014"	28002	2	1	15	"D"	"F.bmp"	"L+"	1	"c"	499
"03-13-2014"	28002	2	1	16	"DC"	"FE.bmp"	"R+"	1	"m"	874
"03-13-2014"	28002	2	1	17	"D"	"F.bmp"	"L+"	0	"m"	576
"03-13-2014"	28002	2	1	18	"C"	"E.bmp"	"L+"	1	"c"	320
"03-13-2014"	28002	2	1	19	"CD"	"EF.bmp"	"R+"	0	"c"	417
"03-13-2014"	28002	2	1	20	"DC"	"FE.bmp"	"R+"	0	"c"	448
"03-13-2014"	28002	2	1	21	"CD"	"EF.bmp"	"R+"	0	"c"	379
"03-13-2014"	28002	2	1	22	"C"	"E.bmp"	"L+"	1	"c"	487
"03-13-2014"	28002	2	1	23	"DC"	"FE.bmp"	"R+"	0	"c"	468
"03-13-2014"	28002	2	1	24	"D"	"F.bmp"	"L+"	1	"c"	544
"03-13-2014"	28002	2	1	25	"DC"	"FE.bmp"	"R+"	1	"m"	538
"03-13-2014"	28002	2	1	26	"D"	"F.bmp"	"L+"	0	"m"	441
"03-13-2014"	28002	2	1	27	"C"	"E.bmp"	"L+"	1	"c"	350
"03-13-2014"	28002	2	1	28	"CD"	"EF.bmp"	"R+"	0	"c"	436
"03-13-2014"	28002	2	1	29	"DC"	"FE.bmp"	"R+"	1	"m"	852
"03-13-2014"	28002	2	1	30	"C"	"E.bmp"	"L+"	0	"m"	508
"03-13-2014"	28002	2	1	31	"D"	"F.bmp"	"L+"	1	"c"	428
"03-13-2014"	28002	2	1	32	"CD"	"EF.bmp"	"R+"	0	"c"	407
"03-13-2014"	28002	2	1	33	"C"	"E.bmp"	"L+"	1	"c"	522
"03-13-2014"	28002	2	1	34	"D"	"F.bmp"	"L+"	1	"c"	1211
"03-13-2014"	28002	2	1	35	"CD"	"EF.bmp"	"R+"	0	"c"	1068
"03-13-2014"	28002	2	1	36	"DC"	"FE.bmp"	"R+"	0	"c"	423
"03-13-2014"	28002	2	1	37	"CD"	"EF.bmp"	"R+"	1	"m"	600
"03-13-2014"	28002	2	1	38	"DC"	"FE.bmp"	"R+"	1	"m"	483
"03-13-2014"	28002	2	1	39	"C"	"E.bmp"	"L+"	0	"m"	454
"03-13-2014"	28002	2	1	40	"D"	"F.bmp"	"L+"	0	"m"	324
"03-13-2014"	28002	2	1	41	"CD"	"EF.bmp"	"R+"	0	"c"	486
"03-13-2014"	28002	2	1	42	"DC"	"FE.bmp"	"R+"	0	"c"	464
"03-13-2014"	28002	2	1	43	"D"	"F.bmp"	"L+"	1	"c"	406
"03-13-2014"	28002	2	1	44	"C"	"E.bmp"	"L+"	1	"c"	429
"03-13-2014"	28002	2	1	45	"D"	"F.bmp"	"L+"	0	"m"	953
"03-13-2014"	28002	2	1	46	"C"	"E.bmp"	"L+"	0	"m"	1234
"03-13-2014"	28002	2	1	47	"DC"	"FE.bmp"	"R+"	1	"m"	474
"03-13-2014"	28002	2	1	48	"CD"	"EF.bmp"	"R+"	1	"m"	400
"03-13-2014"	28002	2	1	49	"C"	"E.bmp"	"L+"	1	"c"	462
"03-13-2014"	28002	2	1	50	"DC"	"FE.bmp"	"R+"	0	"c"	460
"03-13-2014"	28002	2	1	51	"D"	"F.bmp"	"L+"	1	"c"	368
"03-13-2014"	28002	2	1	52	"CD"	"EF.bmp"	"R+"	0	"c"	429
"03-13-2014"	28002	2	1	53	"D"	"F.bmp"	"L+"	1	"c"	470
"03-13-2014"	28002	2	1	54	"CD"	"EF.bmp"	"R+"	1	"m"	673
"03-13-2014"	28002	2	1	55	"DC"	"FE.bmp"	"R+"	1	"m"	905
"03-13-2014"	28002	2	1	56	"C"	"E.bmp"	"L+"	0	"m"	483
"03-13-2014"	28002	2	1	57	"DC"	"FE.bmp"	"R+"	0	"c"	411
"03-13-2014"	28002	2	1	58	"C"	"E.bmp"	"L+"	1	"c"	400
"03-13-2014"	28002	2	1	59	"CD"	"EF.bmp"	"R+"	0	"c"	336
"03-13-2014"	28002	2	1	60	"D"	"F.bmp"	"L+"	1	"c"	408
"03-13-2014"	28002	2	1	61	"CD"	"EF.bmp"	"R+"	1	"m"	750
"03-13-2014"	28002	2	1	62	"D"	"F.bmp"	"L+"	0	"m"	429
"03-13-2014"	28002	2	1	63	"C"	"E.bmp"	"L+"	0	"m"	388
"03-13-2014"	28002	2	1	64	"DC"	"FE.bmp"	"R+"	1	"m"	348
"03-13-2014"	28002	2	2	1	"CD"	"EF.bmp"	"R+"	1	"m"	762
"03-13-2014"	28002	2	2	2	"DC"	"FE.bmp"	"R+"	1	"m"	413
"03-13-2014"	28002	2	2	3	"D"	"F.bmp"	"L+"	1	"c"	385
"03-13-2014"	28002	2	2	4	"C"	"E.bmp"	"L+"	0	"m"	609
"03-13-2014"	28002	2	2	5	"CD"	"EF.bmp"	"R+"	1	"m"	328
"03-13-2014"	28002	2	2	6	"DC"	"FE.bmp"	"R+"	0	"c"	447
"03-13-2014"	28002	2	2	7	"D"	"F.bmp"	"L+"	0	"m"	418
"03-13-2014"	28002	2	2	8	"C"	"E.bmp"	"L+"	1	"c"	448
"03-13-2014"	28002	2	2	9	"D"	"F.bmp"	"L+"	1	"c"	372
"03-13-2014"	28002	2	2	10	"C"	"E.bmp"	"L+"	0	"m"	971
"03-13-2014"	28002	2	2	11	"CD"	"EF.bmp"	"R+"	1	"m"	360
"03-13-2014"	28002	2	2	12	"DC"	"FE.bmp"	"R+"	1	"m"	325
"03-13-2014"	28002	2	2	13	"C"	"E.bmp"	"L+"	1	"c"	381
"03-13-2014"	28002	2	2	14	"D"	"F.bmp"	"L+"	1	"c"	369
"03-13-2014"	28002	2	2	15	"DC"	"FE.bmp"	"R+"	1	"m"	555
"03-13-2014"	28002	2	2	16	"CD"	"EF.bmp"	"R+"	1	"m"	422
"03-13-2014"	28002	2	2	17	"D"	"F.bmp"	"L+"	1	"c"	434
"03-13-2014"	28002	2	2	18	"CD"	"EF.bmp"	"R+"	0	"c"	526
"03-13-2014"	28002	2	2	19	"C"	"E.bmp"	"L+"	1	"c"	413
"03-13-2014"	28002	2	2	20	"DC"	"FE.bmp"	"R+"	0	"c"	394
"03-13-2014"	28002	2	2	21	"D"	"F.bmp"	"L+"	1	"c"	362
"03-13-2014"	28002	2	2	22	"DC"	"FE.bmp"	"R+"	1	"m"	738
"03-13-2014"	28002	2	2	23	"C"	"E.bmp"	"L+"	0	"m"	400
"03-13-2014"	28002	2	2	24	"CD"	"EF.bmp"	"R+"	1	"m"	320
"03-13-2014"	28002	2	2	25	"C"	"E.bmp"	"L+"	1	"c"	460
"03-13-2014"	28002	2	2	26	"CD"	"EF.bmp"	"R+"	1	"m"	377
"03-13-2014"	28002	2	2	27	"D"	"F.bmp"	"L+"	0	"m"	365
"03-13-2014"	28002	2	2	28	"DC"	"FE.bmp"	"R+"	1	"m"	285
"03-13-2014"	28002	2	2	29	"CD"	"EF.bmp"	"R+"	1	"m"	876
"03-13-2014"	28002	2	2	30	"DC"	"FE.bmp"	"R+"	0	"c"	430
"03-13-2014"	28002	2	2	31	"D"	"F.bmp"	"L+"	0	"m"	364
"03-13-2014"	28002	2	2	32	"C"	"E.bmp"	"L+"	0	"m"	314
"03-13-2014"	28002	2	2	33	"D"	"F.bmp"	"L+"	0	"m"	305
"03-13-2014"	28002	2	2	34	"DC"	"FE.bmp"	"R+"	1	"m"	319
"03-13-2014"	28002	2	2	35	"C"	"E.bmp"	"L+"	0	"m"	358
"03-13-2014"	28002	2	2	36	"CD"	"EF.bmp"	"R+"	0	"c"	663
"03-13-2014"	28002	2	2	37	"C"	"E.bmp"	"L+"	1	"c"	788
"03-13-2014"	28002	2	2	38	"CD"	"EF.bmp"	"R+"	0	"c"	331
"03-13-2014"	28002	2	2	39	"DC"	"FE.bmp"	"R+"	0	"c"	300
"03-13-2014"	28002	2	2	40	"D"	"F.bmp"	"L+"	0	"m"	573
"03-13-2014"	28002	2	2	41	"C"	"E.bmp"	"L+"	1	"c"	691
"03-13-2014"	28002	2	2	42	"CD"	"EF.bmp"	"R+"	0	"c"	395
"03-13-2014"	28002	2	2	43	"DC"	"FE.bmp"	"R+"	0	"c"	372
"03-13-2014"	28002	2	2	44	"D"	"F.bmp"	"L+"	1	"c"	877
"03-13-2014"	28002	2	2	45	"DC"	"FE.bmp"	"R+"	0	"c"	728
"03-13-2014"	28002	2	2	46	"C"	"E.bmp"	"L+"	1	"c"	673
"03-13-2014"	28002	2	2	47	"CD"	"EF.bmp"	"R+"	0	"c"	501
"03-13-2014"	28002	2	2	48	"D"	"F.bmp"	"L+"	1	"c"	794
"03-13-2014"	28002	2	2	49	"C"	"E.bmp"	"L+"	0	"m"	1240
"03-13-2014"	28002	2	2	50	"CD"	"EF.bmp"	"R+"	1	"m"	328
"03-13-2014"	28002	2	2	51	"D"	"F.bmp"	"L+"	0	"m"	836
"03-13-2014"	28002	2	2	52	"DC"	"FE.bmp"	"R+"	1	"m"	730
"03-13-2014"	28002	2	2	53	"CD"	"EF.bmp"	"R+"	0	"c"	371
"03-13-2014"	28002	2	2	54	"C"	"E.bmp"	"L+"	0	"m"	387
"03-13-2014"	28002	2	2	55	"D"	"F.bmp"	"L+"	0	"m"	328
"03-13-2014"	28002	2	2	56	"DC"	"FE.bmp"	"R+"	1	"m"	311
"03-13-2014"	28002	2	2	57	"D"	"F.bmp"	"L+"	0	"m"	397
"03-13-2014"	28002	2	2	58	"DC"	"FE.bmp"	"R+"	0	"c"	443
"03-13-2014"	28002	2	2	59	"C"	"E.bmp"	"L+"	1	"c"	333
"03-13-2014"	28002	2	2	60	"CD"	"EF.bmp"	"R+"	0	"c"	365
"03-13-2014"	28002	2	2	61	"D"	"F.bmp"	"L+"	1	"c"	357
"03-13-2014"	28002	2	2	62	"C"	"E.bmp"	"L+"	1	"c"	1316
"03-13-2014"	28002	2	2	63	"CD"	"EF.bmp"	"R+"	0	"c"	426
"03-13-2014"	28002	2	2	64	"DC"	"FE.bmp"	"R+"	0	"c"	369
"03-13-2014"	28002	2	3	1	"D"	"F.bmp"	"L+"	1	"c"	895
"03-13-2014"	28002	2	3	2	"DC"	"FE.bmp"	"R+"	0	"c"	432
"03-13-2014"	28002	2	3	3	"C"	"E.bmp"	"L+"	1	"c"	327
"03-13-2014"	28002	2	3	4	"CD"	"EF.bmp"	"R+"	1	"m"	621
"03-13-2014"	28002	2	3	5	"C"	"E.bmp"	"L+"	0	"m"	379
"03-13-2014"	28002	2	3	6	"CD"	"EF.bmp"	"R+"	1	"m"	311
"03-13-2014"	28002	2	3	7	"D"	"F.bmp"	"L+"	0	"m"	350
"03-13-2014"	28002	2	3	8	"DC"	"FE.bmp"	"R+"	1	"m"	287
"03-13-2014"	28002	2	3	9	"CD"	"EF.bmp"	"R+"	0	"c"	396
"03-13-2014"	28002	2	3	10	"C"	"E.bmp"	"L+"	1	"c"	375
"03-13-2014"	28002	2	3	11	"DC"	"FE.bmp"	"R+"	0	"c"	638
"03-13-2014"	28002	2	3	12	"D"	"F.bmp"	"L+"	1	"c"	628
"03-13-2014"	28002	2	3	13	"DC"	"FE.bmp"	"R+"	0	"c"	517
"03-13-2014"	28002	2	3	14	"C"	"E.bmp"	"L+"	0	"m"	1041
"03-13-2014"	28002	2	3	15	"D"	"F.bmp"	"L+"	0	"m"	581
"03-13-2014"	28002	2	3	16	"CD"	"EF.bmp"	"R+"	1	"m"	258
"03-13-2014"	28002	2	3	17	"DC"	"FE.bmp"	"R+"	1	"m"	351
"03-13-2014"	28002	2	3	18	"C"	"E.bmp"	"L+"	1	"c"	440
"03-13-2014"	28002	2	3	19	"CD"	"EF.bmp"	"R+"	0	"c"	355
"03-13-2014"	28002	2	3	20	"D"	"F.bmp"	"L+"	1	"c"	734
"03-13-2014"	28002	2	3	21	"DC"	"FE.bmp"	"R+"	0	"c"	480
"03-13-2014"	28002	2	3	22	"CD"	"EF.bmp"	"R+"	0	"c"	354
"03-13-2014"	28002	2	3	23	"C"	"E.bmp"	"L+"	0	"m"	728
"03-13-2014"	28002	2	3	24	"D"	"F.bmp"	"L+"	0	"m"	595
"03-13-2014"	28002	2	3	25	"C"	"E.bmp"	"L+"	0	"m"	452
"03-13-2014"	28002	2	3	26	"D"	"F.bmp"	"L+"	0	"m"	596
"03-13-2014"	28002	2	3	27	"DC"	"FE.bmp"	"R+"	1	"m"	405
"03-13-2014"	28002	2	3	28	"CD"	"EF.bmp"	"R+"	1	"m"	810
"03-13-2014"	28002	2	3	29	"D"	"F.bmp"	"L+"	1	"c"	420
"03-13-2014"	28002	2	3	30	"CD"	"EF.bmp"	"R+"	0	"c"	396
"03-13-2014"	28002	2	3	31	"C"	"E.bmp"	"L+"	1	"c"	363
"03-13-2014"	28002	2	3	32	"DC"	"FE.bmp"	"R+"	0	"c"	607
"03-13-2014"	28002	2	3	33	"D"	"F.bmp"	"L+"	1	"c"	377
"03-13-2014"	28002	2	3	34	"C"	"E.bmp"	"L+"	1	"c"	412
"03-13-2014"	28002	2	3	35	"CD"	"EF.bmp"	"R+"	1	"m"	896
"03-13-2014"	28002	2	3	36	"DC"	"FE.bmp"	"R+"	1	"m"	756
"03-13-2014"	28002	2	3	37	"CD"	"EF.bmp"	"R+"	1	"m"	758
"03-13-2014"	28002	2	3	38	"DC"	"FE.bmp"	"R+"	0	"c"	532
"03-13-2014"	28002	2	3	39	"D"	"F.bmp"	"L+"	1	"c"	567
"03-13-2014"	28002	2	3	40	"C"	"E.bmp"	"L+"	1	"c"	365
"03-13-2014"	28002	2	3	41	"DC"	"FE.bmp"	"R+"	0	"c"	397
"03-13-2014"	28002	2	3	42	"CD"	"EF.bmp"	"R+"	0	"c"	390
"03-13-2014"	28002	2	3	43	"D"	"F.bmp"	"L+"	1	"c"	361
"03-13-2014"	28002	2	3	44	"C"	"E.bmp"	"L+"	1	"c"	387
"03-13-2014"	28002	2	3	45	"CD"	"EF.bmp"	"R+"	0	"c"	385
"03-13-2014"	28002	2	3	46	"DC"	"FE.bmp"	"R+"	0	"c"	416
"03-13-2014"	28002	2	3	47	"D"	"F.bmp"	"L+"	1	"c"	362
"03-13-2014"	28002	2	3	48	"C"	"E.bmp"	"L+"	0	"m"	900
"03-13-2014"	28002	2	3	49	"D"	"F.bmp"	"L+"	0	"m"	426
"03-13-2014"	28002	2	3	50	"CD"	"EF.bmp"	"R+"	0	"c"	331
"03-13-2014"	28002	2	3	51	"DC"	"FE.bmp"	"R+"	0	"c"	367
"03-13-2014"	28002	2	3	52	"C"	"E.bmp"	"L+"	0	"m"	373
"03-13-2014"	28002	2	3	53	"D"	"F.bmp"	"L+"	0	"m"	907
"03-13-2014"	28002	2	3	54	"DC"	"FE.bmp"	"R+"	1	"m"	354
"03-13-2014"	28002	2	3	55	"CD"	"EF.bmp"	"R+"	1	"m"	336
"03-13-2014"	28002	2	3	56	"C"	"E.bmp"	"L+"	0	"m"	805
"03-13-2014"	28002	2	3	57	"CD"	"EF.bmp"	"R+"	0	"c"	525
"03-13-2014"	28002	2	3	58	"DC"	"FE.bmp"	"R+"	0	"c"	329
"03-13-2014"	28002	2	3	59	"D"	"F.bmp"	"L+"	1	"c"	406
"03-13-2014"	28002	2	3	60	"C"	"E.bmp"	"L+"	1	"c"	794
"03-13-2014"	28002	2	3	61	"DC"	"FE.bmp"	"R+"	0	"c"	345
"03-13-2014"	28002	2	3	62	"D"	"F.bmp"	"L+"	1	"c"	366
"03-13-2014"	28002	2	3	63	"C"	"E.bmp"	"L+"	1	"c"	405
"03-13-2014"	28002	2	3	64	"CD"	"EF.bmp"	"R+"	1	"m"	650
"03-13-2014"	28002	2	4	1	"C"	"E.bmp"	"L+"	0	"m"	439
"03-13-2014"	28002	2	4	2	"D"	"F.bmp"	"L+"	0	"m"	291
"03-13-2014"	28002	2	4	3	"CD"	"EF.bmp"	"R+"	1	"m"	400
"03-13-2014"	28002	2	4	4	"DC"	"FE.bmp"	"R+"	1	"m"	343
"03-13-2014"	28002	2	4	5	"D"	"F.bmp"	"L+"	0	"m"	735
"03-13-2014"	28002	2	4	6	"DC"	"FE.bmp"	"R+"	1	"m"	763
"03-13-2014"	28002	2	4	7	"CD"	"EF.bmp"	"R+"	1	"m"	453
"03-13-2014"	28002	2	4	8	"C"	"E.bmp"	"L+"	1	"c"	476
"03-13-2014"	28002	2	4	9	"DC"	"FE.bmp"	"R+"	0	"c"	368
"03-13-2014"	28002	2	4	10	"CD"	"EF.bmp"	"R+"	1	"m"	380
"03-13-2014"	28002	2	4	11	"C"	"E.bmp"	"L+"	1	"c"	438
"03-13-2014"	28002	2	4	12	"D"	"F.bmp"	"L+"	0	"m"	621
"03-13-2014"	28002	2	4	13	"CD"	"EF.bmp"	"R+"	0	"c"	382
"03-13-2014"	28002	2	4	14	"DC"	"FE.bmp"	"R+"	0	"c"	359
"03-13-2014"	28002	2	4	15	"C"	"E.bmp"	"L+"	1	"c"	369
"03-13-2014"	28002	2	4	16	"D"	"F.bmp"	"L+"	1	"c"	2454
"03-13-2014"	28002	2	4	17	"CD"	"EF.bmp"	"R+"	0	"c"	472
"03-13-2014"	28002	2	4	18	"DC"	"FE.bmp"	"R+"	1	"m"	845
"03-13-2014"	28002	2	4	19	"D"	"F.bmp"	"L+"	0	"m"	592
"03-13-2014"	28002	2	4	20	"C"	"E.bmp"	"L+"	0	"m"	388
"03-13-2014"	28002	2	4	21	"CD"	"EF.bmp"	"R+"	0	"c"	330
"03-13-2014"	28002	2	4	22	"DC"	"FE.bmp"	"R+"	0	"c"	410
"03-13-2014"	28002	2	4	23	"D"	"F.bmp"	"L+"	1	"c"	1021
"03-13-2014"	28002	2	4	24	"C"	"E.bmp"	"L+"	1	"c"	392
"03-13-2014"	28002	2	4	25	"CD"	"EF.bmp"	"R+"	0	"c"	331
"03-13-2014"	28002	2	4	26	"DC"	"FE.bmp"	"R+"	0	"c"	375
"03-13-2014"	28002	2	4	27	"D"	"F.bmp"	"L+"	1	"c"	379
"03-13-2014"	28002	2	4	28	"C"	"E.bmp"	"L+"	1	"c"	414
"03-13-2014"	28002	2	4	29	"CD"	"EF.bmp"	"R+"	1	"m"	320
"03-13-2014"	28002	2	4	30	"C"	"E.bmp"	"L+"	0	"m"	659
"03-13-2014"	28002	2	4	31	"D"	"F.bmp"	"L+"	0	"m"	506
"03-13-2014"	28002	2	4	32	"DC"	"FE.bmp"	"R+"	1	"m"	296
"03-13-2014"	28002	2	4	33	"CD"	"EF.bmp"	"R+"	1	"m"	420
"03-13-2014"	28002	2	4	34	"DC"	"FE.bmp"	"R+"	0	"c"	421
"03-13-2014"	28002	2	4	35	"D"	"F.bmp"	"L+"	1	"c"	336
"03-13-2014"	28002	2	4	36	"C"	"E.bmp"	"L+"	1	"c"	558
"03-13-2014"	28002	2	4	37	"D"	"F.bmp"	"L+"	1	"c"	467
"03-13-2014"	28002	2	4	38	"C"	"E.bmp"	"L+"	0	"m"	792
"03-13-2014"	28002	2	4	39	"DC"	"FE.bmp"	"R+"	1	"m"	421
"03-13-2014"	28002	2	4	40	"CD"	"EF.bmp"	"R+"	1	"m"	346
"03-13-2014"	28002	2	4	41	"D"	"F.bmp"	"L+"	0	"m"	598
"03-13-2014"	28002	2	4	42	"C"	"E.bmp"	"L+"	0	"m"	306
"03-13-2014"	28002	2	4	43	"DC"	"FE.bmp"	"R+"	1	"m"	342
"03-13-2014"	28002	2	4	44	"CD"	"EF.bmp"	"R+"	0	"c"	435
"03-13-2014"	28002	2	4	45	"C"	"E.bmp"	"L+"	1	"c"	340
"03-13-2014"	28002	2	4	46	"CD"	"EF.bmp"	"R+"	0	"c"	332
"03-13-2014"	28002	2	4	47	"DC"	"FE.bmp"	"R+"	0	"c"	443
"03-13-2014"	28002	2	4	48	"D"	"F.bmp"	"L+"	0	"m"	1175
"03-13-2014"	28002	2	4	49	"CD"	"EF.bmp"	"R+"	1	"m"	551
"03-13-2014"	28002	2	4	50	"D"	"F.bmp"	"L+"	0	"m"	449
"03-13-2014"	28002	2	4	51	"DC"	"FE.bmp"	"R+"	1	"m"	379
"03-13-2014"	28002	2	4	52	"C"	"E.bmp"	"L+"	0	"m"	472
"03-13-2014"	28002	2	4	53	"CD"	"EF.bmp"	"R+"	1	"m"	324
"03-13-2014"	28002	2	4	54	"C"	"E.bmp"	"L+"	0	"m"	599
"03-13-2014"	28002	2	4	55	"D"	"F.bmp"	"L+"	1	"c"	768
"03-13-2014"	28002	2	4	56	"DC"	"FE.bmp"	"R+"	0	"c"	385
"03-13-2014"	28002	2	4	57	"CD"	"EF.bmp"	"R+"	0	"c"	414
"03-13-2014"	28002	2	4	58	"DC"	"FE.bmp"	"R+"	0	"c"	468
"03-13-2014"	28002	2	4	59	"C"	"E.bmp"	"L+"	1	"c"	407
"03-13-2014"	28002	2	4	60	"D"	"F.bmp"	"L+"	1	"c"	754
"03-13-2014"	28002	2	4	61	"DC"	"FE.bmp"	"R+"	1	"m"	810
"03-13-2014"	28002	2	4	62	"CD"	"EF.bmp"	"R+"	1	"m"	342
"03-13-2014"	28002	2	4	63	"C"	"E.bmp"	"L+"	0	"m"	609
"03-13-2014"	28002	2	4	64	"D"	"F.bmp"	"L+"	1	"c"	1097
"03-13-2014"	28002	2	5	1	"C"	"E.bmp"	"L+"	1	"c"	756
"03-13-2014"	28002	2	5	2	"CD"	"EF.bmp"	"R+"	0	"c"	366
"03-13-2014"	28002	2	5	3	"D"	"F.bmp"	"L+"	1	"c"	457
"03-13-2014"	28002	2	5	4	"DC"	"FE.bmp"	"R+"	0	"c"	366
"03-13-2014"	28002	2	5	5	"C"	"E.bmp"	"L+"	0	"m"	750
"03-13-2014"	28002	2	5	6	"D"	"F.bmp"	"L+"	0	"m"	320
"03-13-2014"	28002	2	5	7	"DC"	"FE.bmp"	"R+"	1	"m"	301
"03-13-2014"	28002	2	5	8	"CD"	"EF.bmp"	"R+"	1	"m"	304
"03-13-2014"	28002	2	5	9	"D"	"F.bmp"	"L+"	0	"m"	549
"03-13-2014"	28002	2	5	10	"C"	"E.bmp"	"L+"	1	"c"	789
"03-13-2014"	28002	2	5	11	"DC"	"FE.bmp"	"R+"	0	"c"	343
"03-13-2014"	28002	2	5	12	"CD"	"EF.bmp"	"R+"	0	"c"	330
"03-13-2014"	28002	2	5	13	"D"	"F.bmp"	"L+"	1	"c"	517
"03-13-2014"	28002	2	5	14	"CD"	"EF.bmp"	"R+"	0	"c"	430
"03-13-2014"	28002	2	5	15	"DC"	"FE.bmp"	"R+"	0	"c"	365
"03-13-2014"	28002	2	5	16	"C"	"E.bmp"	"L+"	1	"c"	421
"03-13-2014"	28002	2	5	17	"CD"	"EF.bmp"	"R+"	0	"c"	450
"03-13-2014"	28002	2	5	18	"D"	"F.bmp"	"L+"	1	"c"	392
"03-13-2014"	28002	2	5	19	"DC"	"FE.bmp"	"R+"	0	"c"	336
"03-13-2014"	28002	2	5	20	"C"	"E.bmp"	"L+"	0	"m"	703
"03-13-2014"	28002	2	5	21	"CD"	"EF.bmp"	"R+"	1	"m"	294
"03-13-2014"	28002	2	5	22	"C"	"E.bmp"	"L+"	0	"m"	278
"03-13-2014"	28002	2	5	23	"DC"	"FE.bmp"	"R+"	1	"m"	337
"03-13-2014"	28002	2	5	24	"D"	"F.bmp"	"L+"	0	"m"	680
"03-13-2014"	28002	2	5	25	"DC"	"FE.bmp"	"R+"	1	"m"	329
"03-13-2014"	28002	2	5	26	"D"	"F.bmp"	"L+"	1	"c"	549
"03-13-2014"	28002	2	5	27	"C"	"E.bmp"	"L+"	1	"c"	404
"03-13-2014"	28002	2	5	28	"CD"	"EF.bmp"	"R+"	1	"m"	387
"03-13-2014"	28002	2	5	29	"C"	"E.bmp"	"L+"	0	"m"	801
"03-13-2014"	28002	2	5	30	"CD"	"EF.bmp"	"R+"	0	"c"	475
"03-13-2014"	28002	2	5	31	"DC"	"FE.bmp"	"R+"	0	"c"	617
"03-13-2014"	28002	2	5	32	"D"	"F.bmp"	"L+"	1	"c"	673
"03-13-2014"	28002	2	5	33	"DC"	"FE.bmp"	"R+"	0	"c"	357
"03-13-2014"	28002	2	5	34	"C"	"E.bmp"	"L+"	1	"c"	800
"03-13-2014"	28002	2	5	35	"CD"	"EF.bmp"	"R+"	1	"m"	504
"03-13-2014"	28002	2	5	36	"D"	"F.bmp"	"L+"	0	"m"	560
"03-13-2014"	28002	2	5	37	"DC"	"FE.bmp"	"R+"	1	"m"	340
"03-13-2014"	28002	2	5	38	"C"	"E.bmp"	"L+"	0	"m"	333
"03-13-2014"	28002	2	5	39	"D"	"F.bmp"	"L+"	1	"c"	1651
"03-13-2014"	28002	2	5	40	"CD"	"EF.bmp"	"R+"	1	"m"	689
"03-13-2014"	28002	2	5	41	"C"	"E.bmp"	"L+"	1	"c"	364
"03-13-2014"	28002	2	5	42	"CD"	"EF.bmp"	"R+"	0	"c"	387
"03-13-2014"	28002	2	5	43	"D"	"F.bmp"	"L+"	1	"c"	535
"03-13-2014"	28002	2	5	44	"DC"	"FE.bmp"	"R+"	0	"c"	359
"03-13-2014"	28002	2	5	45	"C"	"E.bmp"	"L+"	0	"m"	659
"03-13-2014"	28002	2	5	46	"DC"	"FE.bmp"	"R+"	1	"m"	260
"03-13-2014"	28002	2	5	47	"CD"	"EF.bmp"	"R+"	1	"m"	286
"03-13-2014"	28002	2	5	48	"D"	"F.bmp"	"L+"	1	"c"	440
"03-13-2014"	28002	2	5	49	"CD"	"EF.bmp"	"R+"	1	"m"	384
"03-13-2014"	28002	2	5	50	"DC"	"FE.bmp"	"R+"	0	"c"	555
"03-13-2014"	28002	2	5	51	"D"	"F.bmp"	"L+"	1	"c"	2105
"03-13-2014"	28002	2	5	52	"C"	"E.bmp"	"L+"	0	"m"	442
"03-13-2014"	28002	2	5	53	"DC"	"FE.bmp"	"R+"	1	"m"	315
"03-13-2014"	28002	2	5	54	"C"	"E.bmp"	"L+"	0	"m"	323
"03-13-2014"	28002	2	5	55	"D"	"F.bmp"	"L+"	1	"c"	434
"03-13-2014"	28002	2	5	56	"CD"	"EF.bmp"	"R+"	0	"c"	363
"03-13-2014"	28002	2	5	57	"D"	"F.bmp"	"L+"	1	"c"	399
"03-13-2014"	28002	2	5	58	"CD"	"EF.bmp"	"R+"	0	"c"	346
"03-13-2014"	28002	2	5	59	"DC"	"FE.bmp"	"R+"	1	"m"	376
"03-13-2014"	28002	2	5	60	"C"	"E.bmp"	"L+"	0	"m"	410
"03-13-2014"	28002	2	5	61	"D"	"F.bmp"	"L+"	0	"m"	254
"03-13-2014"	28002	2	5	62	"DC"	"FE.bmp"	"R+"	1	"m"	314
"03-13-2014"	28002	2	5	63	"CD"	"EF.bmp"	"R+"	1	"m"	308
"03-13-2014"	28002	2	5	64	"C"	"E.bmp"	"L+"	0	"m"	365
"03-13-2014"	28002	2	6	1	"D"	"F.bmp"	"L+"	1	"c"	464
"03-13-2014"	28002	2	6	2	"DC"	"FE.bmp"	"R+"	0	"c"	311
"03-13-2014"	28002	2	6	3	"CD"	"EF.bmp"	"R+"	0	"c"	992
"03-13-2014"	28002	2	6	4	"C"	"E.bmp"	"L+"	1	"c"	378
"03-13-2014"	28002	2	6	5	"CD"	"EF.bmp"	"R+"	0	"c"	349
"03-13-2014"	28002	2	6	6	"DC"	"FE.bmp"	"R+"	1	"m"	788
"03-13-2014"	28002	2	6	7	"D"	"F.bmp"	"L+"	0	"m"	455
"03-13-2014"	28002	2	6	8	"C"	"E.bmp"	"L+"	0	"m"	336
"03-13-2014"	28002	2	6	9	"CD"	"EF.bmp"	"R+"	0	"c"	368
"03-13-2014"	28002	2	6	10	"DC"	"FE.bmp"	"R+"	0	"c"	326
"03-13-2014"	28002	2	6	11	"C"	"E.bmp"	"L+"	1	"c"	350
"03-13-2014"	28002	2	6	12	"D"	"F.bmp"	"L+"	1	"c"	519
"03-13-2014"	28002	2	6	13	"DC"	"FE.bmp"	"R+"	0	"c"	384
"03-13-2014"	28002	2	6	14	"CD"	"EF.bmp"	"R+"	1	"m"	421
"03-13-2014"	28002	2	6	15	"C"	"E.bmp"	"L+"	0	"m"	397
"03-13-2014"	28002	2	6	16	"D"	"F.bmp"	"L+"	0	"m"	409
"03-13-2014"	28002	2	6	17	"DC"	"FE.bmp"	"R+"	1	"m"	286
"03-13-2014"	28002	2	6	18	"D"	"F.bmp"	"L+"	0	"m"	553
"03-13-2014"	28002	2	6	19	"CD"	"EF.bmp"	"R+"	1	"m"	623
"03-13-2014"	28002	2	6	20	"C"	"E.bmp"	"L+"	1	"c"	482
"03-13-2014"	28002	2	6	21	"D"	"F.bmp"	"L+"	1	"c"	343
"03-13-2014"	28002	2	6	22	"CD"	"EF.bmp"	"R+"	0	"c"	294
"03-13-2014"	28002	2	6	23	"DC"	"FE.bmp"	"R+"	0	"c"	280
"03-13-2014"	28002	2	6	24	"C"	"E.bmp"	"L+"	1	"c"	370
"03-13-2014"	28002	2	6	25	"D"	"F.bmp"	"L+"	1	"c"	409
"03-13-2014"	28002	2	6	26	"C"	"E.bmp"	"L+"	0	"m"	742
"03-13-2014"	28002	2	6	27	"DC"	"FE.bmp"	"R+"	0	"c"	511
"03-13-2014"	28002	2	6	28	"CD"	"EF.bmp"	"R+"	0	"c"	390
"03-13-2014"	28002	2	6	29	"C"	"E.bmp"	"L+"	1	"c"	391
"03-13-2014"	28002	2	6	30	"D"	"F.bmp"	"L+"	1	"c"	648
"03-13-2014"	28002	2	6	31	"DC"	"FE.bmp"	"R+"	0	"c"	465
"03-13-2014"	28002	2	6	32	"CD"	"EF.bmp"	"R+"	0	"c"	443
"03-13-2014"	28002	2	6	33	"C"	"E.bmp"	"L+"	0	"m"	448
"03-13-2014"	28002	2	6	34	"CD"	"EF.bmp"	"R+"	1	"m"	536
"03-13-2014"	28002	2	6	35	"D"	"F.bmp"	"L+"	0	"m"	463
"03-13-2014"	28002	2	6	36	"DC"	"FE.bmp"	"R+"	1	"m"	299
"03-13-2014"	28002	2	6	37	"C"	"E.bmp"	"L+"	0	"m"	1133
"03-13-2014"	28002	2	6	38	"D"	"F.bmp"	"L+"	0	"m"	464
"03-13-2014"	28002	2	6	39	"DC"	"FE.bmp"	"R+"	1	"m"	560
"03-13-2014"	28002	2	6	40	"CD"	"EF.bmp"	"R+"	1	"m"	350
"03-13-2014"	28002	2	6	41	"C"	"E.bmp"	"L+"	0	"m"	405
"03-13-2014"	28002	2	6	42	"DC"	"FE.bmp"	"R+"	1	"m"	631
"03-13-2014"	28002	2	6	43	"D"	"F.bmp"	"L+"	1	"c"	734
"03-13-2014"	28002	2	6	44	"CD"	"EF.bmp"	"R+"	0	"c"	393
"03-13-2014"	28002	2	6	45	"DC"	"FE.bmp"	"R+"	0	"c"	341
"03-13-2014"	28002	2	6	46	"CD"	"EF.bmp"	"R+"	0	"c"	428
"03-13-2014"	28002	2	6	47	"C"	"E.bmp"	"L+"	1	"c"	1106
"03-13-2014"	28002	2	6	48	"D"	"F.bmp"	"L+"	1	"c"	5287
"03-13-2014"	28002	2	6	49	"DC"	"FE.bmp"	"R+"	0	"c"	386
"03-13-2014"	28002	2	6	50	"CD"	"EF.bmp"	"R+"	0	"c"	419
"03-13-2014"	28002	2	6	51	"D"	"F.bmp"	"L+"	1	"c"	478
"03-13-2014"	28002	2	6	52	"C"	"E.bmp"	"L+"	1	"c"	439
"03-13-2014"	28002	2	6	53	"D"	"F.bmp"	"L+"	1	"c"	409
"03-13-2014"	28002	2	6	54	"CD"	"EF.bmp"	"R+"	1	"m"	684
"03-13-2014"	28002	2	6	55	"DC"	"FE.bmp"	"R+"	0	"c"	479
"03-13-2014"	28002	2	6	56	"C"	"E.bmp"	"L+"	1	"c"	489
"03-13-2014"	28002	2	6	57	"D"	"F.bmp"	"L+"	0	"m"	784
"03-13-2014"	28002	2	6	58	"DC"	"FE.bmp"	"R+"	1	"m"	384
"03-13-2014"	28002	2	6	59	"CD"	"EF.bmp"	"R+"	1	"m"	459
"03-13-2014"	28002	2	6	60	"C"	"E.bmp"	"L+"	0	"m"	340
"03-13-2014"	28002	2	6	61	"DC"	"FE.bmp"	"R+"	0	"c"	344
"03-13-2014"	28002	2	6	62	"D"	"F.bmp"	"L+"	1	"c"	338
"03-13-2014"	28002	2	6	63	"C"	"E.bmp"	"L+"	1	"c"	326
"03-13-2014"	28002	2	6	64	"CD"	"EF.bmp"	"R+"	0	"c"	398
"03-13-2014"	28002	2	7	1	"D"	"F.bmp"	"L+"	0	"m"	454
"03-13-2014"	28002	2	7	2	"CD"	"EF.bmp"	"R+"	1	"m"	411
"03-13-2014"	28002	2	7	3	"C"	"E.bmp"	"L+"	0	"m"	355
"03-13-2014"	28002	2	7	4	"DC"	"FE.bmp"	"R+"	1	"m"	389
"03-13-2014"	28002	2	7	5	"CD"	"EF.bmp"	"R+"	1	"m"	521
"03-13-2014"	28002	2	7	6	"D"	"F.bmp"	"L+"	1	"c"	437
"03-13-2014"	28002	2	7	7	"C"	"E.bmp"	"L+"	1	"c"	501
"03-13-2014"	28002	2	7	8	"DC"	"FE.bmp"	"R+"	1	"m"	724
"03-13-2014"	28002	2	7	9	"D"	"F.bmp"	"L+"	0	"m"	525
"03-13-2014"	28002	2	7	10	"C"	"E.bmp"	"L+"	0	"m"	407
"03-13-2014"	28002	2	7	11	"CD"	"EF.bmp"	"R+"	1	"m"	302
"03-13-2014"	28002	2	7	12	"DC"	"FE.bmp"	"R+"	1	"m"	326
"03-13-2014"	28002	2	7	13	"D"	"F.bmp"	"L+"	0	"m"	314
"03-13-2014"	28002	2	7	14	"C"	"E.bmp"	"L+"	0	"m"	356
"03-13-2014"	28002	2	7	15	"CD"	"EF.bmp"	"R+"	1	"m"	358
"03-13-2014"	28002	2	7	16	"DC"	"FE.bmp"	"R+"	1	"m"	373
"03-13-2014"	28002	2	7	17	"D"	"F.bmp"	"L+"	1	"c"	363
"03-13-2014"	28002	2	7	18	"C"	"E.bmp"	"L+"	1	"c"	469
"03-13-2014"	28002	2	7	19	"DC"	"FE.bmp"	"R+"	1	"m"	409
"03-13-2014"	28002	2	7	20	"CD"	"EF.bmp"	"R+"	1	"m"	350
"03-13-2014"	28002	2	7	21	"DC"	"FE.bmp"	"R+"	0	"c"	372
"03-13-2014"	28002	2	7	22	"C"	"E.bmp"	"L+"	1	"c"	357
"03-13-2014"	28002	2	7	23	"D"	"F.bmp"	"L+"	1	"c"	999
"03-13-2014"	28002	2	7	24	"CD"	"EF.bmp"	"R+"	0	"c"	381
"03-13-2014"	28002	2	7	25	"C"	"E.bmp"	"L+"	1	"c"	369
"03-13-2014"	28002	2	7	26	"DC"	"FE.bmp"	"R+"	1	"m"	550
"03-13-2014"	28002	2	7	27	"CD"	"EF.bmp"	"R+"	1	"m"	342
"03-13-2014"	28002	2	7	28	"D"	"F.bmp"	"L+"	1	"c"	400
"03-13-2014"	28002	2	7	29	"DC"	"FE.bmp"	"R+"	0	"c"	351
"03-13-2014"	28002	2	7	30	"C"	"E.bmp"	"L+"	1	"c"	315
"03-13-2014"	28002	2	7	31	"CD"	"EF.bmp"	"R+"	0	"c"	313
"03-13-2014"	28002	2	7	32	"D"	"F.bmp"	"L+"	1	"c"	392
"03-13-2014"	28002	2	7	33	"C"	"E.bmp"	"L+"	0	"m"	593
"03-13-2014"	28002	2	7	34	"CD"	"EF.bmp"	"R+"	1	"m"	281
"03-13-2014"	28002	2	7	35	"DC"	"FE.bmp"	"R+"	1	"m"	281
"03-13-2014"	28002	2	7	36	"D"	"F.bmp"	"L+"	1	"c"	391
"03-13-2014"	28002	2	7	37	"C"	"E.bmp"	"L+"	1	"c"	389
"03-13-2014"	28002	2	7	38	"CD"	"EF.bmp"	"R+"	1	"m"	373
"03-13-2014"	28002	2	7	39	"DC"	"FE.bmp"	"R+"	1	"m"	378
"03-13-2014"	28002	2	7	40	"D"	"F.bmp"	"L+"	1	"c"	498
"03-13-2014"	28002	2	7	41	"DC"	"FE.bmp"	"R+"	0	"c"	358
"03-13-2014"	28002	2	7	42	"CD"	"EF.bmp"	"R+"	0	"c"	352
"03-13-2014"	28002	2	7	43	"C"	"E.bmp"	"L+"	1	"c"	364
"03-13-2014"	28002	2	7	44	"D"	"F.bmp"	"L+"	1	"c"	350
"03-13-2014"	28002	2	7	45	"CD"	"EF.bmp"	"R+"	1	"m"	616
"03-13-2014"	28002	2	7	46	"DC"	"FE.bmp"	"R+"	0	"c"	281
"03-13-2014"	28002	2	7	47	"D"	"F.bmp"	"L+"	1	"c"	358
"03-13-2014"	28002	2	7	48	"C"	"E.bmp"	"L+"	1	"c"	379
"03-13-2014"	28002	2	7	49	"DC"	"FE.bmp"	"R+"	1	"m"	458
"03-13-2014"	28002	2	7	50	"D"	"F.bmp"	"L+"	0	"m"	804
"03-13-2014"	28002	2	7	51	"C"	"E.bmp"	"L+"	0	"m"	331
"03-13-2014"	28002	2	7	52	"CD"	"EF.bmp"	"R+"	1	"m"	318
"03-13-2014"	28002	2	7	53	"DC"	"FE.bmp"	"R+"	1	"m"	242
"03-13-2014"	28002	2	7	54	"C"	"E.bmp"	"L+"	1	"c"	281
"03-13-2014"	28002	2	7	55	"D"	"F.bmp"	"L+"	1	"c"	305
"03-13-2014"	28002	2	7	56	"CD"	"EF.bmp"	"R+"	0	"c"	372
"03-13-2014"	28002	2	7	57	"D"	"F.bmp"	"L+"	1	"c"	343
"03-13-2014"	28002	2	7	58	"DC"	"FE.bmp"	"R+"	0	"c"	435
"03-13-2014"	28002	2	7	59	"CD"	"EF.bmp"	"R+"	1	"m"	297
"03-13-2014"	28002	2	7	60	"C"	"E.bmp"	"L+"	0	"m"	271
"03-13-2014"	28002	2	7	61	"D"	"F.bmp"	"L+"	0	"m"	272
"03-13-2014"	28002	2	7	62	"C"	"E.bmp"	"L+"	0	"m"	280
"03-13-2014"	28002	2	7	63	"DC"	"FE.bmp"	"R+"	1	"m"	337
"03-13-2014"	28002	2	7	64	"CD"	"EF.bmp"	"R+"	1	"m"	528
"03-13-2014"	28002	2	8	1	"C"	"E.bmp"	"L+"	1	"c"	3119
"03-13-2014"	28002	2	8	2	"DC"	"FE.bmp"	"R+"	0	"c"	618
"03-13-2014"	28002	2	8	3	"D"	"F.bmp"	"L+"	1	"c"	392
"03-13-2014"	28002	2	8	4	"CD"	"EF.bmp"	"R+"	0	"c"	338
"03-13-2014"	28002	2	8	5	"D"	"F.bmp"	"L+"	1	"c"	435
"03-13-2014"	28002	2	8	6	"CD"	"EF.bmp"	"R+"	0	"c"	774
"03-13-2014"	28002	2	8	7	"C"	"E.bmp"	"L+"	1	"c"	643
"03-13-2014"	28002	2	8	8	"DC"	"FE.bmp"	"R+"	0	"c"	375
"03-13-2014"	28002	2	8	9	"C"	"E.bmp"	"L+"	0	"m"	683
"03-13-2014"	28002	2	8	10	"DC"	"FE.bmp"	"R+"	1	"m"	225
"03-13-2014"	28002	2	8	11	"CD"	"EF.bmp"	"R+"	1	"m"	269
"03-13-2014"	28002	2	8	12	"D"	"F.bmp"	"L+"	0	"m"	312
"03-13-2014"	28002	2	8	13	"C"	"E.bmp"	"L+"	0	"m"	229
"03-13-2014"	28002	2	8	14	"D"	"F.bmp"	"L+"	0	"m"	440
"03-13-2014"	28002	2	8	15	"CD"	"EF.bmp"	"R+"	1	"m"	307
"03-13-2014"	28002	2	8	16	"DC"	"FE.bmp"	"R+"	1	"m"	329
"03-13-2014"	28002	2	8	17	"CD"	"EF.bmp"	"R+"	0	"c"	300
"03-13-2014"	28002	2	8	18	"D"	"F.bmp"	"L+"	1	"c"	326
"03-13-2014"	28002	2	8	19	"C"	"E.bmp"	"L+"	1	"c"	650
"03-13-2014"	28002	2	8	20	"DC"	"FE.bmp"	"R+"	0	"c"	398
"03-13-2014"	28002	2	8	21	"C"	"E.bmp"	"L+"	0	"m"	615
"03-13-2014"	28002	2	8	22	"CD"	"EF.bmp"	"R+"	1	"m"	653
"03-13-2014"	28002	2	8	23	"D"	"F.bmp"	"L+"	0	"m"	445
"03-13-2014"	28002	2	8	24	"DC"	"FE.bmp"	"R+"	1	"m"	335
"03-13-2014"	28002	2	8	25	"CD"	"EF.bmp"	"R+"	1	"m"	353
"03-13-2014"	28002	2	8	26	"C"	"E.bmp"	"L+"	1	"c"	330
"03-13-2014"	28002	2	8	27	"D"	"F.bmp"	"L+"	1	"c"	356
"03-13-2014"	28002	2	8	28	"DC"	"FE.bmp"	"R+"	0	"c"	266
"03-13-2014"	28002	2	8	29	"CD"	"EF.bmp"	"R+"	0	"c"	362
"03-13-2014"	28002	2	8	30	"C"	"E.bmp"	"L+"	1	"c"	503
"03-13-2014"	28002	2	8	31	"D"	"F.bmp"	"L+"	1	"c"	795
"03-13-2014"	28002	2	8	32	"DC"	"FE.bmp"	"R+"	0	"c"	388
"03-13-2014"	28002	2	8	33	"C"	"E.bmp"	"L+"	1	"c"	410
"03-13-2014"	28002	2	8	34	"DC"	"FE.bmp"	"R+"	0	"c"	375
"03-13-2014"	28002	2	8	35	"CD"	"EF.bmp"	"R+"	0	"c"	346
"03-13-2014"	28002	2	8	36	"D"	"F.bmp"	"L+"	1	"c"	303
"03-13-2014"	28002	2	8	37	"DC"	"FE.bmp"	"R+"	0	"c"	413
"03-13-2014"	28002	2	8	38	"D"	"F.bmp"	"L+"	0	"m"	378
"03-13-2014"	28002	2	8	39	"CD"	"EF.bmp"	"R+"	1	"m"	574
"03-13-2014"	28002	2	8	40	"C"	"E.bmp"	"L+"	0	"m"	381
"03-13-2014"	28002	2	8	41	"DC"	"FE.bmp"	"R+"	1	"m"	352
"03-13-2014"	28002	2	8	42	"CD"	"EF.bmp"	"R+"	1	"m"	306
"03-13-2014"	28002	2	8	43	"D"	"F.bmp"	"L+"	0	"m"	335
"03-13-2014"	28002	2	8	44	"C"	"E.bmp"	"L+"	1	"c"	346
"03-13-2014"	28002	2	8	45	"DC"	"FE.bmp"	"R+"	0	"c"	283
"03-13-2014"	28002	2	8	46	"CD"	"EF.bmp"	"R+"	0	"c"	248
"03-13-2014"	28002	2	8	47	"C"	"E.bmp"	"L+"	1	"c"	242
"03-13-2014"	28002	2	8	48	"D"	"F.bmp"	"L+"	1	"c"	318
"03-13-2014"	28002	2	8	49	"CD"	"EF.bmp"	"R+"	0	"c"	300
"03-13-2014"	28002	2	8	50	"D"	"F.bmp"	"L+"	1	"c"	297
"03-13-2014"	28002	2	8	51	"C"	"E.bmp"	"L+"	1	"c"	465
"03-13-2014"	28002	2	8	52	"DC"	"FE.bmp"	"R+"	0	"c"	425
"03-13-2014"	28002	2	8	53	"C"	"E.bmp"	"L+"	1	"c"	411
"03-13-2014"	28002	2	8	54	"D"	"F.bmp"	"L+"	0	"m"	412
"03-13-2014"	28002	2	8	55	"DC"	"FE.bmp"	"R+"	1	"m"	270
"03-13-2014"	28002	2	8	56	"CD"	"EF.bmp"	"R+"	1	"m"	261
"03-13-2014"	28002	2	8	57	"D"	"F.bmp"	"L+"	1	"c"	333
"03-13-2014"	28002	2	8	58	"CD"	"EF.bmp"	"R+"	0	"c"	255
"03-13-2014"	28002	2	8	59	"C"	"E.bmp"	"L+"	0	"m"	862
"03-13-2014"	28002	2	8	60	"DC"	"FE.bmp"	"R+"	1	"m"	423
"03-13-2014"	28002	2	8	61	"C"	"E.bmp"	"L+"	0	"m"	285
"03-13-2014"	28002	2	8	62	"D"	"F.bmp"	"L+"	0	"m"	351
"03-13-2014"	28002	2	8	63	"DC"	"FE.bmp"	"R+"	0	"c"	292
"03-13-2014"	28002	2	8	64	"CD"	"EF.bmp"	"R+"	0	"c"	326
"03-13-2014"	28002	2	9	1	"C"	"E.bmp"	"L+"	1	"c"	1815
"03-13-2014"	28002	2	9	2	"DC"	"FE.bmp"	"R+"	0	"c"	389
"03-13-2014"	28002	2	9	3	"D"	"F.bmp"	"L+"	1	"c"	383
"03-13-2014"	28002	2	9	4	"CD"	"EF.bmp"	"R+"	0	"c"	295
"03-13-2014"	28002	2	9	5	"C"	"E.bmp"	"L+"	1	"c"	347
"03-13-2014"	28002	2	9	6	"D"	"F.bmp"	"L+"	1	"c"	395
"03-13-2014"	28002	2	9	7	"CD"	"EF.bmp"	"R+"	1	"m"	1351
"03-13-2014"	28002	2	9	8	"DC"	"FE.bmp"	"R+"	1	"m"	337
"03-13-2014"	28002	2	9	9	"D"	"F.bmp"	"L+"	0	"m"	274
"03-13-2014"	28002	2	9	10	"DC"	"FE.bmp"	"R+"	1	"m"	442
"03-13-2014"	28002	2	9	11	"CD"	"EF.bmp"	"R+"	0	"c"	408
"03-13-2014"	28002	2	9	12	"C"	"E.bmp"	"L+"	1	"c"	290
"03-13-2014"	28002	2	9	13	"CD"	"EF.bmp"	"R+"	0	"c"	306
"03-13-2014"	28002	2	9	14	"DC"	"FE.bmp"	"R+"	0	"c"	333
"03-13-2014"	28002	2	9	15	"D"	"F.bmp"	"L+"	1	"c"	371
"03-13-2014"	28002	2	9	16	"C"	"E.bmp"	"L+"	1	"c"	405
"03-13-2014"	28002	2	9	17	"CD"	"EF.bmp"	"R+"	1	"m"	755
"03-13-2014"	28002	2	9	18	"D"	"F.bmp"	"L+"	0	"m"	369
"03-13-2014"	28002	2	9	19	"C"	"E.bmp"	"L+"	0	"m"	268
"03-13-2014"	28002	2	9	20	"DC"	"FE.bmp"	"R+"	1	"m"	341
"03-13-2014"	28002	2	9	21	"D"	"F.bmp"	"L+"	0	"m"	340
"03-13-2014"	28002	2	9	22	"CD"	"EF.bmp"	"R+"	1	"m"	403
"03-13-2014"	28002	2	9	23	"DC"	"FE.bmp"	"R+"	1	"m"	301
"03-13-2014"	28002	2	9	24	"C"	"E.bmp"	"L+"	0	"m"	482
"03-13-2014"	28002	2	9	25	"D"	"F.bmp"	"L+"	1	"c"	552
"03-13-2014"	28002	2	9	26	"C"	"E.bmp"	"L+"	1	"c"	320
"03-13-2014"	28002	2	9	27	"CD"	"EF.bmp"	"R+"	0	"c"	334
"03-13-2014"	28002	2	9	28	"DC"	"FE.bmp"	"R+"	0	"c"	380
"03-13-2014"	28002	2	9	29	"C"	"E.bmp"	"L+"	1	"c"	324
"03-13-2014"	28002	2	9	30	"D"	"F.bmp"	"L+"	1	"c"	375
"03-13-2014"	28002	2	9	31	"DC"	"FE.bmp"	"R+"	1	"m"	713
"03-13-2014"	28002	2	9	32	"CD"	"EF.bmp"	"R+"	1	"m"	261
"03-13-2014"	28002	2	9	33	"D"	"F.bmp"	"L+"	1	"c"	729
"03-13-2014"	28002	2	9	34	"C"	"E.bmp"	"L+"	0	"m"	378
"03-13-2014"	28002	2	9	35	"CD"	"EF.bmp"	"R+"	0	"c"	315
"03-13-2014"	28002	2	9	36	"DC"	"FE.bmp"	"R+"	0	"c"	313
"03-13-2014"	28002	2	9	37	"C"	"E.bmp"	"L+"	1	"c"	352
"03-13-2014"	28002	2	9	38	"DC"	"FE.bmp"	"R+"	0	"c"	271
"03-13-2014"	28002	2	9	39	"D"	"F.bmp"	"L+"	1	"c"	394
"03-13-2014"	28002	2	9	40	"CD"	"EF.bmp"	"R+"	0	"c"	412
"03-13-2014"	28002	2	9	41	"C"	"E.bmp"	"L+"	1	"c"	398
"03-13-2014"	28002	2	9	42	"D"	"F.bmp"	"L+"	1	"c"	342
"03-13-2014"	28002	2	9	43	"CD"	"EF.bmp"	"R+"	1	"m"	704
"03-13-2014"	28002	2	9	44	"DC"	"FE.bmp"	"R+"	1	"m"	337
"03-13-2014"	28002	2	9	45	"D"	"F.bmp"	"L+"	0	"m"	460
"03-13-2014"	28002	2	9	46	"CD"	"EF.bmp"	"R+"	1	"m"	305
"03-13-2014"	28002	2	9	47	"C"	"E.bmp"	"L+"	0	"m"	290
"03-13-2014"	28002	2	9	48	"DC"	"FE.bmp"	"R+"	0	"c"	390
"03-13-2014"	28002	2	9	49	"D"	"F.bmp"	"L+"	1	"c"	271
"03-13-2014"	28002	2	9	50	"CD"	"EF.bmp"	"R+"	0	"c"	378
"03-13-2014"	28002	2	9	51	"DC"	"FE.bmp"	"R+"	0	"c"	423
"03-13-2014"	28002	2	9	52	"C"	"E.bmp"	"L+"	1	"c"	374
"03-13-2014"	28002	2	9	53	"CD"	"EF.bmp"	"R+"	0	"c"	410
"03-13-2014"	28002	2	9	54	"C"	"E.bmp"	"L+"	1	"c"	1866
"03-13-2014"	28002	2	9	55	"DC"	"FE.bmp"	"R+"	0	"c"	590
"03-13-2014"	28002	2	9	56	"D"	"F.bmp"	"L+"	1	"c"	375
"03-13-2014"	28002	2	9	57	"C"	"E.bmp"	"L+"	1	"c"	398
"03-13-2014"	28002	2	9	58	"D"	"F.bmp"	"L+"	1	"c"	564
"03-13-2014"	28002	2	9	59	"CD"	"EF.bmp"	"R+"	1	"m"	889
"03-13-2014"	28002	2	9	60	"DC"	"FE.bmp"	"R+"	1	"m"	371
"03-13-2014"	28002	2	9	61	"C"	"E.bmp"	"L+"	0	"m"	320
"03-13-2014"	28002	2	9	62	"CD"	"EF.bmp"	"R+"	1	"m"	475
"03-13-2014"	28002	2	9	63	"D"	"F.bmp"	"L+"	0	"m"	448
"03-13-2014"	28002	2	9	64	"DC"	"FE.bmp"	"R+"	1	"m"	351
"03-13-2014"	28002	2	10	1	"C"	"E.bmp"	"L+"	1	"c"	511
"03-13-2014"	28002	2	10	2	"DC"	"FE.bmp"	"R+"	0	"c"	371
"03-13-2014"	28002	2	10	3	"CD"	"EF.bmp"	"R+"	0	"c"	308
"03-13-2014"	28002	2	10	4	"D"	"F.bmp"	"L+"	1	"c"	826
"03-13-2014"	28002	2	10	5	"C"	"E.bmp"	"L+"	0	"m"	1235
"03-13-2014"	28002	2	10	6	"D"	"F.bmp"	"L+"	1	"c"	531
"03-13-2014"	28002	2	10	7	"CD"	"EF.bmp"	"R+"	1	"m"	306
"03-13-2014"	28002	2	10	8	"DC"	"FE.bmp"	"R+"	1	"m"	344
"03-13-2014"	28002	2	10	9	"C"	"E.bmp"	"L+"	1	"c"	597
"03-13-2014"	28002	2	10	10	"DC"	"FE.bmp"	"R+"	0	"c"	664
"03-13-2014"	28002	2	10	11	"CD"	"EF.bmp"	"R+"	0	"c"	359
"03-13-2014"	28002	2	10	12	"D"	"F.bmp"	"L+"	1	"c"	354
"03-13-2014"	28002	2	10	13	"DC"	"FE.bmp"	"R+"	0	"c"	930
"03-13-2014"	28002	2	10	14	"C"	"E.bmp"	"L+"	1	"c"	426
"03-13-2014"	28002	2	10	15	"CD"	"EF.bmp"	"R+"	1	"m"	742
"03-13-2014"	28002	2	10	16	"D"	"F.bmp"	"L+"	0	"m"	380
"03-13-2014"	28002	2	10	17	"C"	"E.bmp"	"L+"	0	"m"	314
"03-13-2014"	28002	2	10	18	"DC"	"FE.bmp"	"R+"	0	"c"	278
"03-13-2014"	28002	2	10	19	"D"	"F.bmp"	"L+"	1	"c"	423
"03-13-2014"	28002	2	10	20	"CD"	"EF.bmp"	"R+"	0	"c"	337
"03-13-2014"	28002	2	10	21	"D"	"F.bmp"	"L+"	1	"c"	398
"03-13-2014"	28002	2	10	22	"C"	"E.bmp"	"L+"	0	"m"	572
"03-13-2014"	28002	2	10	23	"CD"	"EF.bmp"	"R+"	0	"c"	365
"03-13-2014"	28002	2	10	24	"DC"	"FE.bmp"	"R+"	0	"c"	338
"03-13-2014"	28002	2	10	25	"CD"	"EF.bmp"	"R+"	0	"c"	295
"03-13-2014"	28002	2	10	26	"DC"	"FE.bmp"	"R+"	1	"m"	353
"03-13-2014"	28002	2	10	27	"C"	"E.bmp"	"L+"	0	"m"	813
"03-13-2014"	28002	2	10	28	"D"	"F.bmp"	"L+"	0	"m"	357
"03-13-2014"	28002	2	10	29	"DC"	"FE.bmp"	"R+"	1	"m"	288
"03-13-2014"	28002	2	10	30	"C"	"E.bmp"	"L+"	0	"m"	474
"03-13-2014"	28002	2	10	31	"D"	"F.bmp"	"L+"	0	"m"	332
"03-13-2014"	28002	2	10	32	"CD"	"EF.bmp"	"R+"	1	"m"	299
"03-13-2014"	28002	2	10	33	"D"	"F.bmp"	"L+"	0	"m"	273
"03-13-2014"	28002	2	10	34	"C"	"E.bmp"	"L+"	0	"m"	325
"03-13-2014"	28002	2	10	35	"CD"	"EF.bmp"	"R+"	1	"m"	356
"03-13-2014"	28002	2	10	36	"DC"	"FE.bmp"	"R+"	0	"c"	415
"03-13-2014"	28002	2	10	37	"C"	"E.bmp"	"L+"	0	"m"	570
"03-13-2014"	28002	2	10	38	"DC"	"FE.bmp"	"R+"	0	"c"	319
"03-13-2014"	28002	2	10	39	"CD"	"EF.bmp"	"R+"	1	"m"	303
"03-13-2014"	28002	2	10	40	"D"	"F.bmp"	"L+"	1	"c"	536
"03-13-2014"	28002	2	10	41	"CD"	"EF.bmp"	"R+"	1	"m"	916
"03-13-2014"	28002	2	10	42	"C"	"E.bmp"	"L+"	0	"m"	333
"03-13-2014"	28002	2	10	43	"DC"	"FE.bmp"	"R+"	0	"c"	371
"03-13-2014"	28002	2	10	44	"D"	"F.bmp"	"L+"	0	"m"	358
"03-13-2014"	28002	2	10	45	"C"	"E.bmp"	"L+"	0	"m"	408
"03-13-2014"	28002	2	10	46	"DC"	"FE.bmp"	"R+"	1	"m"	275
"03-13-2014"	28002	2	10	47	"D"	"F.bmp"	"L+"	0	"m"	450
"03-13-2014"	28002	2	10	48	"CD"	"EF.bmp"	"R+"	0	"c"	290
"03-13-2014"	28002	2	10	49	"D"	"F.bmp"	"L+"	0	"m"	396
"03-13-2014"	28002	2	10	50	"C"	"E.bmp"	"L+"	1	"c"	328
"03-13-2014"	28002	2	10	51	"CD"	"EF.bmp"	"R+"	0	"c"	388
"03-13-2014"	28002	2	10	52	"DC"	"FE.bmp"	"R+"	1	"m"	283
"03-13-2014"	28002	2	10	53	"CD"	"EF.bmp"	"R+"	1	"m"	326
"03-13-2014"	28002	2	10	54	"D"	"F.bmp"	"L+"	1	"c"	436
"03-13-2014"	28002	2	10	55	"DC"	"FE.bmp"	"R+"	0	"c"	359
"03-13-2014"	28002	2	10	56	"C"	"E.bmp"	"L+"	0	"m"	344
"03-13-2014"	28002	2	10	57	"D"	"F.bmp"	"L+"	1	"c"	588
"03-13-2014"	28002	2	10	58	"C"	"E.bmp"	"L+"	1	"c"	1667
"03-13-2014"	28002	2	10	59	"CD"	"EF.bmp"	"R+"	0	"c"	1089
"03-13-2014"	28002	2	10	60	"DC"	"FE.bmp"	"R+"	0	"c"	381
"03-13-2014"	28002	2	10	61	"C"	"E.bmp"	"L+"	1	"c"	338
"03-13-2014"	28002	2	10	62	"D"	"F.bmp"	"L+"	1	"c"	311
"03-13-2014"	28002	2	10	63	"DC"	"FE.bmp"	"R+"	1	"m"	723
"03-13-2014"	28002	2	10	64	"CD"	"EF.bmp"	"R+"	1	"m"	351
"03-13-2014"	28002	3	1	1	"DC"	"FE.bmp"	"R+"	1	"m"	455
"03-13-2014"	28002	3	1	2	"CD"	"EF.bmp"	"R+"	0	"c"	390
"03-13-2014"	28002	3	1	3	"AB"	"CD.bmp"	"L+"	1	"c"	483
"03-13-2014"	28002	3	1	4	"B"	"D.bmp"	"R+"	0	"c"	596
"03-13-2014"	28002	3	1	5	"D"	"F.bmp"	"L+"	0	"m"	952
"03-13-2014"	28002	3	1	6	"C"	"E.bmp"	"L+"	0	"m"	470
"03-13-2014"	28002	3	1	7	"A"	"C.bmp"	"R+"	1	"m"	285
"03-13-2014"	28002	3	1	8	"BA"	"DC.bmp"	"L+"	0	"m"	280
"03-13-2014"	28002	3	1	9	"A"	"C.bmp"	"R+"	1	"m"	321
"03-13-2014"	28002	3	1	10	"B"	"D.bmp"	"R+"	1	"m"	353
"03-13-2014"	28002	3	1	11	"AB"	"CD.bmp"	"L+"	1	"c"	509
"03-13-2014"	28002	3	1	12	"CD"	"EF.bmp"	"R+"	0	"c"	469
"03-13-2014"	28002	3	1	13	"C"	"E.bmp"	"L+"	1	"c"	350
"03-13-2014"	28002	3	1	14	"D"	"F.bmp"	"L+"	1	"c"	442
"03-13-2014"	28002	3	1	15	"BA"	"DC.bmp"	"L+"	0	"m"	451
"03-13-2014"	28002	3	1	16	"DC"	"FE.bmp"	"R+"	1	"m"	641
"03-13-2014"	28002	3	1	17	"BA"	"DC.bmp"	"L+"	1	"c"	328
"03-13-2014"	28002	3	1	18	"D"	"F.bmp"	"L+"	1	"c"	329
"03-13-2014"	28002	3	1	19	"C"	"E.bmp"	"L+"	1	"c"	471
"03-13-2014"	28002	3	1	20	"B"	"D.bmp"	"R+"	1	"m"	1246
"03-13-2014"	28002	3	1	21	"CD"	"EF.bmp"	"R+"	1	"m"	520
"03-13-2014"	28002	3	1	22	"AB"	"CD.bmp"	"L+"	1	"c"	895
"03-13-2014"	28002	3	1	23	"DC"	"FE.bmp"	"R+"	0	"c"	363
"03-13-2014"	28002	3	1	24	"A"	"C.bmp"	"R+"	0	"c"	545
"03-13-2014"	28002	3	1	25	"D"	"F.bmp"	"L+"	1	"c"	448
"03-13-2014"	28002	3	1	26	"DC"	"FE.bmp"	"R+"	0	"c"	374
"03-13-2014"	28002	3	1	27	"CD"	"EF.bmp"	"R+"	0	"c"	374
"03-13-2014"	28002	3	1	28	"A"	"C.bmp"	"R+"	0	"c"	436
"03-13-2014"	28002	3	1	29	"AB"	"CD.bmp"	"L+"	1	"c"	361
"03-13-2014"	28002	3	1	30	"BA"	"DC.bmp"	"L+"	1	"c"	471
"03-13-2014"	28002	3	1	31	"C"	"E.bmp"	"L+"	0	"m"	696
"03-13-2014"	28002	3	1	32	"B"	"D.bmp"	"R+"	1	"m"	538
"03-13-2014"	28002	3	1	33	"DC"	"FE.bmp"	"R+"	1	"m"	631
"03-13-2014"	28002	3	1	34	"BA"	"DC.bmp"	"L+"	0	"m"	366
"03-13-2014"	28002	3	1	35	"A"	"C.bmp"	"R+"	0	"c"	507
"03-13-2014"	28002	3	1	36	"C"	"E.bmp"	"L+"	1	"c"	359
"03-13-2014"	28002	3	1	37	"CD"	"EF.bmp"	"R+"	0	"c"	328
"03-13-2014"	28002	3	1	38	"D"	"F.bmp"	"L+"	1	"c"	337
"03-13-2014"	28002	3	1	39	"AB"	"CD.bmp"	"L+"	1	"c"	367
