"date"	"cond"	"cb"	"subj"	"phase"	"blk"	"trial"	"stim"	"resp"	"rt"	"d1"	"d2"	"d3"	"d4"	"d5"	"d6"	"probestim"	"proberesp"	"probert"
"2009-04-02"	1	-1	11	1	1	1	-1	-1	-1	6	7	2	9	4	8	6	7	3147
"2009-04-02"	1	-1	11	1	1	2	-1	-1	-1	7	1	5	9	8	4	9	8	1940
"2009-04-02"	1	-1	11	1	1	3	-1	-1	-1	8	4	3	2	6	9	3	2	2223
"2009-04-02"	1	-1	11	1	1	4	-1	-1	-1	6	9	1	4	3	5	9	1	2719
"2009-04-02"	1	-1	11	1	1	5	-1	-1	-1	6	1	8	5	2	4	2	4	1800
"2009-04-02"	1	-1	11	1	1	6	-1	-1	-1	6	9	2	4	7	3	7	3	1387
"2009-04-02"	1	-1	11	1	1	7	-1	-1	-1	7	1	5	8	2	6	7	1	2484
"2009-04-02"	1	-1	11	1	1	8	-1	-1	-1	5	8	9	1	6	4	8	6	1725
"2009-04-02"	1	-1	11	1	1	9	-1	-1	-1	9	6	4	3	8	5	3	8	1653
"2009-04-02"	1	-1	11	1	1	10	-1	-1	-1	5	6	1	3	8	7	1	3	1480
"2009-04-02"	1	1	11	2	1	1	4	1	2518	2	6	7	4	3	1	3	1	1757
"2009-04-02"	1	1	11	2	1	2	20	0	6289	2	1	8	4	3	7	1	3	1754
"2009-04-02"	1	1	11	2	1	3	13	1	2035	6	3	4	5	8	7	6	3	2366
"2009-04-02"	1	1	11	2	1	4	14	1	1779	9	5	7	6	1	4	7	6	1763
"2009-04-02"	1	1	11	2	1	5	6	0	2472	9	2	8	7	5	1	7	5	1348
"2009-04-02"	1	1	11	2	1	6	16	1	1349	4	5	8	7	9	1	9	1	1119
"2009-04-02"	1	1	11	2	1	7	25	0	1746	4	5	6	8	9	3	6	7	1749
"2009-04-02"	1	1	11	2	1	8	1	1	1126	1	3	2	9	8	7	1	2	1538
"2009-04-02"	1	1	11	2	1	9	12	0	1217	5	4	2	3	7	9	4	2	1520
"2009-04-02"	1	1	11	2	1	10	7	1	1796	6	3	4	9	2	5	9	2	1439
"2009-04-02"	1	1	11	2	1	11	28	0	1459	8	3	4	1	9	6	4	1	1395
"2009-04-02"	1	1	11	2	1	12	25	1	1819	8	3	4	5	2	6	3	4	1084
"2009-04-02"	1	1	11	2	1	13	9	0	1630	3	4	7	9	2	8	3	4	1593
"2009-04-02"	1	1	11	2	1	14	1	1	970	4	8	9	6	1	7	1	7	1558
"2009-04-02"	1	1	11	2	1	15	22	0	1026	3	1	5	2	9	7	2	5	1204
"2009-04-02"	1	1	11	2	1	16	12	1	1215	7	6	1	4	5	8	6	2	1551
"2009-04-02"	1	1	11	2	1	17	28	0	2080	9	3	7	2	8	4	8	4	1326
"2009-04-02"	1	1	11	2	1	18	31	0	1480	1	2	5	9	8	6	5	2	1606
"2009-04-02"	1	1	11	2	1	19	3	1	994	2	9	1	4	6	5	2	9	1451
"2009-04-02"	1	1	11	2	1	20	5	0	1402	8	3	6	2	7	1	2	7	1511
"2009-04-02"	1	1	11	2	1	21	16	1	824	9	5	1	2	7	8	7	8	1751
"2009-04-02"	1	1	11	2	1	22	30	1	1352	6	8	2	4	3	9	4	3	1282
"2009-04-02"	1	1	11	2	1	23	10	1	1038	4	7	6	1	2	3	4	7	1439
"2009-04-02"	1	1	11	2	1	24	5	0	2170	6	1	2	7	3	8	1	2	2083
"2009-04-02"	1	1	11	2	1	25	17	0	928	8	4	2	7	6	5	2	7	1444
"2009-04-02"	1	1	11	2	1	26	13	1	1072	9	7	3	2	6	1	9	7	1482
"2009-04-02"	1	1	11	2	1	27	8	1	1093	6	1	5	7	3	4	7	3	893
"2009-04-02"	1	1	11	2	1	28	9	1	802	5	6	7	8	4	9	4	9	1373
"2009-04-02"	1	1	11	2	1	29	15	1	1195	3	5	6	7	4	8	6	7	2181
"2009-04-02"	1	1	11	2	1	30	20	0	896	5	9	4	6	2	1	9	4	1471
"2009-04-02"	1	1	11	2	1	31	23	0	1207	2	7	4	9	3	8	9	4	3660
"2009-04-02"	1	1	11	2	1	32	11	1	1089	9	4	3	5	7	2	7	2	1478
"2009-04-02"	1	1	11	2	1	33	4	0	1009	1	7	3	8	5	9	1	7	1605
"2009-04-02"	1	1	11	2	1	34	2	1	857	4	9	6	1	8	3	9	6	1280
"2009-04-02"	1	1	11	2	1	35	8	1	619	4	3	8	6	5	1	8	6	1209
"2009-04-02"	1	1	11	2	1	36	17	1	1399	3	8	1	7	2	4	1	2	3012
"2009-04-02"	1	1	11	2	2	1	13	0	1394	2	5	3	6	9	1	2	5	1157
"2009-04-02"	1	1	11	2	2	2	10	0	1472	7	3	2	8	5	4	3	2	1146
"2009-04-02"	1	1	11	2	2	3	13	0	667	2	3	9	6	8	5	6	8	1340
"2009-04-02"	1	1	11	2	2	4	16	0	842	9	3	5	6	4	7	4	7	1182
"2009-04-02"	1	1	11	2	2	5	2	0	1148	6	1	7	2	5	4	7	2	925
"2009-04-02"	1	1	11	2	2	6	20	1	1000	3	6	2	8	4	1	3	6	1092
"2009-04-02"	1	1	11	2	2	7	9	1	914	2	1	5	9	6	3	6	3	1387
"2009-04-02"	1	1	11	2	2	8	1	1	1172	4	5	1	3	9	2	3	9	1308
"2009-04-02"	1	1	11	2	2	9	5	0	1116	7	5	2	3	8	9	5	2	1774
"2009-04-02"	1	1	11	2	2	10	20	0	1229	7	5	4	3	9	6	7	5	2111
"2009-04-02"	1	1	11	2	2	11	1	1	1320	3	4	5	1	9	2	4	1	1269
"2009-04-02"	1	1	11	2	2	12	5	1	1190	1	2	7	5	9	4	5	9	1808
"2009-04-02"	1	1	11	2	2	13	28	0	1135	7	6	1	3	8	5	8	5	1198
"2009-04-02"	1	1	11	2	2	14	16	0	1217	5	1	8	6	2	7	8	6	1433
"2009-04-02"	1	1	11	2	2	15	28	0	586	9	8	1	5	2	4	5	2	827
"2009-04-02"	1	1	11	2	2	16	25	0	1154	3	6	2	8	9	4	3	6	1620
"2009-04-02"	1	1	11	2	2	17	6	1	1218	1	7	3	6	9	8	9	8	1346
"2009-04-02"	1	1	11	2	2	18	7	1	843	4	5	1	3	9	2	1	3	1031
"2009-04-02"	1	1	11	2	2	19	8	1	1015	6	7	4	3	8	2	7	4	1198
"2009-04-02"	1	1	11	2	2	20	22	0	881	5	6	2	4	1	3	5	6	1189
"2009-04-02"	1	1	11	2	2	21	8	0	950	9	8	7	2	6	3	2	6	1239
"2009-04-02"	1	1	11	2	2	22	25	1	1402	9	6	2	1	5	3	5	3	1119
"2009-04-02"	1	1	11	2	2	23	11	1	1898	6	5	8	7	4	2	8	7	1027
"2009-04-02"	1	1	11	2	2	24	14	0	1243	2	3	1	8	6	9	3	6	1088
"2009-04-02"	1	1	11	2	2	25	9	1	587	4	5	1	2	8	3	5	1	1180
"2009-04-02"	1	1	11	2	2	26	12	1	938	7	1	4	2	3	6	7	1	985
"2009-04-02"	1	1	11	2	2	27	23	0	728	8	2	4	3	5	6	4	5	1124
"2009-04-02"	1	1	11	2	2	28	30	1	1511	1	8	7	9	6	5	6	5	977
"2009-04-02"	1	1	11	2	2	29	17	0	831	3	4	1	9	8	6	9	8	1296
"2009-04-02"	1	1	11	2	2	30	3	0	1574	7	3	4	5	9	8	4	5	1006
"2009-04-02"	1	1	11	2	2	31	4	0	793	5	3	7	1	9	8	9	8	1210
"2009-04-02"	1	1	11	2	2	32	4	1	791	6	3	8	7	4	2	6	3	1505
"2009-04-02"	1	1	11	2	2	33	17	1	810	9	5	3	1	4	2	5	3	1326
"2009-04-02"	1	1	11	2	2	34	31	1	1089	2	3	6	1	7	4	1	7	1406
"2009-04-02"	1	1	11	2	2	35	15	1	873	8	6	4	7	9	3	7	9	1491
"2009-04-02"	1	1	11	2	2	36	12	1	721	5	9	4	6	3	8	4	6	1125
"2009-04-02"	1	1	11	2	3	1	1	1	1218	4	6	1	3	8	2	8	2	1186
"2009-04-02"	1	1	11	2	3	2	11	1	730	6	8	4	2	3	9	6	8	1374
"2009-04-02"	1	1	11	2	3	3	10	0	988	9	3	5	4	6	1	3	4	1302
"2009-04-02"	1	1	11	2	3	4	5	0	1043	9	8	5	2	4	1	5	2	911
"2009-04-02"	1	1	11	2	3	5	13	1	1447	7	6	2	5	9	8	7	6	1477
"2009-04-02"	1	1	11	2	3	6	13	0	752	4	8	5	1	7	9	8	5	1042
"2009-04-02"	1	1	11	2	3	7	17	1	828	4	5	6	1	2	7	2	7	1190
"2009-04-02"	1	1	11	2	3	8	23	0	814	1	4	5	6	9	3	6	9	1237
"2009-04-02"	1	1	11	2	3	9	5	0	808	5	1	2	6	7	4	6	7	1091
"2009-04-02"	1	1	11	2	3	10	9	1	513	8	5	9	7	2	4	2	4	1450
"2009-04-02"	1	1	11	2	3	11	28	0	1088	9	4	2	7	6	8	4	2	1157
"2009-04-02"	1	1	11	2	3	12	4	1	1120	4	5	8	2	1	9	8	2	917
"2009-04-02"	1	1	11	2	3	13	31	0	1159	4	8	2	5	6	3	4	8	1340
"2009-04-02"	1	1	11	2	3	14	12	1	602	8	9	4	3	2	5	4	3	822
"2009-04-02"	1	1	11	2	3	15	16	0	730	5	4	2	8	1	6	5	4	1014
"2009-04-02"	1	1	11	2	3	16	4	1	795	2	5	8	1	9	7	1	9	1669
"2009-04-02"	1	1	11	2	3	17	14	0	1046	4	3	7	2	8	1	8	1	1019
"2009-04-02"	1	1	11	2	3	18	7	0	624	4	8	7	5	9	6	8	7	1095
"2009-04-02"	1	1	11	2	3	19	30	1	964	9	8	3	7	2	6	2	6	1297
"2009-04-02"	1	1	11	2	3	20	8	0	719	8	4	7	6	9	2	8	4	944
"2009-04-02"	1	1	11	2	3	21	28	0	519	9	8	5	3	1	7	8	5	1466
"2009-04-02"	1	1	11	2	3	22	6	0	611	7	1	2	4	9	8	4	9	1423
"2009-04-02"	1	1	11	2	3	23	2	1	960	7	1	8	5	9	4	8	5	1996
"2009-04-02"	1	1	11	2	3	24	16	0	1121	9	7	1	8	3	6	1	8	1198
"2009-04-02"	1	1	11	2	3	25	12	1	617	8	6	4	2	5	1	2	5	1247
"2009-04-02"	1	1	11	2	3	26	1	0	1954	3	7	5	6	2	9	3	6	1261
"2009-04-02"	1	1	11	2	3	27	25	0	651	3	4	1	2	7	5	7	5	1263
"2009-04-02"	1	1	11	2	3	28	22	0	783	5	4	9	6	7	1	4	9	2014
"2009-04-02"	1	1	11	2	3	29	15	0	805	6	4	8	3	2	9	3	2	1897
"2009-04-02"	1	1	11	2	3	30	8	1	1144	6	2	3	9	4	5	6	2	1136
"2009-04-02"	1	1	11	2	3	31	20	1	1005	8	4	1	2	7	6	7	6	1577
"2009-04-02"	1	1	11	2	3	32	3	0	1287	6	9	4	3	1	5	4	3	972
"2009-04-02"	1	1	11	2	3	33	20	1	834	1	9	7	3	5	2	9	7	1395
"2009-04-02"	1	1	11	2	3	34	25	0	559	6	3	9	1	8	4	8	4	1786
"2009-04-02"	1	1	11	2	3	35	9	1	636	9	3	8	5	4	7	9	3	1053
"2009-04-02"	1	1	11	2	3	36	17	1	2099	6	7	8	2	5	9	8	2	987
"2009-04-02"	1	1	11	2	4	1	5	1	872	9	2	8	7	3	4	2	8	1337
"2009-04-02"	1	1	11	2	4	2	25	0	551	3	5	6	7	1	9	7	1	1008
"2009-04-02"	1	1	11	2	4	3	13	0	1083	1	5	9	2	6	4	1	5	1256
"2009-04-02"	1	1	11	2	4	4	2	0	1070	6	7	8	2	3	5	8	2	1855
"2009-04-02"	1	1	11	2	4	5	12	1	582	2	3	1	9	5	6	5	6	1724
"2009-04-02"	1	1	11	2	4	6	28	0	1056	1	6	4	8	5	3	6	4	983
"2009-04-02"	1	1	11	2	4	7	4	0	703	9	5	3	4	2	1	4	2	974
"2009-04-02"	1	1	11	2	4	8	5	1	859	3	1	5	8	7	4	7	4	1154
"2009-04-02"	1	1	11	2	4	9	1	1	699	2	6	1	5	3	8	1	5	1009
"2009-04-02"	1	1	11	2	4	10	10	1	987	9	5	7	8	3	6	5	7	1357
"2009-04-02"	1	1	11	2	4	11	12	1	520	8	7	3	1	2	6	8	7	1076
"2009-04-02"	1	1	11	2	4	12	25	0	847	6	9	4	2	5	7	2	9	1323
"2009-04-02"	1	1	11	2	4	13	13	0	830	8	6	3	9	7	4	8	6	1080
"2009-04-02"	1	1	11	2	4	14	9	1	531	4	1	9	6	5	3	6	5	990
"2009-04-02"	1	1	11	2	4	15	8	1	710	2	6	5	9	7	3	7	3	832
"2009-04-02"	1	1	11	2	4	16	17	1	727	8	7	4	6	3	1	7	4	1586
"2009-04-02"	1	1	11	2	4	17	20	1	940	1	3	2	7	8	9	2	7	1035
"2009-04-02"	1	1	11	2	4	18	31	0	1171	3	2	7	5	8	4	5	8	1194
"2009-04-02"	1	1	11	2	4	19	11	1	635	3	2	4	9	6	1	2	4	1156
"2009-04-02"	1	1	11	2	4	20	16	1	1132	6	3	2	1	9	7	6	3	1044
"2009-04-02"	1	1	11	2	4	21	22	0	718	5	6	9	7	3	4	9	7	1167
"2009-04-02"	1	1	11	2	4	22	14	0	2082	8	6	9	3	2	4	2	4	1248
"2009-04-02"	1	1	11	2	4	23	4	1	843	8	5	9	2	6	7	8	5	1280
"2009-04-02"	1	1	11	2	4	24	23	0	483	9	5	8	3	4	6	8	3	998
"2009-04-02"	1	1	11	2	4	25	8	0	1017	5	6	4	9	3	2	3	2	792
"2009-04-02"	1	1	11	2	4	26	28	0	600	1	5	7	6	2	8	6	2	1252
"2009-04-02"	1	1	11	2	4	27	9	1	537	4	1	5	9	8	7	1	5	1207
"2009-04-02"	1	1	11	2	4	28	30	1	914	4	1	9	8	7	2	9	8	1124
"2009-04-02"	1	1	11	2	4	29	7	1	2303	3	4	9	7	8	2	8	2	819
"2009-04-02"	1	1	11	2	4	30	1	1	912	3	6	9	2	4	1	2	4	1066
"2009-04-02"	1	1	11	2	4	31	16	1	698	4	9	7	6	3	8	9	7	1304
"2009-04-02"	1	1	11	2	4	32	15	1	985	2	5	6	7	3	4	2	5	1818
"2009-04-02"	1	1	11	2	4	33	17	1	545	5	6	4	3	8	9	3	8	1271
"2009-04-02"	1	1	11	2	4	34	3	1	704	3	8	5	6	7	4	3	8	1286
"2009-04-02"	1	1	11	2	4	35	6	0	834	8	5	3	1	2	9	2	9	1459
"2009-04-02"	1	1	11	2	4	36	20	1	473	8	9	7	5	1	6	7	5	1002
"2009-04-02"	1	1	11	2	5	1	5	1	783	2	8	6	3	9	4	8	6	1366
"2009-04-02"	1	1	11	2	5	2	5	1	961	4	7	8	5	1	6	4	7	1237
"2009-04-02"	1	1	11	2	5	3	4	0	961	6	8	1	4	2	3	2	3	965
"2009-04-02"	1	1	11	2	5	4	11	1	592	1	7	5	8	4	2	5	8	1361
"2009-04-02"	1	1	11	2	5	5	16	1	636	7	6	9	1	5	3	6	5	981
"2009-04-02"	1	1	11	2	5	6	13	0	675	5	3	4	6	1	9	6	1	907
"2009-04-02"	1	1	11	2	5	7	23	0	611	5	3	1	9	4	6	5	3	1495
"2009-04-02"	1	1	11	2	5	8	28	0	845	9	8	6	7	4	3	8	6	1345
"2009-04-02"	1	1	11	2	5	9	17	1	1114	3	7	9	2	5	6	5	6	1844
"2009-04-02"	1	1	11	2	5	10	15	0	1368	3	1	5	7	2	4	7	2	1189
"2009-04-02"	1	1	11	2	5	11	25	0	686	2	3	8	9	1	6	8	1	1074
"2009-04-02"	1	1	11	2	5	12	12	1	553	7	4	3	1	6	5	6	5	1234
"2009-04-02"	1	1	11	2	5	13	1	1	2881	4	9	2	3	5	8	9	3	1114
"2009-04-02"	1	1	11	2	5	14	28	0	603	1	2	3	7	6	5	3	7	1150
"2009-04-02"	1	1	11	2	5	15	4	1	1047	7	2	8	3	4	6	7	2	1187
"2009-04-02"	1	1	11	2	5	16	20	1	868	4	8	7	9	3	1	9	3	1077
"2009-04-02"	1	1	11	2	5	17	13	0	991	5	3	4	1	8	2	5	3	1169
"2009-04-02"	1	1	11	2	5	18	9	1	591	5	8	4	7	6	3	4	7	1848
"2009-04-02"	1	1	11	2	5	19	20	1	583	9	4	3	5	6	7	5	6	1357
"2009-04-02"	1	1	11	2	5	20	14	0	616	7	9	5	6	3	4	9	5	1295
"2009-04-02"	1	1	11	2	5	21	31	1	821	6	8	3	5	9	2	9	2	1236
"2009-04-02"	1	1	11	2	5	22	16	1	1324	8	4	1	9	2	3	8	4	1145
"2009-04-02"	1	1	11	2	5	23	1	1	1241	6	4	1	8	3	2	3	2	1126
"2009-04-02"	1	1	11	2	5	24	8	0	1057	1	8	4	7	2	3	4	7	1216
"2009-04-02"	1	1	11	2	5	25	30	1	622	1	8	4	3	6	5	8	4	1372
"2009-04-02"	1	1	11	2	5	26	2	0	914	2	3	1	4	6	8	4	6	1276
"2009-04-02"	1	1	11	2	5	27	25	0	1215	9	8	7	5	3	6	7	5	1639
"2009-04-02"	1	1	11	2	5	28	8	0	658	1	7	5	4	2	9	7	5	1072
"2009-04-02"	1	1	11	2	5	29	12	1	552	5	4	3	7	2	9	5	4	1289
"2009-04-02"	1	1	11	2	5	30	10	0	887	5	7	3	8	1	9	1	9	1499
"2009-04-02"	1	1	11	2	5	31	22	0	650	7	3	5	9	2	6	9	5	1214
"2009-04-02"	1	1	11	2	5	32	3	0	939	1	2	7	5	6	8	5	6	1226
"2009-04-02"	1	1	11	2	5	33	6	1	1875	3	7	1	9	8	4	8	4	1189
"2009-04-02"	1	1	11	2	5	34	7	1	910	2	6	4	5	1	9	6	4	1207
"2009-04-02"	1	1	11	2	5	35	9	1	763	8	6	4	3	1	7	4	3	1119
"2009-04-02"	1	1	11	2	5	36	17	1	1034	5	6	8	7	1	3	5	5	1307
"2009-04-02"	1	1	11	2	6	1	8	1	1803	7	4	5	3	9	6	3	9	1689
"2009-04-02"	1	1	11	2	6	2	25	0	704	7	2	4	8	6	9	4	8	1486
"2009-04-02"	1	1	11	2	6	3	14	1	698	3	9	5	4	7	2	7	2	1384
"2009-04-02"	1	1	11	2	6	4	4	1	1105	2	5	8	1	3	7	2	5	1467
"2009-04-02"	1	1	11	2	6	5	20	1	875	8	7	1	3	4	6	7	1	1069
"2009-04-02"	1	1	11	2	6	6	16	1	613	1	2	4	7	6	3	4	7	1251
"2009-04-02"	1	1	11	2	6	7	8	1	617	6	2	5	7	4	9	4	9	1376
"2009-04-02"	1	1	11	2	6	8	5	1	934	1	8	7	9	6	3	9	6	1221
"2009-04-02"	1	1	11	2	6	9	17	1	971	3	2	9	8	7	5	3	2	1023
"2009-04-02"	1	1	11	2	6	10	13	0	887	1	2	7	9	8	6	2	7	1180
"2009-04-02"	1	1	11	2	6	11	16	0	840	4	1	5	3	9	6	5	3	1564
"2009-04-02"	1	1	11	2	6	12	17	0	1232	6	1	3	2	9	7	2	7	1834
"2009-04-02"	1	1	11	2	6	13	15	1	935	5	1	2	3	4	7	4	7	2454
"2009-04-02"	1	1	11	2	6	14	30	1	598	8	5	9	2	6	7	8	5	1199
"2009-04-02"	1	1	11	2	6	15	20	1	554	8	7	5	4	3	1	7	5	1091
"2009-04-02"	1	1	11	2	6	16	3	1	1296	9	2	7	6	3	4	6	3	999
"2009-04-02"	1	1	11	2	6	17	25	0	642	1	3	7	8	2	6	7	8	2510
"2009-04-02"	1	1	11	2	6	18	12	1	633	2	3	7	4	1	8	3	7	1178
"2009-04-02"	1	1	11	2	6	19	12	1	456	2	8	4	6	5	1	5	1	854
"2009-04-02"	1	1	11	2	6	20	5	0	923	5	9	2	7	3	6	5	9	1799
"2009-04-02"	1	1	11	2	6	21	1	1	859	5	3	7	8	9	2	8	8	1137
"2009-04-02"	1	1	11	2	6	22	31	1	807	2	4	3	1	8	7	3	1	1035
"2009-04-02"	1	1	11	2	6	23	13	0	603	4	8	5	2	3	1	3	1	743
"2009-04-02"	1	1	11	2	6	24	11	0	684	5	2	8	6	7	3	5	2	960
"2009-04-02"	1	1	11	2	6	25	7	0	619	3	5	6	1	7	9	5	6	1009
"2009-04-02"	1	1	11	2	6	26	28	0	884	5	8	3	6	4	7	4	7	1272
"2009-04-02"	1	1	11	2	6	27	2	1	857	3	6	8	2	5	1	3	6	1095
"2009-04-02"	1	1	11	2	6	28	6	1	828	1	9	5	6	7	4	6	7	1158
"2009-04-02"	1	1	11	2	6	29	23	0	633	2	8	5	1	4	3	5	1	1362
"2009-04-02"	1	1	11	2	6	30	22	0	605	7	8	9	5	4	6	8	9	1033
"2009-04-02"	1	1	11	2	6	31	9	1	889	3	6	9	8	4	5	8	4	1021
"2009-04-02"	1	1	11	2	6	32	1	1	643	5	4	7	1	6	8	5	6	1791
"2009-04-02"	1	1	11	2	6	33	28	0	711	9	5	3	6	1	2	3	6	1305
"2009-04-02"	1	1	11	2	6	34	4	0	1713	7	2	3	6	8	4	2	3	860
"2009-04-02"	1	1	11	2	6	35	10	1	593	4	1	2	7	9	8	9	8	1395
"2009-04-02"	1	1	11	2	6	36	9	1	731	1	5	8	2	6	9	5	8	1367
"2009-04-02"	1	1	11	2	7	1	30	1	812	3	1	6	8	4	5	6	8	1315
"2009-04-02"	1	1	11	2	7	2	5	1	963	8	3	1	5	7	9	5	7	1168
"2009-04-02"	1	1	11	2	7	3	16	0	2107	8	6	1	7	5	9	5	9	1598
"2009-04-02"	1	1	11	2	7	4	2	0	746	9	5	4	6	8	2	9	5	1500
"2009-04-02"	1	1	11	2	7	5	6	1	1114	1	2	6	4	5	9	6	4	1195
"2009-04-02"	1	1	11	2	7	6	20	1	627	3	7	2	4	1	8	4	1	853
"2009-04-02"	1	1	11	2	7	7	4	0	898	4	1	2	5	9	3	4	1	705
"2009-04-02"	1	1	11	2	7	8	22	0	584	6	3	9	1	7	2	7	2	983
"2009-04-02"	1	1	11	2	7	9	14	1	964	6	1	9	8	3	4	1	9	1464
"2009-04-02"	1	1	11	2	7	10	4	1	705	4	6	3	7	1	5	1	5	1123
"2009-04-02"	1	1	11	2	7	11	25	0	749	1	5	7	4	3	2	5	7	1190
"2009-04-02"	1	1	11	2	7	12	15	1	951	9	4	6	8	2	7	8	2	1032
"2009-04-02"	1	1	11	2	7	13	28	0	888	1	8	7	5	6	3	7	5	1301
"2009-04-02"	1	1	11	2	7	14	5	0	883	4	7	2	3	1	8	4	7	1167
"2009-04-02"	1	1	11	2	7	15	1	1	722	4	3	6	1	8	7	8	7	1126
"2009-04-02"	1	1	11	2	7	16	13	0	857	1	9	3	7	4	6	9	3	960
"2009-04-02"	1	1	11	2	7	17	3	1	858	6	3	8	9	5	2	6	3	1000
"2009-04-02"	1	1	11	2	7	18	9	1	531	9	3	2	1	4	5	2	1	1055
"2009-04-02"	1	1	11	2	7	19	17	1	764	3	7	2	1	6	9	1	6	1232
"2009-04-02"	1	1	11	2	7	20	10	0	753	7	5	8	3	6	1	3	6	1466
"2009-04-02"	1	1	11	2	7	21	23	0	739	1	8	9	4	5	6	9	4	1378
"2009-04-02"	1	1	11	2	7	22	25	0	536	7	6	1	4	5	9	7	6	1997
"2009-04-02"	1	1	11	2	7	23	1	1	634	8	6	3	1	9	2	9	2	875
"2009-04-02"	1	1	11	2	7	24	11	0	611	1	3	2	7	9	8	3	2	919
"2009-04-02"	1	1	11	2	7	25	7	1	785	1	6	4	7	2	8	2	8	1443
"2009-04-02"	1	1	11	2	7	26	31	1	750	3	9	7	5	1	2	9	7	1200
"2009-04-02"	1	1	11	2	7	27	12	1	491	4	2	8	7	1	3	7	1	910
"2009-04-02"	1	1	11	2	7	28	20	1	477	9	3	7	6	1	2	7	6	1358
"2009-04-02"	1	1	11	2	7	29	12	1	425	3	5	7	1	9	8	3	5	1090
"2009-04-02"	1	1	11	2	7	30	8	1	344	8	5	1	9	3	4	8	5	1422
"2009-04-02"	1	1	11	2	7	31	9	1	508	3	7	2	6	4	9	7	2	1093
"2009-04-02"	1	1	11	2	7	32	8	0	1043	2	1	8	3	4	5	4	5	1263
"2009-04-02"	1	1	11	2	7	33	13	0	664	5	2	9	1	8	6	9	1	1165
"2009-04-02"	1	1	11	2	7	34	17	1	568	4	9	8	6	2	7	6	2	996
"2009-04-02"	1	1	11	2	7	35	16	1	727	2	5	1	9	6	7	1	9	1331
"2009-04-02"	1	1	11	2	7	36	28	0	553	9	8	7	4	5	6	5	6	2178
"2009-04-02"	1	1	11	2	8	1	9	1	614	4	3	6	8	5	9	3	6	1619
"2009-04-02"	1	1	11	2	8	2	30	1	699	5	8	4	3	9	7	5	8	2152
"2009-04-02"	1	1	11	2	8	3	5	0	699	6	1	4	3	8	2	3	8	1329
"2009-04-02"	1	1	11	2	8	4	25	0	567	8	3	5	6	4	2	8	3	1035
"2009-04-02"	1	1	11	2	8	5	1	1	1011	9	7	2	3	4	8	2	3	882
"2009-04-02"	1	1	11	2	8	6	25	0	677	8	6	2	7	9	3	7	9	1406
"2009-04-02"	1	1	11	2	8	7	13	0	746	1	6	2	7	4	5	6	2	931
"2009-04-02"	1	1	11	2	8	8	28	0	487	9	8	2	3	6	4	6	4	1451
"2009-04-02"	1	1	11	2	8	9	2	1	1625	2	4	8	6	1	7	1	7	1308
"2009-04-02"	1	1	11	2	8	10	31	1	517	7	6	3	9	2	8	6	3	990
"2009-04-02"	1	1	11	2	8	11	11	1	526	5	4	1	6	7	9	1	6	1649
"2009-04-02"	1	1	11	2	8	12	8	0	800	1	5	8	6	3	2	6	3	964
"2009-04-02"	1	1	11	2	8	13	20	1	695	2	3	4	6	9	7	2	3	997
"2009-04-02"	1	1	11	2	8	14	3	1	839	6	4	5	3	1	2	1	2	987
"2009-04-02"	1	1	11	2	8	15	6	1	707	9	4	5	7	3	1	4	5	1197
"2009-04-02"	1	1	11	2	8	16	12	1	888	2	4	3	6	7	5	3	6	1492
"2009-04-02"	1	1	11	2	8	17	16	0	882	6	5	8	3	1	2	6	5	1079
"2009-04-02"	1	1	11	2	8	18	17	1	506	4	2	1	6	9	7	6	9	1400
"2009-04-02"	1	1	11	2	8	19	5	0	834	6	9	5	2	7	3	5	2	1244
"2009-04-02"	1	1	11	2	8	20	12	1	479	6	9	4	3	7	8	6	9	1042
"2009-04-02"	1	1	11	2	8	21	4	0	765	4	6	3	7	9	2	7	9	1217
"2009-04-02"	1	1	11	2	8	22	9	1	503	7	5	9	4	1	3	5	4	1093
"2009-04-02"	1	1	11	2	8	23	15	1	1643	5	6	4	3	2	1	2	1	1337
"2009-04-02"	1	1	11	2	8	24	8	0	951	8	9	1	6	4	2	6	4	1008
"2009-04-02"	1	1	11	2	8	25	1	1	874	4	1	2	7	8	9	2	7	1044
"2009-04-02"	1	1	11	2	8	26	20	1	527	5	2	9	3	1	4	5	2	1410
"2009-04-02"	1	1	11	2	8	27	23	0	688	4	7	5	1	2	9	2	9	1412
"2009-04-02"	1	1	11	2	8	28	14	0	1227	4	2	7	6	9	8	2	7	1541
"2009-04-02"	1	1	11	2	8	29	22	0	603	6	9	3	7	1	2	7	1	951
"2009-04-02"	1	1	11	2	8	30	28	0	607	1	5	6	8	3	7	5	6	1146
"2009-04-02"	1	1	11	2	8	31	4	1	898	3	9	6	2	8	5	3	9	1193
"2009-04-02"	1	1	11	2	8	32	7	1	1073	3	6	5	1	7	8	5	1	1027
"2009-04-02"	1	1	11	2	8	33	13	0	540	2	3	6	4	1	8	1	8	1418
"2009-04-02"	1	1	11	2	8	34	10	0	864	5	6	3	8	1	7	5	6	1183
"2009-04-02"	1	1	11	2	8	35	17	1	671	9	4	6	2	8	3	6	2	953
"2009-04-02"	1	1	11	2	8	36	16	0	696	2	6	7	9	5	3	5	9	1358
"2009-04-02"	1	1	11	3	1	1	1	1	1867	3	7	4	8	1	9	7	4	1390
"2009-04-02"	1	1	11	3	1	2	4	1	855	3	2	1	9	8	4	9	8	1382
"2009-04-02"	1	1	11	3	1	3	5	0	1295	2	9	8	4	5	6	2	9	1790
"2009-04-02"	1	1	11	3	1	4	8	1	536	3	8	2	7	4	5	8	2	1470
"2009-04-02"	1	1	11	3	1	5	9	1	719	8	4	7	6	3	2	7	6	1259
"2009-04-02"	1	1	11	3	1	6	12	1	729	9	7	2	6	5	4	6	5	1597
"2009-04-02"	1	1	11	3	1	7	13	0	880	4	2	5	1	3	8	3	8	1284
"2009-04-02"	1	1	11	3	1	8	16	0	743	1	5	9	7	6	2	1	5	1358
"2009-04-02"	1	1	11	3	1	9	21	0	785	2	7	4	9	1	5	9	1	1131
"2009-04-02"	1	1	11	3	1	10	24	0	1361	9	7	2	8	4	5	7	2	1126
"2009-04-02"	1	1	11	3	1	11	17	1	761	1	8	6	4	3	2	3	2	941
"2009-04-02"	1	1	11	3	1	12	20	1	474	5	1	3	2	9	7	3	9	1283
"2009-04-02"	1	1	11	3	1	13	25	0	558	3	7	9	4	2	5	9	4	1535
"2009-04-02"	1	1	11	3	1	14	28	0	837	4	1	6	2	5	7	5	6	2118
"2009-04-02"	1	1	11	3	1	15	29	0	2803	6	3	2	8	7	5	8	7	1091
"2009-04-02"	1	1	11	3	1	16	32	0	2184	9	1	4	3	5	6	1	4	1564
"2009-04-02"	1	1	11	3	1	17	2	1	920	2	6	4	5	3	1	2	6	2132
"2009-04-02"	1	1	11	3	1	18	6	0	572	1	6	8	3	7	4	7	4	991
"2009-04-02"	1	1	11	3	1	19	11	1	575	7	8	2	6	9	3	7	8	1518
"2009-04-02"	1	1	11	3	1	20	15	1	969	5	6	4	8	1	3	6	4	1125
"2009-04-02"	1	1	11	3	1	21	23	0	624	8	5	3	2	1	7	3	2	1438
"2009-04-02"	1	1	11	3	1	22	18	1	2610	7	1	2	3	6	8	3	6	1564
"2009-04-02"	1	1	11	3	1	23	26	0	1408	1	4	3	8	7	6	8	7	1077
"2009-04-02"	1	1	11	3	1	24	31	1	1096	6	4	5	9	2	3	4	5	1175
"2009-04-02"	1	1	11	3	1	25	3	1	845	1	6	8	7	4	2	1	6	1353
"2009-04-02"	1	1	11	3	1	26	7	1	618	9	3	4	7	5	2	5	2	3200
"2009-04-02"	1	1	11	3	1	27	10	1	534	6	3	5	7	1	9	5	7	1716
"2009-04-02"	1	1	11	3	1	28	14	1	704	7	3	4	6	9	8	7	3	2063
"2009-04-02"	1	1	11	3	1	29	22	0	729	4	5	2	6	3	1	2	6	1133
"2009-04-02"	1	1	11	3	1	30	19	1	571	7	3	4	9	8	1	8	1	1006
"2009-04-02"	1	1	11	3	1	31	27	0	817	7	4	1	2	8	6	4	1	912
"2009-04-02"	1	1	11	3	1	32	30	1	848	8	6	7	1	2	3	1	2	916
"2009-04-02"	1	1	11	3	1	33	1	1	868	5	9	3	1	6	4	6	4	1421
"2009-04-02"	1	1	11	3	1	34	4	1	683	6	1	8	7	2	9	6	1	1143
"2009-04-02"	1	1	11	3	1	35	5	1	871	2	5	3	8	4	7	5	3	1081
"2009-04-02"	1	1	11	3	1	36	8	0	707	9	6	5	2	7	4	2	7	1245
"2009-04-02"	1	1	11	3	1	37	9	1	752	2	1	4	8	5	7	4	5	1257
"2009-04-02"	1	1	11	3	1	38	12	1	511	5	2	4	3	8	6	2	4	1168
"2009-04-02"	1	1	11	3	1	39	13	0	827	2	5	9	7	1	6	9	7	1213
"2009-04-02"	1	1	11	3	1	40	16	0	875	2	3	6	4	9	5	9	5	1300
"2009-04-02"	1	1	11	3	1	41	21	0	825	3	4	2	7	8	9	3	4	1115
"2009-04-02"	1	1	11	3	1	42	24	0	755	9	3	4	6	7	8	6	7	1052
"2009-04-02"	1	1	11	3	1	43	17	1	522	7	3	5	2	4	6	2	4	909
"2009-04-02"	1	1	11	3	1	44	20	1	501	2	4	1	7	8	6	1	7	1332
"2009-04-02"	1	1	11	3	1	45	25	0	738	7	9	2	1	4	5	4	1	1008
"2009-04-02"	1	1	11	3	1	46	28	0	523	2	7	5	1	6	8	2	7	1655
"2009-04-02"	1	1	11	3	1	47	29	1	1069	8	9	6	2	3	5	9	6	1199
"2009-04-02"	1	1	11	3	1	48	32	1	777	9	4	3	8	2	7	4	3	1088
"2009-09-02"	1	-1	20	1	1	1	-1	-1	-1	4	2	7	5	6	3	2	7	1677
"2009-09-02"	1	-1	20	1	1	2	-1	-1	-1	8	6	3	2	5	1	3	2	1796
"2009-09-02"	1	-1	20	1	1	3	-1	-1	-1	5	9	7	4	8	2	8	2	1557
"2009-09-02"	1	-1	20	1	1	4	-1	-1	-1	5	9	6	3	7	1	5	6	5879
"2009-09-02"	1	-1	20	1	1	5	-1	-1	-1	4	3	6	7	5	9	7	5	1957
"2009-09-02"	1	-1	20	1	1	6	-1	-1	-1	7	3	6	4	9	5	9	5	1669
"2009-09-02"	1	-1	20	1	1	7	-1	-1	-1	1	5	7	9	8	3	9	8	1223
"2009-09-02"	1	-1	20	1	1	8	-1	-1	-1	6	7	3	9	1	4	7	6	2116
"2009-09-02"	1	-1	20	1	1	9	-1	-1	-1	3	8	7	2	6	4	7	2	1823
"2009-09-02"	1	-1	20	1	1	10	-1	-1	-1	1	3	4	9	8	5	1	3	1333
"2009-09-02"	1	1	20	2	1	1	10	1	7859	3	9	6	8	5	4	6	7	12744
"2009-09-02"	1	1	20	2	1	2	23	1	6496	9	3	6	5	7	2	7	6	4291
"2009-09-02"	1	1	20	2	1	3	28	1	26813	7	6	4	3	1	5	3	4	2258
"2009-09-02"	1	1	20	2	1	4	6	0	8938	8	7	3	5	6	4	8	5	3378
"2009-09-02"	1	1	20	2	1	5	9	1	2603	1	5	6	7	4	3	5	6	2745
"2009-09-02"	1	1	20	2	1	6	13	1	2837	4	9	6	7	3	8	6	7	4308
"2009-09-02"	1	1	20	2	1	7	4	0	3874	2	7	5	8	1	6	7	6	3596
"2009-09-02"	1	1	20	2	1	8	25	1	2027	2	9	5	7	3	4	7	3	2903
"2009-09-02"	1	1	20	2	1	9	7	0	4329	5	3	1	4	8	6	5	8	5278
"2009-09-02"	1	1	20	2	1	10	3	1	3441	3	7	2	9	1	4	1	4	13161
"2009-09-02"	1	1	20	2	1	11	2	0	5846	7	8	9	3	4	6	3	4	1910
"2009-09-02"	1	1	20	2	1	12	17	1	2375	4	7	1	5	9	2	4	7	3377
"2009-09-02"	1	1	20	2	1	13	5	0	3555	8	9	7	5	1	3	1	3	1660
"2009-09-02"	1	1	20	2	1	14	9	0	3018	3	1	8	6	5	7	8	6	3989
"2009-09-02"	1	1	20	2	1	15	25	0	2209	8	3	5	2	1	7	3	5	2739
"2009-09-02"	1	1	20	2	1	16	16	0	3947	5	6	4	7	8	2	8	2	1282
"2009-09-02"	1	1	20	2	1	17	15	0	6581	8	2	3	7	1	5	8	3	2081
"2009-09-02"	1	1	20	2	1	18	20	1	2470	9	4	6	3	1	8	4	6	3473
"2009-09-02"	1	1	20	2	1	19	4	1	2072	7	6	3	8	4	2	8	4	1188
"2009-09-02"	1	1	20	2	1	20	16	1	5324	6	3	1	4	5	7	1	6	4059
"2009-09-02"	1	1	20	2	1	21	31	1	1801	7	8	9	1	3	5	8	9	1535
"2009-09-02"	1	1	20	2	1	22	30	1	1988	3	1	2	9	6	7	3	1	1743
"2009-09-02"	1	1	20	2	1	23	5	1	2585	6	1	5	4	7	2	4	9	2526
"2009-09-02"	1	1	20	2	1	24	17	1	1595	9	4	2	8	7	1	7	9	4382
"2009-09-02"	1	1	20	2	1	25	14	1	2844	1	6	8	3	5	2	8	3	2116
"2009-09-02"	1	1	20	2	1	26	1	1	4727	9	2	8	1	4	5	1	4	2733
"2009-09-02"	1	1	20	2	1	27	8	1	2446	2	7	1	5	6	4	6	4	1781
"2009-09-02"	1	1	20	2	1	28	11	1	3347	7	8	5	2	6	9	5	6	3225
"2009-09-02"	1	1	20	2	1	29	20	0	2021	9	3	4	7	1	2	9	5	3525
"2009-09-02"	1	1	20	2	1	30	28	0	3151	1	4	2	6	5	9	4	6	1445
"2009-09-02"	1	1	20	2	1	31	1	1	1512	8	6	1	3	9	5	3	9	1787
"2009-09-02"	1	1	20	2	1	32	13	1	1781	5	3	8	4	7	6	8	4	2517
"2009-09-02"	1	1	20	2	1	33	22	0	2747	2	7	5	4	6	9	2	5	1191
"2009-09-02"	1	1	20	2	1	34	12	0	3143	2	9	8	3	7	6	7	6	1869
"2009-09-02"	1	1	20	2	1	35	12	1	3022	6	2	4	9	8	5	2	4	1692
"2009-09-02"	1	1	20	2	1	36	8	0	5354	2	4	8	9	1	6	1	6	1870
"2009-09-02"	1	1	20	2	2	1	13	0	2669	8	6	7	4	2	1	4	2	1714
"2009-09-02"	1	1	20	2	2	2	17	1	1731	1	3	9	4	8	7	3	9	2075
"2009-09-02"	1	1	20	2	2	3	25	1	1776	6	4	7	2	5	3	6	4	2193
"2009-09-02"	1	1	20	2	2	4	3	0	3242	1	2	8	9	7	5	8	9	1706
"2009-09-02"	1	1	20	2	2	5	17	1	1852	5	8	4	2	9	1	2	9	1412
"2009-09-02"	1	1	20	2	2	6	25	1	2714	3	6	2	9	8	5	8	2	2943
"2009-09-02"	1	1	20	2	2	7	12	1	2691	9	3	6	2	8	7	6	2	2645
"2009-09-02"	1	1	20	2	2	8	14	1	1514	1	9	6	5	3	8	1	9	1628
"2009-09-02"	1	1	20	2	2	9	31	1	2485	1	8	6	2	9	7	8	6	2109
"2009-09-02"	1	1	20	2	2	10	30	0	1791	5	2	1	4	8	7	5	2	1962
"2009-09-02"	1	1	20	2	2	11	5	0	2430	7	8	3	1	5	6	1	5	1763
"2009-09-02"	1	1	20	2	2	12	23	0	2183	3	8	2	7	4	1	2	7	2562
"2009-09-02"	1	1	20	2	2	13	4	0	2663	2	3	1	9	5	8	5	8	2532
"2009-09-02"	1	1	20	2	2	14	9	1	2228	1	7	2	5	8	6	7	5	4152
"2009-09-02"	1	1	20	2	2	15	5	1	1848	9	2	1	3	4	5	9	2	1206
"2009-09-02"	1	1	20	2	2	16	20	1	1753	6	5	9	8	2	7	5	9	1756
"2009-09-02"	1	1	20	2	2	17	8	1	1456	9	2	6	3	7	8	6	3	2368
"2009-09-02"	1	1	20	2	2	18	6	0	1768	2	6	8	5	9	4	9	4	1437
"2009-09-02"	1	1	20	2	2	19	7	0	2393	8	2	3	6	4	9	6	9	1556
"2009-09-02"	1	1	20	2	2	20	1	1	2353	2	4	8	6	1	7	8	7	1221
"2009-09-02"	1	1	20	2	2	21	16	0	3514	9	6	4	7	2	3	9	6	1531
"2009-09-02"	1	1	20	2	2	22	2	0	2593	2	1	4	6	8	5	1	6	6686
"2009-09-02"	1	1	20	2	2	23	28	0	2245	4	3	6	2	7	5	2	6	1620
"2009-09-02"	1	1	20	2	2	24	1	1	1651	9	3	7	2	4	5	4	5	1235
"2009-09-02"	1	1	20	2	2	25	15	0	2362	9	7	5	6	3	4	6	5	1865
"2009-09-02"	1	1	20	2	2	26	8	0	3971	1	2	3	4	9	7	9	7	1079
"2009-09-02"	1	1	20	2	2	27	20	0	2330	1	5	3	8	2	6	3	8	2828
"2009-09-02"	1	1	20	2	2	28	13	1	2383	1	7	6	5	8	3	7	6	1307
"2009-09-02"	1	1	20	2	2	29	10	1	2267	1	2	7	3	8	4	1	2	1343
"2009-09-02"	1	1	20	2	2	30	16	0	5280	4	5	3	7	6	8	4	5	1492
"2009-09-02"	1	1	20	2	2	31	22	1	4682	3	4	9	5	1	7	9	7	2341
"2009-09-02"	1	1	20	2	2	32	9	1	2951	1	2	8	4	3	9	4	3	1325
"2009-09-02"	1	1	20	2	2	33	28	1	2279	1	5	8	7	9	2	9	2	1158
"2009-09-02"	1	1	20	2	2	34	4	0	6017	4	5	1	9	3	7	5	9	1387
"2009-09-02"	1	1	20	2	2	35	11	1	1460	4	3	6	1	5	2	6	1	1428
"2009-09-02"	1	1	20	2	2	36	12	1	1541	5	3	2	8	9	1	5	3	2029
"2009-09-02"	1	1	20	2	3	1	1	0	9236	1	4	2	6	3	9	6	3	1287
"2009-09-02"	1	1	20	2	3	2	4	1	1714	4	9	8	6	1	2	1	8	3861
"2009-09-02"	1	1	20	2	3	3	6	1	2546	9	6	5	3	8	4	6	8	1454
"2009-09-02"	1	1	20	2	3	4	3	1	1700	3	6	1	5	9	7	6	1	1388
"2009-09-02"	1	1	20	2	3	5	2	0	1510	5	9	6	8	4	7	6	8	1536
"2009-09-02"	1	1	20	2	3	6	31	0	1759	5	1	8	9	4	7	4	9	2020
"2009-09-02"	1	1	20	2	3	7	28	1	6364	5	1	7	9	6	3	9	1	3027
"2009-09-02"	1	1	20	2	3	8	25	1	3711	4	7	5	6	9	3	4	7	1813
"2009-09-02"	1	1	20	2	3	9	17	1	1964	2	9	3	6	4	5	9	6	2091
"2009-09-02"	1	1	20	2	3	10	7	1	3194	7	5	9	3	8	2	8	2	904
"2009-09-02"	1	1	20	2	3	11	30	1	1296	2	7	9	6	3	1	2	9	1182
"2009-09-02"	1	1	20	2	3	12	16	0	2407	1	6	4	3	2	5	4	3	3366
"2009-09-02"	1	1	20	2	3	13	10	0	2023	2	5	1	4	7	8	4	7	1315
"2009-09-02"	1	1	20	2	3	14	5	1	2267	1	9	4	2	5	8	4	2	2432
"2009-09-02"	1	1	20	2	3	15	8	0	2538	5	9	8	2	4	1	2	4	1420
"2009-09-02"	1	1	20	2	3	16	28	0	4905	7	2	8	3	6	4	6	4	1162
"2009-09-02"	1	1	20	2	3	17	11	0	3125	3	8	6	2	7	9	8	2	1949
"2009-09-02"	1	1	20	2	3	18	20	1	1431	9	3	6	5	8	4	9	5	3153
"2009-09-02"	1	1	20	2	3	19	13	1	1304	4	5	2	8	3	9	8	3	1024
"2009-09-02"	1	1	20	2	3	20	16	1	1535	4	9	7	3	8	6	9	8	2543
"2009-09-02"	1	1	20	2	3	21	5	0	2634	5	6	2	3	9	1	5	6	1534
"2009-09-02"	1	1	20	2	3	22	14	0	3293	2	7	1	4	6	8	1	4	4312
"2009-09-02"	1	1	20	2	3	23	9	1	1209	9	6	3	8	1	4	1	4	1741
"2009-09-02"	1	1	20	2	3	24	12	1	1619	9	5	4	8	7	3	8	7	1147
"2009-09-02"	1	1	20	2	3	25	1	1	1316	8	3	6	2	9	4	6	2	1814
"2009-09-02"	1	1	20	2	3	26	17	0	3149	1	3	2	6	8	9	8	9	1491
"2009-09-02"	1	1	20	2	3	27	23	0	2809	6	7	9	1	4	8	7	9	1763
"2009-09-02"	1	1	20	2	3	28	12	1	1567	1	6	2	8	5	4	1	8	1716
"2009-09-02"	1	1	20	2	3	29	22	1	1256	2	7	1	4	8	6	1	8	3640
"2009-09-02"	1	1	20	2	3	30	9	1	1199	8	6	4	1	2	3	1	2	956
"2009-09-02"	1	1	20	2	3	31	20	1	2876	3	4	1	7	9	6	4	8	2604
"2009-09-02"	1	1	20	2	3	32	25	0	1761	9	2	1	6	8	3	8	3	1487
"2009-09-02"	1	1	20	2	3	33	8	1	1618	3	1	4	5	6	8	3	4	6714
"2009-09-02"	1	1	20	2	3	34	15	0	2215	3	2	9	4	5	1	4	5	1416
"2009-09-02"	1	1	20	2	3	35	13	0	2366	4	2	6	7	1	9	2	5	1965
"2009-09-02"	1	1	20	2	3	36	4	0	1106	1	6	9	8	3	5	9	8	2076
"2009-09-02"	1	1	20	2	4	1	16	0	1783	4	6	7	8	9	1	9	1	1503
"2009-09-02"	1	1	20	2	4	2	6	0	6351	1	2	7	3	9	4	1	9	1797
"2009-09-02"	1	1	20	2	4	3	17	1	2721	1	5	6	9	4	7	4	7	1297
"2009-09-02"	1	1	20	2	4	4	9	1	1647	7	5	6	2	8	1	2	8	1172
"2009-09-02"	1	1	20	2	4	5	12	1	1090	2	9	7	3	1	4	2	9	8350
"2009-09-02"	1	1	20	2	4	6	5	1	2757	6	5	1	7	3	2	1	8	42460
"2009-09-02"	1	1	20	2	4	7	25	0	1875	6	5	1	4	9	3	5	1	1718
"2009-09-02"	1	1	20	2	4	8	25	0	1906	1	9	4	5	3	2	1	9	1574
"2009-09-02"	1	1	20	2	4	9	11	0	7332	3	7	8	5	1	6	8	5	1901
"2009-09-02"	1	1	20	2	4	10	28	0	4783	9	2	7	6	3	4	2	6	2231
"2009-09-02"	1	1	20	2	4	11	12	1	1186	7	9	3	8	4	5	4	5	1828
"2009-09-02"	1	1	20	2	4	12	16	0	1621	5	6	9	2	3	1	2	3	1798
"2009-09-02"	1	1	20	2	4	13	28	0	2282	1	5	6	4	7	8	5	6	1360
"2009-09-02"	1	1	20	2	4	14	1	1	2299	2	6	7	1	3	5	2	5	2388
"2009-09-02"	1	1	20	2	4	15	13	0	2591	7	4	9	8	6	1	8	6	3084
"2009-09-02"	1	1	20	2	4	16	8	0	2082	7	5	8	1	2	3	2	3	1848
"2009-09-02"	1	1	20	2	4	17	10	1	1087	4	9	5	8	6	1	5	8	1780
"2009-09-02"	1	1	20	2	4	18	7	0	2562	9	3	7	5	1	6	5	7	2009
"2009-09-02"	1	1	20	2	4	19	14	1	3168	8	6	2	4	7	3	6	1	2659
"2009-09-02"	1	1	20	2	4	20	8	0	2500	1	4	2	9	6	7	2	9	2565
"2009-09-02"	1	1	20	2	4	21	13	0	1235	7	6	5	2	3	9	3	9	3156
"2009-09-02"	1	1	20	2	4	22	3	0	2043	9	3	7	1	8	6	9	3	2761
"2009-09-02"	1	1	20	2	4	23	17	1	1407	9	1	6	5	4	3	9	1	1204
"2009-09-02"	1	1	20	2	4	24	20	1	1263	6	5	3	9	1	8	3	9	2183
"2009-09-02"	1	1	20	2	4	25	2	0	1057	7	9	1	6	3	8	3	8	1256
"2009-09-02"	1	1	20	2	4	26	30	1	1150	2	6	8	7	1	4	6	8	1639
"2009-09-02"	1	1	20	2	4	27	31	1	1195	4	1	2	5	8	7	5	8	1077
"2009-09-02"	1	1	20	2	4	28	5	1	1216	4	5	2	1	9	3	2	1	1896
"2009-09-02"	1	1	20	2	4	29	1	1	1823	3	6	8	1	2	5	2	5	1231
"2009-09-02"	1	1	20	2	4	30	15	1	3088	7	1	2	9	4	5	1	2	3987
"2009-09-02"	1	1	20	2	4	31	23	0	2087	7	8	4	5	6	1	5	6	1349
"2009-09-02"	1	1	20	2	4	32	22	0	1894	7	6	4	9	2	5	7	6	2159
"2009-09-02"	1	1	20	2	4	33	4	0	1644	4	6	8	7	5	2	7	5	1569
"2009-09-02"	1	1	20	2	4	34	4	1	13103	7	8	2	3	5	6	5	3	2585
"2009-09-02"	1	1	20	2	4	35	9	1	931	2	7	4	5	8	3	7	4	2210
"2009-09-02"	1	1	20	2	4	36	20	1	1554	2	4	9	6	8	3	9	6	2813
"2009-09-02"	1	1	20	2	5	1	8	1	2493	1	7	2	9	4	5	1	7	3134
"2009-09-02"	1	1	20	2	5	2	9	1	36366	2	4	8	5	7	9	8	7	4318
"2009-09-02"	1	1	20	2	5	3	12	1	1463	9	3	5	2	1	4	9	3	2679
"2009-09-02"	1	1	20	2	5	4	25	0	2749	7	6	1	2	9	8	9	8	5978
"2009-09-02"	1	1	20	2	5	5	30	1	1291	3	5	1	8	2	7	5	1	1775
"2009-09-02"	1	1	20	2	5	6	4	1	2509	8	9	5	4	1	3	4	1	1146
"2009-09-02"	1	1	20	2	5	7	20	1	13514	4	5	9	6	1	3	4	9	2095
"2009-09-02"	1	1	20	2	5	8	4	1	45245	4	1	6	8	9	3	1	6	2647
"2009-09-02"	1	1	20	2	5	9	12	1	1416	3	4	2	9	5	6	5	6	1920
"2009-09-02"	1	1	20	2	5	10	13	1	1012	5	8	9	6	2	4	9	6	1859
"2009-09-02"	1	1	20	2	5	11	20	1	1546	5	2	6	1	3	4	1	3	1245
"2009-09-02"	1	1	20	2	5	12	15	0	1424	9	5	8	2	1	3	9	5	1611
"2009-09-02"	1	1	20	2	5	13	5	1	4696	2	7	8	5	6	3	6	1	1814
"2009-09-02"	1	1	20	2	5	14	28	0	4085	2	5	4	8	9	1	4	8	2255
"2009-09-02"	1	1	20	2	5	15	9	1	854	7	3	2	9	4	8	9	8	1901
"2009-09-02"	1	1	20	2	5	16	17	1	12758	3	1	8	9	2	7	1	1	1866
"2009-09-02"	1	1	20	2	5	17	17	1	6700	7	5	6	8	4	2	7	8	1567
"2009-09-02"	1	1	20	2	5	18	8	0	6051	6	7	9	3	1	2	3	5	9154
"2009-09-02"	1	1	20	2	5	19	6	0	5059	7	1	3	5	6	2	6	6	5452
"2009-09-02"	1	1	20	2	5	20	25	0	1482	4	5	9	1	8	3	9	1	1663
"2009-09-02"	1	1	20	2	5	21	23	0	1072	2	5	9	7	8	6	5	7	2154
"2009-09-02"	1	1	20	2	5	22	22	0	1231	2	5	1	8	7	3	8	7	1592
"2009-09-02"	1	1	20	2	5	23	7	0	2497	5	2	3	6	4	8	3	4	2515
"2009-09-02"	1	1	20	2	5	24	3	1	1113	1	6	8	7	5	9	5	9	1835
"2009-09-02"	1	1	20	2	5	25	1	0	2407	1	9	6	5	2	7	1	6	20909
"2009-09-02"	1	1	20	2	5	26	5	1	4680	1	9	7	5	3	8	9	5	2515
"2009-09-02"	1	1	20	2	5	27	2	1	1281	4	2	8	7	5	3	8	7	1597
"2009-09-02"	1	1	20	2	5	28	11	0	1897	8	4	5	1	7	6	1	7	2498
"2009-09-02"	1	1	20	2	5	29	28	0	10673	3	5	7	8	6	2	3	6	4143
"2009-09-02"	1	1	20	2	5	30	16	0	4204	6	5	9	7	4	8	5	7	2710
"2009-09-02"	1	1	20	2	5	31	31	1	3802	2	9	1	3	6	5	6	7	6602
"2009-09-02"	1	1	20	2	5	32	14	0	6537	2	7	3	6	8	9	6	7	2845
"2009-09-02"	1	1	20	2	5	33	10	1	1035	1	8	4	6	3	9	3	8	24332
"2009-09-02"	1	1	20	2	5	34	16	0	4090	2	9	1	7	6	3	9	1	1767
"2009-09-02"	1	1	20	2	5	35	13	0	4659	7	3	8	1	5	9	8	1	2579
"2009-09-02"	1	1	20	2	5	36	1	0	1780	3	4	5	7	1	9	3	4	1179
"2009-09-02"	1	1	20	2	6	1	23	0	1544	6	9	3	5	4	7	6	9	1931
"2009-09-02"	1	1	20	2	6	2	15	0	2130	1	3	6	8	7	5	6	8	1515
"2009-09-02"	1	1	20	2	6	3	9	1	996	3	8	9	5	6	2	8	9	2174
"2009-09-02"	1	1	20	2	6	4	20	1	1157	4	6	5	2	1	9	2	1	1167
"2009-09-02"	1	1	20	2	6	5	16	0	1010	1	9	2	4	3	7	3	7	1918
"2009-09-02"	1	1	20	2	6	6	25	0	1018	9	6	3	1	5	2	1	5	1234
"2009-09-02"	1	1	20	2	6	7	12	1	850	4	2	8	5	6	9	8	5	1198
"2009-09-02"	1	1	20	2	6	8	22	0	1089	7	9	6	3	5	8	7	9	3582
"2009-09-02"	1	1	20	2	6	9	2	0	971	9	1	7	5	6	8	6	5	1647
"2009-09-02"	1	1	20	2	6	10	14	1	2106	6	9	1	4	7	2	9	8	1686
"2009-09-02"	1	1	20	2	6	11	17	1	1890	6	8	5	3	4	2	8	5	1282
"2009-09-02"	1	1	20	2	6	12	1	1	1086	3	4	8	1	9	2	9	2	1306
"2009-09-02"	1	1	20	2	6	13	31	1	1107	8	3	7	9	2	5	8	6	2045
"2009-09-02"	1	1	20	2	6	14	30	1	1114	8	7	3	5	2	1	5	2	1148
"2009-09-02"	1	1	20	2	6	15	28	0	1251	7	1	5	3	2	6	5	3	1411
"2009-09-02"	1	1	20	2	6	16	10	1	3673	7	6	1	5	8	9	7	6	2063
"2009-09-02"	1	1	20	2	6	17	8	0	2913	6	4	8	5	7	2	8	5	1894
"2009-09-02"	1	1	20	2	6	18	7	1	2437	8	9	1	5	7	2	9	7	1612
"2009-09-02"	1	1	20	2	6	19	13	0	2482	3	1	5	8	9	6	8	9	921
"2009-09-02"	1	1	20	2	6	20	1	0	1204	9	4	7	1	5	8	5	7	1648
"2009-09-02"	1	1	20	2	6	21	5	0	3127	9	2	7	4	6	3	4	6	2359
"2009-09-02"	1	1	20	2	6	22	5	0	972	4	2	8	6	1	9	4	2	1740
"2009-09-02"	1	1	20	2	6	23	12	1	1146	6	8	5	2	1	9	1	9	2476
"2009-09-02"	1	1	20	2	6	24	16	0	1433	5	9	2	1	4	8	9	2	899
"2009-09-02"	1	1	20	2	6	25	25	0	2065	7	3	5	8	9	2	5	8	1828
"2009-09-02"	1	1	20	2	6	26	13	0	1910	6	2	8	1	9	5	8	1	1737
"2009-09-02"	1	1	20	2	6	27	9	1	1144	3	8	4	5	1	7	5	1	1903
"2009-09-02"	1	1	20	2	6	28	20	1	3033	9	1	3	8	2	7	2	7	1405
"2009-09-02"	1	1	20	2	6	29	11	0	1521	8	1	6	2	5	3	8	1	2782
"2009-09-02"	1	1	20	2	6	30	4	1	1954	7	2	3	8	9	1	2	7	4781
"2009-09-02"	1	1	20	2	6	31	3	1	3444	3	2	8	5	7	1	5	7	1805
"2009-09-02"	1	1	20	2	6	32	28	0	1369	7	2	5	6	4	9	5	6	1541
"2009-09-02"	1	1	20	2	6	33	4	0	2627	3	7	4	2	9	6	3	7	2831
"2009-09-02"	1	1	20	2	6	34	8	0	979	1	7	8	6	9	4	7	8	1826
"2009-09-02"	1	1	20	2	6	35	17	1	1588	2	9	1	6	4	3	4	6	5455
"2009-09-02"	1	1	20	2	6	36	6	1	1636	9	2	8	5	6	7	9	2	1718
"2009-09-02"	1	1	20	2	7	1	4	1	5391	1	6	7	4	3	9	4	3	1243
"2009-09-02"	1	1	20	2	7	2	10	0	3214	3	6	1	8	9	2	1	8	2745
"2009-09-02"	1	1	20	2	7	3	14	0	1996	3	5	7	6	4	1	4	6	2715
"2009-09-02"	1	1	20	2	7	4	1	1	1199	5	7	8	1	2	4	7	8	2780
"2009-09-02"	1	1	20	2	7	5	8	0	1880	7	1	2	4	6	9	4	6	2430
"2009-09-02"	1	1	20	2	7	6	28	1	912	4	1	8	9	3	7	3	7	1386
"2009-09-02"	1	1	20	2	7	7	17	0	1563	4	2	7	1	5	6	2	7	2672
"2009-09-02"	1	1	20	2	7	8	13	0	979	5	7	4	8	3	9	4	8	1649
"2009-09-02"	1	1	20	2	7	9	20	1	1640	6	8	7	4	9	2	6	8	1037
"2009-09-02"	1	1	20	2	7	10	11	0	1400	8	9	6	7	5	2	5	2	1581
"2009-09-02"	1	1	20	2	7	11	2	1	1068	6	4	8	1	5	2	8	1	2510
"2009-09-02"	1	1	20	2	7	12	20	0	1177	5	8	4	1	6	2	1	6	1936
"2009-09-02"	1	1	20	2	7	13	4	1	1110	2	7	5	3	6	1	2	7	1512
"2009-09-02"	1	1	20	2	7	14	25	0	1697	2	8	5	3	6	9	8	5	1770
"2009-09-02"	1	1	20	2	7	15	1	1	1112	7	4	1	9	6	2	9	6	1586
"2009-09-02"	1	1	20	2	7	16	17	1	1155	8	4	3	6	2	7	2	6	4086
"2009-09-02"	1	1	20	2	7	17	9	1	864	7	8	3	4	2	9	8	3	2055
"2009-09-02"	1	1	20	2	7	18	30	0	1614	9	5	1	4	7	2	1	4	1846
"2009-09-02"	1	1	20	2	7	19	16	0	1386	6	7	2	8	9	5	6	7	1517
"2009-09-02"	1	1	20	2	7	20	7	1	1152	4	1	8	9	6	7	8	9	1466
"2009-09-02"	1	1	20	2	7	21	16	0	1395	7	9	5	8	2	6	9	5	2398
"2009-09-02"	1	1	20	2	7	22	3	1	1395	8	7	9	2	5	4	2	5	1485
"2009-09-02"	1	1	20	2	7	23	12	1	1552	9	7	5	8	1	6	1	6	3395
"2009-09-02"	1	1	20	2	7	24	8	0	2522	8	4	3	5	1	6	8	4	2049
"2009-09-02"	1	1	20	2	7	25	23	0	1344	9	5	1	2	8	6	5	1	2075
"2009-09-02"	1	1	20	2	7	26	13	0	9287	5	1	3	6	4	7	3	6	1980
"2009-09-02"	1	1	20	2	7	27	5	1	15275	5	3	6	8	1	2	1	3	1836
"2009-09-02"	1	1	20	2	7	28	25	0	13079	4	5	2	9	3	7	4	3	1963
"2009-09-02"	1	1	20	2	7	29	31	1	1352	7	6	1	5	8	2	5	8	1282
"2009-09-02"	1	1	20	2	7	30	5	0	5662	3	4	2	9	6	1	3	9	4568
"2009-09-02"	1	1	20	2	7	31	15	0	1603	8	3	9	4	1	2	4	1	2417
"2009-09-02"	1	1	20	2	7	32	28	0	1848	8	2	3	5	4	7	4	7	1502
"2009-09-02"	1	1	20	2	7	33	6	1	1455	3	2	6	4	7	9	6	4	1759
"2009-09-02"	1	1	20	2	7	34	22	0	955	7	6	1	4	9	3	6	1	1405
"2009-09-02"	1	1	20	2	7	35	12	1	744	7	4	9	6	5	1	9	6	1767
"2009-09-02"	1	1	20	2	7	36	9	1	803	5	1	8	6	7	4	5	1	2519
"2009-09-02"	1	1	20	2	8	1	9	1	2208	8	2	1	3	9	6	3	9	1422
"2009-09-02"	1	1	20	2	8	2	17	1	1103	8	9	5	6	1	3	9	5	2055
"2009-09-02"	1	1	20	2	8	3	25	0	974	9	1	4	6	7	8	7	8	1965
"2009-09-02"	1	1	20	2	8	4	8	0	4185	3	2	4	1	5	6	2	4	1649
"2009-09-02"	1	1	20	2	8	5	10	0	1790	4	9	5	7	1	8	5	7	1698
"2009-09-02"	1	1	20	2	8	6	16	0	880	9	2	4	7	6	1	9	2	1293
"2009-09-02"	1	1	20	2	8	7	20	1	1347	3	2	1	6	9	5	6	9	1645
"2009-09-02"	1	1	20	2	8	8	25	0	2617	7	6	5	4	2	1	2	1	3491
"2009-09-02"	1	1	20	2	8	9	9	1	3685	3	9	6	5	2	1	3	9	1422
"2009-09-02"	1	1	20	2	8	10	16	0	1027	5	9	3	8	2	6	2	8	3237
"2009-09-02"	1	1	20	2	8	11	8	0	3332	8	7	6	5	4	2	7	6	2471
"2009-09-02"	1	1	20	2	8	12	1	1	1010	9	6	3	8	2	4	3	3	2614
"2009-09-02"	1	1	20	2	8	13	28	0	2030	4	5	1	8	7	3	8	7	1626
"2009-09-02"	1	1	20	2	8	14	12	1	842	7	1	6	3	4	2	3	4	1838
"2009-09-02"	1	1	20	2	8	15	15	1	2067	6	1	3	9	2	4	6	1	1110
"2009-09-02"	1	1	20	2	8	16	2	1	2207	4	1	3	2	6	5	6	2	6085
"2009-09-02"	1	1	20	2	8	17	22	0	1100	6	4	1	3	5	7	1	6	4611
"2009-09-02"	1	1	20	2	8	18	28	0	1614	7	5	9	8	6	3	5	9	2022
"2009-09-02"	1	1	20	2	8	19	17	1	904	4	6	5	3	2	7	3	2	1119
"2009-09-02"	1	1	20	2	8	20	5	1	794	2	3	6	5	7	4	2	3	1659
"2009-09-02"	1	1	20	2	8	21	5	0	849	6	9	8	5	4	1	9	8	2150
"2009-09-02"	1	1	20	2	8	22	1	1	1000	1	4	6	2	3	9	6	3	1645
"2009-09-02"	1	1	20	2	8	23	14	1	1504	3	7	4	2	1	8	1	8	4210
"2009-09-02"	1	1	20	2	8	24	4	1	1021	1	3	6	9	5	7	6	9	1245
"2009-09-02"	1	1	20	2	8	25	20	1	4488	7	6	2	8	5	9	7	8	3125
"2009-09-02"	1	1	20	2	8	26	31	1	12459	6	5	4	9	2	8	2	8	1179
"2009-09-02"	1	1	20	2	8	27	13	1	1545	1	3	8	6	7	5	3	8	1532
"2009-09-02"	1	1	20	2	8	28	3	1	8058	2	6	8	5	4	1	5	5	808
"2009-09-02"	1	1	20	2	8	29	23	0	1211	4	8	2	6	7	9	6	8	1992
"2009-09-02"	1	1	20	2	8	30	6	1	7369	5	3	6	8	1	2	3	6	2163
"2009-09-02"	1	1	20	2	8	31	30	1	2815	7	4	9	8	1	5	1	5	1458
"2009-09-02"	1	1	20	2	8	32	13	1	920	5	3	7	8	4	2	7	8	4677
"2009-09-02"	1	1	20	2	8	33	12	1	926	3	6	1	9	8	4	3	8	6145
"2009-09-02"	1	1	20	2	8	34	7	1	1187	1	7	2	3	4	9	4	9	1653
"2009-09-02"	1	1	20	2	8	35	11	1	7851	1	9	5	8	3	6	9	8	15549
"2009-09-02"	1	1	20	2	8	36	4	1	1077	1	6	5	3	4	9	1	2	43662
"2009-09-02"	1	1	20	3	1	1	1	1	2107	1	3	4	6	9	8	6	9	3253
"2009-09-02"	1	1	20	3	1	2	4	1	2767	7	9	2	1	3	6	2	1	4206
"2009-09-02"	1	1	20	3	1	3	5	1	962	7	1	4	8	6	3	8	6	2350
"2009-09-02"	1	1	20	3	1	4	8	0	1232	7	3	1	4	2	5	2	5	1499
"2009-09-02"	1	1	20	3	1	5	9	1	4329	9	6	4	2	7	1	9	6	1678
"2009-09-02"	1	1	20	3	1	6	12	1	697	1	6	4	9	8	7	4	9	2360
"2009-09-02"	1	1	20	3	1	7	13	0	1437	4	9	5	7	6	3	9	5	1538
"2009-09-02"	1	1	20	3	1	8	16	0	1712	1	3	4	2	5	6	2	5	1691
"2009-09-02"	1	1	20	3	1	9	21	0	1842	8	9	1	5	6	4	8	9	2248
"2009-09-02"	1	1	20	3	1	10	24	0	6120	7	2	9	4	5	6	2	1	3061
"2009-09-02"	1	1	20	3	1	11	17	1	1896	2	9	5	1	6	7	5	1	1681
"2009-09-02"	1	1	20	3	1	12	20	1	693	4	1	3	8	6	7	6	7	1459
"2009-09-02"	1	1	20	3	1	13	25	0	1650	1	6	7	8	2	9	2	9	1874
"2009-09-02"	1	1	20	3	1	14	28	0	2100	7	3	6	8	2	1	8	2	1060
"2009-09-02"	1	1	20	3	1	15	29	0	2578	4	8	9	5	7	2	4	8	6020
"2009-09-02"	1	1	20	3	1	16	32	1	2468	3	1	6	8	7	2	1	6	2360
"2009-09-02"	1	1	20	3	1	17	2	1	1646	8	3	5	1	9	6	5	1	2067
"2009-09-02"	1	1	20	3	1	18	6	1	869	7	4	1	2	3	6	2	6	1911
"2009-09-02"	1	1	20	3	1	19	11	1	985	1	5	2	6	7	3	5	6	3282
"2009-09-02"	1	1	20	3	1	20	15	0	3273	5	1	7	9	4	8	5	7	5079
"2009-09-02"	1	1	20	3	1	21	23	0	3712	6	2	8	5	3	9	8	5	1822
"2009-09-02"	1	1	20	3	1	22	18	1	3648	6	5	2	1	4	8	4	8	1788
"2009-09-02"	1	1	20	3	1	23	26	0	3005	4	5	2	8	6	9	5	2	2821
"2009-09-02"	1	1	20	3	1	24	31	1	2737	6	1	7	8	5	9	8	5	2835
"2009-09-02"	1	1	20	3	1	25	3	1	3880	8	5	9	2	6	3	8	5	1482
"2009-09-02"	1	1	20	3	1	26	7	0	3205	4	8	9	5	1	2	1	2	1317
"2009-09-02"	1	1	20	3	1	27	10	0	1577	7	6	3	1	8	2	3	5	9625
"2009-09-02"	1	1	20	3	1	28	14	0	2099	7	9	8	5	3	2	7	9	1820
"2009-09-02"	1	1	20	3	1	29	22	0	1586	1	4	3	7	2	8	7	2	1213
"2009-09-02"	1	1	20	3	1	30	19	1	3003	4	3	1	9	8	7	1	3	5851
"2009-09-02"	1	1	20	3	1	31	27	0	1249	4	1	7	2	5	8	5	8	1446
"2009-09-02"	1	1	20	3	1	32	30	1	1281	4	8	7	1	9	2	8	7	2118
"2009-09-02"	1	1	20	3	1	33	1	1	2091	9	1	4	2	5	3	9	1	1308
"2009-09-02"	1	1	20	3	1	34	4	0	1525	9	8	4	1	5	2	5	2	1217
"2009-09-02"	1	1	20	3	1	35	5	0	1367	6	8	3	4	7	2	4	7	1372
"2009-09-02"	1	1	20	3	1	36	8	0	1050	6	7	2	5	3	1	2	5	2143
"2009-09-02"	1	1	20	3	1	37	9	1	873	9	4	7	6	1	5	4	7	2370
"2009-09-02"	1	1	20	3	1	38	12	1	1162	9	4	3	5	7	1	4	3	2159
"2009-09-02"	1	1	20	3	1	39	13	0	1420	7	2	1	8	4	6	8	1	1028
"2009-09-02"	1	1	20	3	1	40	16	0	900	3	9	7	5	2	6	7	5	2235
"2009-09-02"	1	1	20	3	1	41	21	0	3375	7	4	3	5	1	8	7	4	1634
"2009-09-02"	1	1	20	3	1	42	24	0	3531	5	8	6	4	1	3	1	3	1551
"2009-09-02"	1	1	20	3	1	43	17	1	1704	7	4	9	2	1	3	1	3	1347
"2009-09-02"	1	1	20	3	1	44	20	1	2644	6	3	8	2	7	9	2	7	3675
"2009-09-02"	1	1	20	3	1	45	25	0	1202	1	5	4	8	7	3	4	8	1702
"2009-09-02"	1	1	20	3	1	46	28	0	872	2	1	5	3	9	4	2	1	2649
"2009-09-02"	1	1	20	3	1	47	29	1	5530	5	7	9	4	1	6	7	9	3121
"2009-09-02"	1	1	20	3	1	48	32	1	1063	6	9	1	5	7	4	5	1	3343
"2009-10-02"	1	-1	22	1	1	1	-1	-1	-1	3	4	9	6	2	7	3	4	1940
"2009-10-02"	1	-1	22	1	1	2	-1	-1	-1	5	8	4	7	9	2	8	9	3395
"2009-10-02"	1	-1	22	1	1	3	-1	-1	-1	4	3	9	5	7	2	9	5	1939
"2009-10-02"	1	-1	22	1	1	4	-1	-1	-1	9	2	4	5	8	3	8	3	2662
"2009-10-02"	1	-1	22	1	1	5	-1	-1	-1	3	1	2	5	6	7	5	6	2379
"2009-10-02"	1	-1	22	1	1	6	-1	-1	-1	4	1	6	2	5	8	2	6	3751
"2009-10-02"	1	-1	22	1	1	7	-1	-1	-1	7	9	5	1	8	2	8	1	2084
"2009-10-02"	1	-1	22	1	1	8	-1	-1	-1	9	8	4	6	3	2	8	2	2475
"2009-10-02"	1	-1	22	1	1	9	-1	-1	-1	7	5	6	8	9	1	6	8	1564
"2009-10-02"	1	-1	22	1	1	10	-1	-1	-1	1	3	6	7	9	4	1	3	1646
"2009-10-02"	1	1	22	2	1	1	2	1	7353	7	2	9	3	8	4	2	4	4257
"2009-10-02"	1	1	22	2	1	2	14	1	7500	8	3	4	6	9	2	8	6	2656
"2009-10-02"	1	1	22	2	1	3	17	1	30105	3	1	6	2	5	7	2	5	2462
"2009-10-02"	1	1	22	2	1	4	28	0	4216	2	8	3	9	4	7	4	7	2164
"2009-10-02"	1	1	22	2	1	5	31	0	4233	8	4	3	2	5	6	3	4	3387
"2009-10-02"	1	1	22	2	1	6	7	0	11240	5	8	4	2	6	7	8	4	2992
"2009-10-02"	1	1	22	2	1	7	5	1	3900	5	9	6	7	1	4	5	9	1538
"2009-10-02"	1	1	22	2	1	8	16	0	3449	7	1	5	3	4	2	3	5	5900
"2009-10-02"	1	1	22	2	1	9	25	0	3709	3	8	1	6	5	7	1	7	1940
"2009-10-02"	1	1	22	2	1	10	11	0	3162	7	5	1	4	8	2	8	1	4738
"2009-10-02"	1	1	22	2	1	11	20	1	4017	3	5	1	4	7	9	5	1	3765
"2009-10-02"	1	1	22	2	1	12	30	0	3736	4	1	6	7	9	2	7	9	7234
"2009-10-02"	1	1	22	2	1	13	8	0	3216	3	5	4	1	7	9	3	5	1299
"2009-10-02"	1	1	22	2	1	14	16	1	2769	2	6	3	5	9	8	3	5	3236
"2009-10-02"	1	1	22	2	1	15	9	0	3754	6	4	9	5	7	3	7	3	2124
"2009-10-02"	1	1	22	2	1	16	3	0	5631	8	1	2	7	4	9	4	7	3244
"2009-10-02"	1	1	22	2	1	17	1	0	2467	2	3	7	8	4	9	8	9	4135
"2009-10-02"	1	1	22	2	1	18	5	0	3954	1	3	5	6	8	2	1	3	2180
"2009-10-02"	1	1	22	2	1	19	13	1	3723	7	5	4	1	8	3	5	4	7740
"2009-10-02"	1	1	22	2	1	20	25	1	5008	1	6	7	5	9	8	7	5	1310
"2009-10-02"	1	1	22	2	1	21	12	0	3799	3	9	7	4	1	8	4	8	3672
"2009-10-02"	1	1	22	2	1	22	9	0	5127	9	7	8	2	4	3	9	1	3837
"2009-10-02"	1	1	22	2	1	23	4	1	7693	8	3	1	5	7	6	1	5	2730
"2009-10-02"	1	1	22	2	1	24	8	0	6131	6	8	5	2	4	9	4	7	2091
"2009-10-02"	1	1	22	2	1	25	13	0	3817	3	9	8	1	5	6	9	5	5277
"2009-10-02"	1	1	22	2	1	26	10	0	6008	4	1	3	5	6	7	4	3	2272
"2009-10-02"	1	1	22	2	1	27	6	0	4602	1	3	7	8	2	9	8	9	2237
"2009-10-02"	1	1	22	2	1	28	28	0	2826	1	7	6	5	3	9	7	6	1918
"2009-10-02"	1	1	22	2	1	29	15	0	6186	7	8	9	4	6	2	6	2	3061
"2009-10-02"	1	1	22	2	1	30	20	0	2801	2	9	3	8	6	5	3	8	5201
"2009-10-02"	1	1	22	2	1	31	4	0	2659	8	9	6	4	3	1	6	4	1893
"2009-10-02"	1	1	22	2	1	32	1	0	2851	2	6	8	5	3	9	5	8	5037
"2009-10-02"	1	1	22	2	1	33	17	0	2143	4	7	5	9	3	6	7	3	3699
"2009-10-02"	1	1	22	2	1	34	23	0	10727	9	1	4	2	3	8	3	8	4138
"2009-10-02"	1	1	22	2	1	35	22	0	5104	6	4	5	7	3	9	6	5	1385
"2009-10-02"	1	1	22	2	1	36	12	1	2394	4	8	2	6	5	3	5	6	2190
"2009-10-02"	1	1	22	2	2	1	5	0	3031	8	3	7	1	9	6	3	9	1316
"2009-10-02"	1	1	22	2	2	2	2	0	3527	9	2	1	6	7	4	6	7	1434
"2009-10-02"	1	1	22	2	2	3	4	0	6075	8	4	9	2	5	7	8	5	3145
"2009-10-02"	1	1	22	2	2	4	6	0	6220	1	8	3	2	9	4	3	7	4063
"2009-10-02"	1	1	22	2	2	5	17	1	7772	3	2	5	4	6	8	6	5	3639
"2009-10-02"	1	1	22	2	2	6	13	0	2823	8	4	6	9	7	1	8	4	2244
"2009-10-02"	1	1	22	2	2	7	31	0	6569	6	3	9	8	4	1	3	6	4192
"2009-10-02"	1	1	22	2	2	8	28	0	2881	6	8	1	2	9	7	1	9	2657
"2009-10-02"	1	1	22	2	2	9	9	0	1297	1	3	8	5	4	9	5	9	2785
"2009-10-02"	1	1	22	2	2	10	20	0	6220	1	9	8	6	5	3	6	3	2559
"2009-10-02"	1	1	22	2	2	11	25	0	7908	6	3	1	8	4	9	4	2	2260
"2009-10-02"	1	1	22	2	2	12	28	0	3591	4	8	6	1	3	5	4	3	1509
"2009-10-02"	1	1	22	2	2	13	16	0	1838	2	7	8	4	6	1	8	6	2996
"2009-10-02"	1	1	22	2	2	14	8	0	2258	7	2	5	6	3	9	2	5	1620
"2009-10-02"	1	1	22	2	2	15	20	1	3425	5	3	2	1	6	7	2	1	6031
"2009-10-02"	1	1	22	2	2	16	9	1	3099	5	7	2	3	1	6	7	6	3046
"2009-10-02"	1	1	22	2	2	17	14	0	2292	9	6	5	8	4	7	4	8	4637
"2009-10-02"	1	1	22	2	2	18	1	0	7214	8	7	5	6	2	1	6	2	2346
"2009-10-02"	1	1	22	2	2	19	22	0	2117	4	7	1	2	6	5	4	7	1427
"2009-10-02"	1	1	22	2	2	20	11	1	2740	5	9	8	1	4	7	4	8	2022
"2009-10-02"	1	1	22	2	2	21	17	0	2640	6	8	7	1	5	3	6	5	2879
"2009-10-02"	1	1	22	2	2	22	25	0	4125	7	1	3	6	2	9	6	8	6463
"2009-10-02"	1	1	22	2	2	23	8	1	833	2	5	6	7	3	8	5	6	3218
"2009-10-02"	1	1	22	2	2	24	16	0	1859	9	7	6	4	1	8	6	1	3052
"2009-10-02"	1	1	22	2	2	25	5	0	2476	1	8	5	2	7	9	7	2	2323
"2009-10-02"	1	1	22	2	2	26	23	0	3376	5	9	2	8	4	7	2	9	7028
"2009-10-02"	1	1	22	2	2	27	15	1	3617	7	1	6	3	9	8	3	1	4413
"2009-10-02"	1	1	22	2	2	28	13	0	2719	6	9	5	4	1	2	9	1	3327
"2009-10-02"	1	1	22	2	2	29	12	0	2656	9	6	8	1	5	2	9	6	4610
"2009-10-02"	1	1	22	2	2	30	10	1	2718	5	4	6	3	2	7	4	6	6118
"2009-10-02"	1	1	22	2	2	31	30	0	1882	4	3	6	7	9	5	9	5	3295
"2009-10-02"	1	1	22	2	2	32	12	0	2352	9	8	5	1	2	3	1	8	5556
"2009-10-02"	1	1	22	2	2	33	7	0	3215	2	3	7	5	8	1	7	8	4546
"2009-10-02"	1	1	22	2	2	34	3	0	3801	6	3	1	5	2	9	6	5	1458
"2009-10-02"	1	1	22	2	2	35	1	1	3911	3	1	4	2	8	7	2	7	4662
"2009-10-02"	1	1	22	2	2	36	4	0	8245	2	5	7	4	3	1	3	4	2833
"2009-10-02"	1	1	22	2	3	1	14	0	5964	4	5	9	2	1	8	4	5	1315
"2009-10-02"	1	1	22	2	3	2	28	0	4223	9	5	4	1	7	6	4	5	1174
"2009-10-02"	1	1	22	2	3	3	9	1	2484	1	4	8	6	5	3	4	8	12794
"2009-10-02"	1	1	22	2	3	4	25	1	4132	1	6	4	8	7	5	6	8	2353
"2009-10-02"	1	1	22	2	3	5	7	1	3092	9	4	5	8	1	7	1	6	1614
"2009-10-02"	1	1	22	2	3	6	8	0	2029	8	1	3	2	9	7	3	2	3328
"2009-10-02"	1	1	22	2	3	7	25	0	2345	2	4	6	5	7	8	2	6	1461
"2009-10-02"	1	1	22	2	3	8	12	1	3868	8	5	6	2	4	3	2	5	1906
"2009-10-02"	1	1	22	2	3	9	3	1	3428	7	9	1	5	6	4	5	6	2746
"2009-10-02"	1	1	22	2	3	10	30	0	7300	4	9	1	5	2	3	2	8	2897
"2009-10-02"	1	1	22	2	3	11	17	0	2562	9	2	5	1	3	8	9	5	2113
"2009-10-02"	1	1	22	2	3	12	8	0	4155	2	9	8	5	3	4	9	8	2197
"2009-10-02"	1	1	22	2	3	13	11	1	5401	9	6	8	3	2	5	8	5	3150
"2009-10-02"	1	1	22	2	3	14	1	1	2578	7	8	6	4	9	3	6	5	2547
"2009-10-02"	1	1	22	2	3	15	17	0	1982	1	9	5	4	3	7	1	9	1863
"2009-10-02"	1	1	22	2	3	16	5	0	1953	6	7	8	3	1	5	3	1	2068
"2009-10-02"	1	1	22	2	3	17	15	0	2293	5	6	9	4	1	8	1	8	6679
"2009-10-02"	1	1	22	2	3	18	13	0	1859	7	6	1	2	4	8	6	1	1420
"2009-10-02"	1	1	22	2	3	19	20	1	2946	9	8	6	2	4	5	6	2	3600
"2009-10-02"	1	1	22	2	3	20	16	0	2319	6	1	5	2	7	9	6	8	1310
"2009-10-02"	1	1	22	2	3	21	16	0	1709	8	7	4	3	5	6	5	3	3736
"2009-10-02"	1	1	22	2	3	22	31	0	3131	2	9	5	6	7	4	9	5	2342
"2009-10-02"	1	1	22	2	3	23	22	0	2296	1	9	4	2	7	3	2	5	2465
"2009-10-02"	1	1	22	2	3	24	13	0	3628	8	3	6	9	2	4	6	9	3370
"2009-10-02"	1	1	22	2	3	25	6	1	2899	2	6	4	7	8	1	7	1	3622
"2009-10-02"	1	1	22	2	3	26	28	0	6242	2	9	5	3	7	8	7	6	2315
"2009-10-02"	1	1	22	2	3	27	23	0	2616	8	3	7	9	6	5	8	9	1634
"2009-10-02"	1	1	22	2	3	28	4	1	2258	5	7	6	8	4	9	7	6	1508
"2009-10-02"	1	1	22	2	3	29	12	1	2261	1	6	2	7	4	3	4	3	5478
"2009-10-02"	1	1	22	2	3	30	10	1	2537	7	9	2	3	5	1	9	5	2330
"2009-10-02"	1	1	22	2	3	31	20	1	3970	9	7	5	3	1	2	9	7	1735
"2009-10-02"	1	1	22	2	3	32	9	1	3188	3	7	9	2	1	8	2	7	5106
"2009-10-02"	1	1	22	2	3	33	5	0	1633	7	8	5	1	2	6	5	1	2092
"2009-10-02"	1	1	22	2	3	34	2	1	4604	8	3	5	2	7	4	2	5	2118
"2009-10-02"	1	1	22	2	3	35	4	1	3555	9	5	6	3	7	4	6	8	5195
"2009-10-02"	1	1	22	2	3	36	1	0	4653	9	3	2	7	4	8	4	3	4051
"2009-10-02"	1	1	22	2	4	1	10	1	1840	3	1	2	4	9	5	1	4	1694
"2009-10-02"	1	1	22	2	4	2	13	0	1893	4	9	7	2	1	6	4	9	1357
"2009-10-02"	1	1	22	2	4	3	20	1	2033	8	2	7	4	5	3	5	3	2268
"2009-10-02"	1	1	22	2	4	4	22	0	2895	8	3	6	9	7	1	8	3	1617
"2009-10-02"	1	1	22	2	4	5	13	0	2191	4	3	8	1	5	9	8	1	4739
"2009-10-02"	1	1	22	2	4	6	12	1	5033	5	9	8	3	1	7	9	8	6005
"2009-10-02"	1	1	22	2	4	7	9	0	4315	3	9	8	2	6	7	2	6	3054
"2009-10-02"	1	1	22	2	4	8	30	0	1646	7	8	9	2	1	4	2	1	4875
"2009-10-02"	1	1	22	2	4	9	9	1	4405	6	5	3	2	9	1	3	5	5378
"2009-10-02"	1	1	22	2	4	10	28	0	3682	5	7	9	4	3	2	3	2	3883
"2009-10-02"	1	1	22	2	4	11	6	1	2178	4	1	7	2	9	6	4	1	1795
"2009-10-02"	1	1	22	2	4	12	4	0	3783	9	1	4	2	3	7	1	3	3342
"2009-10-02"	1	1	22	2	4	13	16	0	3850	4	7	9	8	2	5	8	7	4607
"2009-10-02"	1	1	22	2	4	14	4	1	5417	4	5	9	6	7	2	5	9	1579
"2009-10-02"	1	1	22	2	4	15	2	1	2593	2	6	3	5	9	7	2	6	1766
"2009-10-02"	1	1	22	2	4	16	15	0	3626	7	8	3	6	2	4	3	2	5281
"2009-10-02"	1	1	22	2	4	17	20	1	2867	6	5	9	8	2	7	2	7	2351
"2009-10-02"	1	1	22	2	4	18	17	0	3762	7	3	9	4	6	1	9	6	2291
"2009-10-02"	1	1	22	2	4	19	11	1	3579	3	7	6	5	4	8	7	6	5702
"2009-10-02"	1	1	22	2	4	20	5	0	3039	6	3	1	4	7	5	4	7	1623
"2009-10-02"	1	1	22	2	4	21	1	0	2151	3	2	9	4	6	7	6	7	1883
"2009-10-02"	1	1	22	2	4	22	1	1	5703	2	5	1	6	7	4	2	3	2049
"2009-10-02"	1	1	22	2	4	23	14	0	3713	7	4	8	3	5	2	7	4	1079
"2009-10-02"	1	1	22	2	4	24	31	1	1866	9	7	1	6	2	4	2	1	3437
"2009-10-02"	1	1	22	2	4	25	8	1	5635	5	2	6	7	9	1	6	7	1952
"2009-10-02"	1	1	22	2	4	26	5	0	1690	8	9	5	7	1	3	7	1	2434
"2009-10-02"	1	1	22	2	4	27	17	1	5672	3	2	7	1	4	9	2	4	1668
"2009-10-02"	1	1	22	2	4	28	23	1	2142	9	6	3	1	7	5	9	6	1622
"2009-10-02"	1	1	22	2	4	29	12	1	1743	2	9	4	8	3	7	4	8	4554
"2009-10-02"	1	1	22	2	4	30	25	0	1843	4	5	8	3	7	2	3	7	1721
"2009-10-02"	1	1	22	2	4	31	3	0	2989	3	8	5	7	6	4	6	8	3090
"2009-10-02"	1	1	22	2	4	32	25	0	2236	8	4	5	1	7	3	4	1	3879
"2009-10-02"	1	1	22	2	4	33	16	0	1918	1	8	2	3	9	4	3	2	2797
"2009-10-02"	1	1	22	2	4	34	8	0	4618	8	1	9	4	6	7	6	8	6827
"2009-10-02"	1	1	22	2	4	35	28	0	2480	3	5	6	7	4	8	5	7	3478
"2009-10-02"	1	1	22	2	4	36	7	1	2285	8	7	4	1	6	2	8	4	2868
"2009-10-02"	1	1	22	2	5	1	13	0	4033	2	6	7	1	9	5	7	1	2163
"2009-10-02"	1	1	22	2	5	2	31	1	3567	9	7	1	4	8	6	4	1	2194
"2009-10-02"	1	1	22	2	5	3	7	1	2087	5	2	6	9	3	7	2	5	2781
"2009-10-02"	1	1	22	2	5	4	4	0	8217	6	3	1	4	7	5	7	5	3335
"2009-10-02"	1	1	22	2	5	5	2	0	3969	2	3	9	6	8	5	2	8	6556
"2009-10-02"	1	1	22	2	5	6	1	0	4593	2	5	4	9	7	8	4	7	3252
"2009-10-02"	1	1	22	2	5	7	12	1	3957	1	4	7	3	5	9	4	2	6919
"2009-10-02"	1	1	22	2	5	8	15	1	8307	2	1	7	8	4	6	7	6	3172
"2009-10-02"	1	1	22	2	5	9	5	0	6094	5	9	8	2	4	1	5	9	4294
"2009-10-02"	1	1	22	2	5	10	22	1	2401	9	4	8	6	2	5	2	4	9631
"2009-10-02"	1	1	22	2	5	11	17	1	3153	5	8	9	3	1	6	3	1	8334
"2009-10-02"	1	1	22	2	5	12	5	0	5708	2	8	5	6	4	9	8	5	2870
"2009-10-02"	1	1	22	2	5	13	28	0	2848	6	3	9	8	4	7	8	7	2554
"2009-10-02"	1	1	22	2	5	14	9	0	5712	1	9	8	3	5	7	5	4	4725
"2009-10-02"	1	1	22	2	5	15	3	1	5681	9	7	6	1	5	3	9	5	3726
"2009-10-02"	1	1	22	2	5	16	10	1	5007	3	5	8	7	9	6	8	7	3445
"2009-10-02"	1	1	22	2	5	17	16	0	9111	2	9	1	4	6	7	1	4	2050
"2009-10-02"	1	1	22	2	5	18	28	0	2017	3	7	2	8	5	1	7	8	2514
"2009-10-02"	1	1	22	2	5	19	23	0	5686	3	6	9	5	1	7	3	2	1542
"2009-10-02"	1	1	22	2	5	20	14	0	2079	8	5	9	4	7	2	7	2	5453
"2009-10-02"	1	1	22	2	5	21	25	0	3171	2	3	9	8	4	1	8	2	2237
"2009-10-02"	1	1	22	2	5	22	8	0	3634	7	8	6	5	9	3	6	2	4075
"2009-10-02"	1	1	22	2	5	23	8	0	2643	6	9	2	5	8	7	5	2	6170
"2009-10-02"	1	1	22	2	5	24	1	1	2481	2	7	1	5	6	4	7	1	2168
"2009-10-02"	1	1	22	2	5	25	16	0	7567	3	7	2	6	1	8	3	1	2554
"2009-10-02"	1	1	22	2	5	26	9	0	5551	9	7	2	1	5	6	5	9	2043
"2009-10-02"	1	1	22	2	5	27	25	0	1960	9	3	5	8	2	1	5	8	1462
"2009-10-02"	1	1	22	2	5	28	17	0	2580	4	1	8	7	6	5	7	8	2646
"2009-10-02"	1	1	22	2	5	29	20	1	1859	1	3	8	6	7	2	7	2	1819
"2009-10-02"	1	1	22	2	5	30	4	1	2362	3	1	5	7	2	8	1	2	2049
"2009-10-02"	1	1	22	2	5	31	12	0	7992	7	4	3	9	2	5	7	4	1793
"2009-10-02"	1	1	22	2	5	32	30	0	2875	6	3	2	7	4	1	3	4	5627
"2009-10-02"	1	1	22	2	5	33	13	0	3274	4	6	5	7	9	8	7	9	3418
"2009-10-02"	1	1	22	2	5	34	6	1	2303	2	4	3	5	8	9	2	3	3771
"2009-10-02"	1	1	22	2	5	35	11	1	6301	5	9	8	1	2	7	2	1	2792
"2009-10-02"	1	1	22	2	5	36	20	1	2051	2	8	5	9	6	3	5	6	2084
"2009-10-02"	1	1	22	2	6	1	25	0	2133	8	2	6	3	9	4	2	6	1118
"2009-10-02"	1	1	22	2	6	2	22	1	1937	5	8	6	3	4	7	5	6	2234
"2009-10-02"	1	1	22	2	6	3	13	0	1695	4	6	2	3	1	9	3	2	3192
"2009-10-02"	1	1	22	2	6	4	2	1	3820	5	1	4	6	7	9	7	6	2911
"2009-10-02"	1	1	22	2	6	5	4	1	6330	7	5	6	3	9	1	6	1	2059
"2009-10-02"	1	1	22	2	6	6	11	1	2274	8	9	5	3	6	1	6	3	2014
"2009-10-02"	1	1	22	2	6	7	7	1	1981	3	2	7	1	4	5	1	5	1798
"2009-10-02"	1	1	22	2	6	8	20	1	3673	4	5	2	1	8	7	2	6	4066
"2009-10-02"	1	1	22	2	6	9	3	0	2672	4	5	6	8	1	7	4	5	1653
"2009-10-02"	1	1	22	2	6	10	28	0	2371	4	9	1	6	3	5	9	6	2085
"2009-10-02"	1	1	22	2	6	11	15	0	2618	9	1	5	3	6	7	3	5	4763
"2009-10-02"	1	1	22	2	6	12	25	0	2191	6	3	8	5	1	4	8	1	2923
"2009-10-02"	1	1	22	2	6	13	20	1	1569	2	4	6	9	3	8	4	6	2398
"2009-10-02"	1	1	22	2	6	14	17	1	8563	6	4	9	5	7	2	7	1	2912
"2009-10-02"	1	1	22	2	6	15	23	1	5578	1	5	8	3	6	2	1	5	1612
"2009-10-02"	1	1	22	2	6	16	9	1	3291	9	7	2	1	6	5	6	7	2542
"2009-10-02"	1	1	22	2	6	17	4	0	3961	9	5	8	3	1	7	9	5	2107
"2009-10-02"	1	1	22	2	6	18	10	1	2061	7	8	3	2	6	1	3	6	5821
"2009-10-02"	1	1	22	2	6	19	8	0	2317	1	7	4	9	3	8	7	4	2084
"2009-10-02"	1	1	22	2	6	20	5	0	5273	2	3	5	1	6	8	1	4	2077
"2009-10-02"	1	1	22	2	6	21	9	1	1849	4	3	6	2	8	9	4	3	1367
"2009-10-02"	1	1	22	2	6	22	8	0	2411	6	8	4	1	9	2	4	8	2987
"2009-10-02"	1	1	22	2	6	23	6	1	2079	7	1	9	8	2	3	1	4	2565
"2009-10-02"	1	1	22	2	6	24	14	1	4859	9	2	8	6	5	1	6	2	1964
"2009-10-02"	1	1	22	2	6	25	17	1	2568	3	6	4	1	9	7	9	1	2135
"2009-10-02"	1	1	22	2	6	26	28	0	2246	3	8	6	4	2	1	3	4	5988
"2009-10-02"	1	1	22	2	6	27	5	0	5616	2	7	3	9	8	5	7	8	4743
"2009-10-02"	1	1	22	2	6	28	16	0	2598	7	6	1	8	9	4	8	6	1653
"2009-10-02"	1	1	22	2	6	29	16	0	1716	3	2	9	7	6	5	6	7	2070
"2009-10-02"	1	1	22	2	6	30	1	1	1568	7	4	3	1	5	2	3	5	3885
"2009-10-02"	1	1	22	2	6	31	30	1	2120	6	4	8	7	9	2	4	8	2334
"2009-10-02"	1	1	22	2	6	32	12	1	6750	3	5	6	9	4	1	3	5	1901
"2009-10-02"	1	1	22	2	6	33	12	1	1307	1	5	6	9	3	2	9	3	2181
"2009-10-02"	1	1	22	2	6	34	13	0	2479	5	2	7	1	4	3	7	1	4566
"2009-10-02"	1	1	22	2	6	35	1	1	8298	5	4	9	8	7	3	7	3	6065
"2009-10-02"	1	1	22	2	6	36	31	1	2649	6	9	5	4	7	8	4	7	4635
"2009-10-02"	1	1	22	2	7	1	5	0	1605	4	9	3	7	8	1	4	9	2003
"2009-10-02"	1	1	22	2	7	2	12	1	2615	4	1	5	3	6	8	5	9	3081
"2009-10-02"	1	1	22	2	7	3	13	0	1784	1	2	7	5	6	4	2	7	2691
"2009-10-02"	1	1	22	2	7	4	31	1	2819	1	9	8	2	7	4	7	4	1798
"2009-10-02"	1	1	22	2	7	5	2	1	2665	5	8	1	4	3	9	5	8	1966
"2009-10-02"	1	1	22	2	7	6	17	1	3970	5	2	6	7	1	9	7	5	9270
"2009-10-02"	1	1	22	2	7	7	25	0	1880	6	7	3	1	4	8	7	1	1838
"2009-10-02"	1	1	22	2	7	8	13	1	3009	3	9	5	1	7	2	7	1	1908
"2009-10-02"	1	1	22	2	7	9	1	1	1606	9	6	1	2	4	3	1	4	2963
"2009-10-02"	1	1	22	2	7	10	12	1	1553	2	3	5	9	1	7	3	5	3988
"2009-10-02"	1	1	22	2	7	11	7	1	1185	5	2	4	1	8	9	5	2	1924
"2009-10-02"	1	1	22	2	7	12	28	0	1799	6	8	7	3	1	5	7	1	6933
"2009-10-02"	1	1	22	2	7	13	6	1	1103	3	1	5	8	2	9	2	7	3935
"2009-10-02"	1	1	22	2	7	14	25	0	1761	4	7	8	6	5	1	6	7	2439
"2009-10-02"	1	1	22	2	7	15	20	1	1189	3	7	8	6	2	9	2	6	4215
"2009-10-02"	1	1	22	2	7	16	11	1	2274	3	6	9	8	5	2	8	2	2070
"2009-10-02"	1	1	22	2	7	17	8	0	4743	8	2	7	6	3	9	2	9	2287
"2009-10-02"	1	1	22	2	7	18	3	1	8375	7	5	8	9	4	3	7	4	1766
"2009-10-02"	1	1	22	2	7	19	9	1	2137	6	8	5	9	3	1	5	9	2602
"2009-10-02"	1	1	22	2	7	20	4	0	2376	9	7	5	3	4	8	4	8	11753
"2009-10-02"	1	1	22	2	7	21	17	0	2866	5	4	6	7	2	9	5	4	2167
"2009-10-02"	1	1	22	2	7	22	4	1	4379	8	9	7	1	5	3	7	4	4754
"2009-10-02"	1	1	22	2	7	23	16	1	3404	1	4	3	2	9	7	2	9	2572
"2009-10-02"	1	1	22	2	7	24	15	0	1965	2	7	5	1	6	4	7	4	5651
"2009-10-02"	1	1	22	2	7	25	30	1	6784	7	9	1	2	3	8	3	1	6004
"2009-10-02"	1	1	22	2	7	26	16	0	1810	3	4	2	5	7	6	4	7	6234
"2009-10-02"	1	1	22	2	7	27	14	1	5918	4	1	5	8	3	2	5	8	2788
"2009-10-02"	1	1	22	2	7	28	10	1	1734	6	9	1	5	8	3	5	9	2390
"2009-10-02"	1	1	22	2	7	29	8	0	2105	2	1	5	9	6	7	2	1	1861
"2009-10-02"	1	1	22	2	7	30	1	1	3444	8	6	2	1	3	4	1	2	2972
"2009-10-02"	1	1	22	2	7	31	9	1	3469	6	4	1	8	7	3	7	3	7538
"2009-10-02"	1	1	22	2	7	32	5	0	2910	1	8	5	4	9	6	5	9	1771
"2009-10-02"	1	1	22	2	7	33	20	1	1114	8	6	2	4	9	1	8	4	2740
"2009-10-02"	1	1	22	2	7	34	22	0	4023	9	5	3	4	1	8	5	1	3022
"2009-10-02"	1	1	22	2	7	35	28	0	1105	6	9	7	2	5	8	5	1	7779
"2009-10-02"	1	1	22	2	7	36	23	0	2463	7	2	9	6	1	3	6	3	8172
"2009-10-02"	1	1	22	2	8	1	12	1	2586	8	7	1	2	3	5	8	2	1302
"2009-10-02"	1	1	22	2	8	2	28	0	1895	9	3	4	6	8	5	4	8	4680
"2009-10-02"	1	1	22	2	8	3	4	0	2768	8	9	1	6	2	4	9	6	2450
"2009-10-02"	1	1	22	2	8	4	25	0	1458	1	8	5	2	9	7	9	7	6002
"2009-10-02"	1	1	22	2	8	5	22	0	2961	6	3	4	2	8	9	3	8	2216
"2009-10-02"	1	1	22	2	8	6	25	0	2824	5	8	4	9	1	2	4	9	3124
"2009-10-02"	1	1	22	2	8	7	13	1	2419	8	7	4	9	3	2	9	5	3660
"2009-10-02"	1	1	22	2	8	8	10	1	2009	9	4	2	6	8	7	9	5	1615
"2009-10-02"	1	1	22	2	8	9	3	0	3270	7	2	3	5	9	6	3	6	4820
"2009-10-02"	1	1	22	2	8	10	4	1	2697	5	7	1	4	8	3	5	7	1820
"2009-10-02"	1	1	22	2	8	11	13	0	2770	2	6	7	5	1	8	5	9	2525
"2009-10-02"	1	1	22	2	8	12	14	0	3066	9	7	4	6	8	5	8	5	2752
"2009-10-02"	1	1	22	2	8	13	16	0	1779	2	4	8	5	1	7	4	8	2635
"2009-10-02"	1	1	22	2	8	14	11	1	2944	8	2	9	7	3	5	7	1	2085
"2009-10-02"	1	1	22	2	8	15	20	1	1434	2	3	5	1	4	8	3	5	2052
"2009-10-02"	1	1	22	2	8	16	20	1	1196	3	8	4	1	5	7	5	7	1798
"2009-10-02"	1	1	22	2	8	17	23	0	1826	7	4	6	8	3	9	7	6	3309
"2009-10-02"	1	1	22	2	8	18	31	1	2122	8	7	9	3	4	5	9	4	2103
"2009-10-02"	1	1	22	2	8	19	6	1	1689	5	4	2	9	1	3	2	3	2879
"2009-10-02"	1	1	22	2	8	20	1	1	2021	3	5	4	2	1	6	1	2	2686
"2009-10-02"	1	1	22	2	8	21	1	1	1572	1	3	5	6	7	9	1	3	1684
"2009-10-02"	1	1	22	2	8	22	28	0	1552	6	2	3	8	9	7	8	1	4018
"2009-10-02"	1	1	22	2	8	23	7	1	2199	9	8	2	5	4	1	8	1	3069
"2009-10-02"	1	1	22	2	8	24	15	0	2937	1	4	7	8	5	3	4	7	2300
"2009-10-02"	1	1	22	2	8	25	5	0	3812	6	5	9	8	3	2	3	9	2696
"2009-10-02"	1	1	22	2	8	26	8	0	2120	6	7	9	5	2	8	5	9	3197
"2009-10-02"	1	1	22	2	8	27	8	0	2308	1	6	7	3	5	2	7	6	1896
"2009-10-02"	1	1	22	2	8	28	9	1	1631	4	2	7	5	3	9	4	3	1706
"2009-10-02"	1	1	22	2	8	29	30	1	4100	1	8	2	6	4	7	4	8	2579
"2009-10-02"	1	1	22	2	8	30	17	0	2035	4	5	3	2	8	6	2	3	4221
"2009-10-02"	1	1	22	2	8	31	2	0	2203	7	5	9	3	1	4	7	5	2218
"2009-10-02"	1	1	22	2	8	32	9	1	1730	4	9	5	2	8	7	5	9	3871
"2009-10-02"	1	1	22	2	8	33	5	0	1423	7	4	5	1	3	6	4	9	3071
"2009-10-02"	1	1	22	2	8	34	16	0	1731	8	7	3	2	5	4	8	4	2026
"2009-10-02"	1	1	22	2	8	35	17	1	4236	8	6	4	1	3	5	3	9	2870
"2009-10-02"	1	1	22	2	8	36	12	1	2098	5	3	6	8	2	9	8	2	2835
"2009-10-02"	1	1	22	3	1	1	1	1	2754	2	4	3	8	9	6	3	8	8082
"2009-10-02"	1	1	22	3	1	2	4	1	2732	9	5	7	4	1	6	5	7	1670
"2009-10-02"	1	1	22	3	1	3	5	0	1231	4	2	3	8	7	5	7	5	2178
"2009-10-02"	1	1	22	3	1	4	8	0	2072	3	6	8	5	2	9	6	8	1668
"2009-10-02"	1	1	22	3	1	5	9	1	1309	3	5	1	6	8	9	1	6	1608
"2009-10-02"	1	1	22	3	1	6	12	1	2035	4	7	6	3	1	2	3	8	2303
"2009-10-02"	1	1	22	3	1	7	13	1	2001	7	1	8	3	5	6	7	1	1160
"2009-10-02"	1	1	22	3	1	8	16	0	2571	4	6	1	5	3	8	3	1	2613
"2009-10-02"	1	1	22	3	1	9	21	0	8836	3	9	6	8	1	7	8	5	2086
"2009-10-02"	1	1	22	3	1	10	24	0	3027	9	1	3	8	4	7	3	9	7704
"2009-10-02"	1	1	22	3	1	11	17	1	2247	5	3	8	7	9	2	3	4	2446
"2009-10-02"	1	1	22	3	1	12	20	1	1123	5	4	8	1	2	7	5	4	1288
"2009-10-02"	1	1	22	3	1	13	25	0	1651	7	2	1	6	3	8	6	5	4698
"2009-10-02"	1	1	22	3	1	14	28	0	1633	3	4	5	9	2	1	5	9	4188
"2009-10-02"	1	1	22	3	1	15	29	1	2938	7	1	8	3	5	2	5	8	2388
"2009-10-02"	1	1	22	3	1	16	32	1	5111	7	9	3	2	1	4	7	9	1583
"2009-10-02"	1	1	22	3	1	17	2	1	2033	7	5	2	9	3	4	5	3	3427
"2009-10-02"	1	1	22	3	1	18	6	1	1448	3	9	7	6	2	8	6	8	3061
"2009-10-02"	1	1	22	3	1	19	11	1	2273	5	6	3	8	2	9	3	8	2733
"2009-10-02"	1	1	22	3	1	20	15	1	2413	7	3	9	8	1	4	7	2	2255
"2009-10-02"	1	1	22	3	1	21	23	0	3695	3	5	6	8	7	1	7	1	4082
"2009-10-02"	1	1	22	3	1	22	18	1	7474	4	8	5	3	9	1	8	7	2922
"2009-10-02"	1	1	22	3	1	23	26	0	3232	9	5	6	3	1	7	6	1	2478
"2009-10-02"	1	1	22	3	1	24	31	1	1947	9	6	3	7	2	8	7	6	4295
"2009-10-02"	1	1	22	3	1	25	3	1	2858	8	7	6	5	3	1	8	7	1691
"2009-10-02"	1	1	22	3	1	26	7	1	2122	6	7	8	2	1	4	1	2	6424
"2009-10-02"	1	1	22	3	1	27	10	1	5770	1	4	9	8	5	6	4	7	3730
"2009-10-02"	1	1	22	3	1	28	14	1	2388	5	4	3	1	7	8	3	1	3520
"2009-10-02"	1	1	22	3	1	29	22	1	3302	5	8	4	9	3	7	9	8	2692
"2009-10-02"	1	1	22	3	1	30	19	1	2197	3	7	9	8	5	2	3	5	2627
"2009-10-02"	1	1	22	3	1	31	27	0	2342	7	6	4	5	3	2	3	2	2706
"2009-10-02"	1	1	22	3	1	32	30	1	1894	6	9	3	8	5	1	9	5	2382
"2009-10-02"	1	1	22	3	1	33	1	1	2673	2	6	9	3	8	5	2	8	2604
"2009-10-02"	1	1	22	3	1	34	4	1	2554	6	1	3	7	5	2	1	5	2342
"2009-10-02"	1	1	22	3	1	35	5	0	3185	9	5	3	2	6	1	3	2	3911
"2009-10-02"	1	1	22	3	1	36	8	0	1708	8	1	2	9	5	3	9	5	2679
"2009-10-02"	1	1	22	3	1	37	9	1	1981	9	4	6	7	2	5	2	6	4142
"2009-10-02"	1	1	22	3	1	38	12	1	1314	5	8	7	6	1	9	1	9	4917
"2009-10-02"	1	1	22	3	1	39	13	1	4439	5	3	2	6	1	7	2	5	1665
"2009-10-02"	1	1	22	3	1	40	16	0	1610	3	7	9	1	8	4	7	9	2419
"2009-10-02"	1	1	22	3	1	41	21	0	2867	8	2	7	1	4	9	1	4	1696
"2009-10-02"	1	1	22	3	1	42	24	1	3334	9	3	8	4	6	7	9	3	1985
"2009-10-02"	1	1	22	3	1	43	17	0	1642	6	4	1	3	5	8	4	7	6168
"2009-10-02"	1	1	22	3	1	44	20	1	1119	2	4	6	8	3	9	8	4	2091
"2009-10-02"	1	1	22	3	1	45	25	0	1195	9	2	3	1	8	6	3	2	3069
"2009-10-02"	1	1	22	3	1	46	28	0	2129	9	3	2	1	6	4	6	4	2111
"2009-10-02"	1	1	22	3	1	47	29	1	2344	7	3	6	8	2	9	7	2	1676
"2009-10-02"	1	1	22	3	1	48	32	1	3000	6	9	5	1	8	2	9	5	1816
"2009-12-02"	1	-1	25	1	1	1	-1	-1	-1	3	7	5	1	2	6	1	3	1406
"2009-12-02"	1	-1	25	1	1	2	-1	-1	-1	1	8	3	4	2	5	2	3	1443
"2009-12-02"	1	-1	25	1	1	3	-1	-1	-1	3	2	5	4	1	8	5	4	1140
"2009-12-02"	1	-1	25	1	1	4	-1	-1	-1	5	1	4	7	8	3	5	1	1404
"2009-12-02"	1	-1	25	1	1	5	-1	-1	-1	6	1	4	3	2	9	1	4	1925
"2009-12-02"	1	-1	25	1	1	6	-1	-1	-1	5	2	8	9	4	7	2	4	3163
"2009-12-02"	1	-1	25	1	1	7	-1	-1	-1	6	9	4	8	2	1	2	8	1543
"2009-12-02"	1	-1	25	1	1	8	-1	-1	-1	5	4	3	1	6	8	1	4	2015
"2009-12-02"	1	-1	25	1	1	9	-1	-1	-1	1	4	8	2	5	3	1	4	1805
"2009-12-02"	1	-1	25	1	1	10	-1	-1	-1	9	3	8	2	1	6	8	2	2958
"2009-12-02"	1	1	25	2	1	1	5	0	3489	3	5	7	1	2	4	2	4	2877
"2009-12-02"	1	1	25	2	1	2	1	0	3835	6	1	7	9	8	3	1	8	2219
"2009-12-02"	1	1	25	2	1	3	13	1	5403	4	6	3	8	5	7	4	5	2671
"2009-12-02"	1	1	25	2	1	4	17	1	41025	9	2	5	8	4	6	5	6	2127
"2009-12-02"	1	1	25	2	1	5	6	1	11252	8	6	4	5	3	1	5	6	1575
"2009-12-02"	1	1	25	2	1	6	5	0	3725	3	4	5	6	8	9	4	5	1974
"2009-12-02"	1	1	25	2	1	7	7	0	3829	5	9	7	1	8	2	8	2	4164
"2009-12-02"	1	1	25	2	1	8	3	1	3015	5	4	3	1	6	7	3	1	1970
"2009-12-02"	1	1	25	2	1	9	8	0	2736	1	5	2	3	8	9	3	8	1994
"2009-12-02"	1	1	25	2	1	10	28	0	1799	6	2	4	5	8	1	6	2	2005
"2009-12-02"	1	1	25	2	1	11	16	0	4257	1	7	9	8	6	2	7	9	1702
"2009-12-02"	1	1	25	2	1	12	12	0	2152	2	7	9	4	6	8	9	4	1595
"2009-12-02"	1	1	25	2	1	13	13	0	4310	9	1	4	7	3	2	9	1	1382
"2009-12-02"	1	1	25	2	1	14	14	0	2903	4	9	6	1	2	7	2	7	4772
"2009-12-02"	1	1	25	2	1	15	23	0	3048	3	5	9	4	2	7	4	2	1283
"2009-12-02"	1	1	25	2	1	16	28	0	2854	3	1	4	6	7	2	3	1	1168
"2009-12-02"	1	1	25	2	1	17	1	1	1714	5	8	9	6	4	7	6	4	4989
"2009-12-02"	1	1	25	2	1	18	15	1	10151	5	8	1	4	6	7	1	6	4956
"2009-12-02"	1	1	25	2	1	19	12	1	3222	6	3	5	8	9	2	3	5	1443
"2009-12-02"	1	1	25	2	1	20	20	0	3318	3	5	2	6	7	8	7	8	1767
"2009-12-02"	1	1	25	2	1	21	8	0	2771	7	2	3	9	1	6	2	9	7253
"2009-12-02"	1	1	25	2	1	22	20	1	2736	9	5	3	2	8	7	9	5	1490
"2009-12-02"	1	1	25	2	1	23	17	0	2233	8	9	1	4	7	3	4	7	2508
"2009-12-02"	1	1	25	2	1	24	11	1	5366	3	2	5	7	9	1	9	7	2293
"2009-12-02"	1	1	25	2	1	25	4	0	4693	6	3	7	8	5	4	7	8	1483
"2009-12-02"	1	1	25	2	1	26	25	0	1782	4	8	6	3	9	5	4	8	1399
"2009-12-02"	1	1	25	2	1	27	30	1	3345	4	8	1	5	9	6	9	5	4271
"2009-12-02"	1	1	25	2	1	28	31	1	11768	7	2	8	1	4	3	8	2	2925
"2009-12-02"	1	1	25	2	1	29	25	0	3499	1	4	2	9	3	7	9	3	1438
"2009-12-02"	1	1	25	2	1	30	22	1	3745	1	9	2	8	4	7	9	2	1687
"2009-12-02"	1	1	25	2	1	31	2	1	7275	3	1	2	4	9	5	9	5	2779
"2009-12-02"	1	1	25	2	1	32	10	1	3820	9	6	3	7	5	8	9	5	4986
"2009-12-02"	1	1	25	2	1	33	9	0	10713	5	2	6	1	9	7	1	9	2374
"2009-12-02"	1	1	25	2	1	34	16	0	11574	7	6	1	3	8	5	6	1	1722
"2009-12-02"	1	1	25	2	1	35	9	0	4598	3	8	5	6	4	7	5	6	1424
"2009-12-02"	1	1	25	2	1	36	4	1	5681	9	4	7	2	6	5	6	2	2734
"2009-12-02"	1	1	25	2	2	1	11	1	4968	8	3	5	1	6	7	5	1	1910
"2009-12-02"	1	1	25	2	2	2	5	1	6254	4	8	1	6	5	2	4	8	2391
"2009-12-02"	1	1	25	2	2	3	8	0	9745	5	1	8	3	7	4	1	8	4013
"2009-12-02"	1	1	25	2	2	4	2	1	39455	7	5	3	9	4	2	9	7	2679
"2009-12-02"	1	1	25	2	2	5	15	1	3812	6	8	1	5	3	9	6	8	1728
"2009-12-02"	1	1	25	2	2	6	25	1	2647	2	6	7	9	4	8	4	3	3262
"2009-12-02"	1	1	25	2	2	7	1	1	6554	1	5	7	8	2	9	5	7	2480
"2009-12-02"	1	1	25	2	2	8	12	0	3837	8	1	7	5	9	4	7	5	1463
"2009-12-02"	1	1	25	2	2	9	25	0	4479	7	5	3	1	4	9	1	5	1865
"2009-12-02"	1	1	25	2	2	10	9	0	2051	6	3	2	5	7	8	2	5	3740
"2009-12-02"	1	1	25	2	2	11	13	0	1673	9	7	5	6	4	8	6	4	4828
"2009-12-02"	1	1	25	2	2	12	10	0	3841	1	7	8	4	6	9	1	7	1763
"2009-12-02"	1	1	25	2	2	13	16	0	3775	6	5	1	4	9	8	5	4	7371
"2009-12-02"	1	1	25	2	2	14	20	1	1723	7	1	8	3	4	9	4	3	1713
"2009-12-02"	1	1	25	2	2	15	9	0	1498	1	2	7	4	8	6	2	7	2290
"2009-12-02"	1	1	25	2	2	16	13	1	1905	3	1	2	4	8	9	4	8	2140
"2009-12-02"	1	1	25	2	2	17	1	1	5620	6	4	9	3	5	1	5	3	3014
"2009-12-02"	1	1	25	2	2	18	17	1	1974	5	8	2	9	4	1	2	7	6119
"2009-12-02"	1	1	25	2	2	19	16	0	6490	8	7	1	4	6	9	8	7	1859
"2009-12-02"	1	1	25	2	2	20	28	0	2034	1	3	6	7	4	9	4	7	3157
"2009-12-02"	1	1	25	2	2	21	28	0	2148	7	3	8	9	6	5	3	8	1655
"2009-12-02"	1	1	25	2	2	22	3	1	4918	2	7	8	4	1	9	2	7	1681
"2009-12-02"	1	1	25	2	2	23	8	0	5892	7	8	5	9	3	2	5	4	1916
"2009-12-02"	1	1	25	2	2	24	6	1	4952	1	4	8	2	7	3	2	7	1748
"2009-12-02"	1	1	25	2	2	25	17	0	1653	6	4	7	1	9	3	7	1	1557
"2009-12-02"	1	1	25	2	2	26	12	1	1513	1	2	3	5	7	6	1	2	1220
"2009-12-02"	1	1	25	2	2	27	4	0	2864	6	1	2	9	5	3	9	5	3661
"2009-12-02"	1	1	25	2	2	28	7	1	3762	1	7	2	4	6	3	6	3	3635
"2009-12-02"	1	1	25	2	2	29	23	1	3843	7	9	8	6	4	3	9	8	2036
"2009-12-02"	1	1	25	2	2	30	30	0	5696	6	1	3	8	9	4	9	3	4762
"2009-12-02"	1	1	25	2	2	31	14	0	4243	2	3	4	6	9	8	2	3	1269
"2009-12-02"	1	1	25	2	2	32	4	0	7598	6	9	8	2	7	1	2	1	2013
"2009-12-02"	1	1	25	2	2	33	31	1	2381	4	2	8	1	5	6	8	1	2565
"2009-12-02"	1	1	25	2	2	34	22	0	2699	4	5	3	2	7	1	5	3	1373
"2009-12-02"	1	1	25	2	2	35	5	0	4731	2	4	7	1	5	9	5	7	1753
"2009-12-02"	1	1	25	2	2	36	20	1	1946	4	8	3	5	6	9	4	8	2565
"2009-12-02"	1	1	25	2	3	1	4	1	1521	1	4	7	2	8	6	4	7	1710
"2009-12-02"	1	1	25	2	3	2	13	0	7383	5	8	7	1	4	9	1	7	2052
"2009-12-02"	1	1	25	2	3	3	20	0	1700	3	6	9	2	7	8	9	7	2396
"2009-12-02"	1	1	25	2	3	4	5	0	10040	8	1	4	5	3	2	1	4	1927
"2009-12-02"	1	1	25	2	3	5	14	1	4947	5	6	9	2	4	7	4	7	3156
"2009-12-02"	1	1	25	2	3	6	1	0	2723	5	7	8	3	2	9	3	2	2465
"2009-12-02"	1	1	25	2	3	7	4	1	1492	5	7	3	1	6	4	5	4	6628
"2009-12-02"	1	1	25	2	3	8	10	1	2160	9	5	1	4	3	7	1	3	5431
"2009-12-02"	1	1	25	2	3	9	16	0	1433	7	4	9	2	1	3	1	2	4356
"2009-12-02"	1	1	25	2	3	10	23	0	1539	5	8	3	6	2	4	8	6	2276
"2009-12-02"	1	1	25	2	3	11	1	0	1656	3	8	7	2	6	5	7	2	1689
"2009-12-02"	1	1	25	2	3	12	31	1	4239	8	1	2	5	3	4	8	1	1625
"2009-12-02"	1	1	25	2	3	13	11	1	1947	2	5	1	8	4	7	8	1	2766
"2009-12-02"	1	1	25	2	3	14	3	0	7547	7	8	4	6	1	5	7	8	2251
"2009-12-02"	1	1	25	2	3	15	22	0	1738	6	1	3	8	7	9	1	8	2435
"2009-12-02"	1	1	25	2	3	16	8	0	3632	2	5	1	8	9	6	8	9	1630
"2009-12-02"	1	1	25	2	3	17	2	0	1839	1	8	4	9	5	7	4	9	2037
"2009-12-02"	1	1	25	2	3	18	7	0	9177	8	2	6	5	7	1	7	1	1865
"2009-12-02"	1	1	25	2	3	19	12	1	2283	2	9	6	4	7	1	4	7	1729
"2009-12-02"	1	1	25	2	3	20	13	1	2512	7	3	9	5	8	1	9	5	1556
"2009-12-02"	1	1	25	2	3	21	28	0	1632	4	1	9	3	5	7	1	9	1610
"2009-12-02"	1	1	25	2	3	22	6	0	2360	5	4	6	2	3	9	3	2	3839
"2009-12-02"	1	1	25	2	3	23	17	1	3095	1	4	3	8	7	9	1	4	1434
"2009-12-02"	1	1	25	2	3	24	9	0	1570	6	5	7	2	9	4	6	5	1651
"2009-12-02"	1	1	25	2	3	25	5	0	9816	8	4	5	6	9	2	5	6	8089
"2009-12-02"	1	1	25	2	3	26	15	0	3507	1	7	2	5	3	9	5	3	2465
"2009-12-02"	1	1	25	2	3	27	8	0	1300	6	4	3	1	9	8	4	5	2172
"2009-12-02"	1	1	25	2	3	28	17	0	1211	8	7	9	5	6	3	6	3	2289
"2009-12-02"	1	1	25	2	3	29	28	0	1177	4	1	5	6	9	3	6	9	1737
"2009-12-02"	1	1	25	2	3	30	30	1	6647	8	9	6	4	1	2	9	2	3816
"2009-12-02"	1	1	25	2	3	31	16	0	1507	3	8	7	4	9	1	9	1	1677
"2009-12-02"	1	1	25	2	3	32	9	0	3289	3	1	4	9	7	6	4	9	6259
"2009-12-02"	1	1	25	2	3	33	25	1	2717	3	5	2	7	8	9	3	5	1444
"2009-12-02"	1	1	25	2	3	34	12	0	1207	4	7	5	3	8	6	7	5	2164
"2009-12-02"	1	1	25	2	3	35	25	1	2177	4	5	3	2	7	9	7	9	4330
"2009-12-02"	1	1	25	2	3	36	20	0	1644	2	9	1	6	3	7	6	3	4489
"2009-12-02"	1	1	25	2	4	1	4	0	2906	8	9	3	2	6	7	3	7	2495
"2009-12-02"	1	1	25	2	4	2	10	1	4151	2	6	4	5	7	3	2	6	2158
"2009-12-02"	1	1	25	2	4	3	1	0	2291	4	7	3	1	8	9	7	3	1389
"2009-12-02"	1	1	25	2	4	4	16	0	3549	1	7	6	5	9	8	9	8	1907
"2009-12-02"	1	1	25	2	4	5	17	1	1613	2	4	8	6	5	9	8	5	3580
"2009-12-02"	1	1	25	2	4	6	11	1	3049	3	1	9	7	4	2	7	4	2532
"2009-12-02"	1	1	25	2	4	7	20	1	2516	5	8	3	9	6	2	5	8	1491
"2009-12-02"	1	1	25	2	4	8	3	1	2153	6	7	8	3	2	9	8	3	3069
"2009-12-02"	1	1	25	2	4	9	14	1	5111	7	1	3	6	8	2	6	8	2387
"2009-12-02"	1	1	25	2	4	10	9	1	2230	7	1	9	2	4	5	1	9	1777
"2009-12-02"	1	1	25	2	4	11	28	0	2384	9	1	5	2	8	6	9	1	1460
"2009-12-02"	1	1	25	2	4	12	20	1	2603	2	9	8	7	3	4	3	4	1378
"2009-12-02"	1	1	25	2	4	13	15	1	2096	3	9	4	2	5	7	9	4	2432
"2009-12-02"	1	1	25	2	4	14	23	0	2018	5	1	6	8	2	9	2	9	5147
"2009-12-02"	1	1	25	2	4	15	5	0	1635	7	5	6	1	9	2	7	1	1573
"2009-12-02"	1	1	25	2	4	16	12	1	1492	7	5	3	1	8	4	1	5	1708
"2009-12-02"	1	1	25	2	4	17	30	1	2101	9	8	3	4	1	5	3	1	6973
"2009-12-02"	1	1	25	2	4	18	13	0	5504	5	2	1	4	6	3	1	6	9841
"2009-12-02"	1	1	25	2	4	19	22	0	2934	8	6	2	9	5	1	5	3	12224
"2009-12-02"	1	1	25	2	4	20	16	0	2158	3	4	8	1	9	7	3	4	1589
"2009-12-02"	1	1	25	2	4	21	6	1	5022	7	3	9	4	5	1	3	9	2343
"2009-12-02"	1	1	25	2	4	22	28	0	1369	6	9	4	2	8	3	2	8	5126
"2009-12-02"	1	1	25	2	4	23	8	1	1810	2	1	7	3	4	9	3	9	1610
"2009-12-02"	1	1	25	2	4	24	7	1	2753	7	5	9	1	8	4	9	2	5358
"2009-12-02"	1	1	25	2	4	25	12	1	1240	7	9	6	5	2	3	7	9	2949
"2009-12-02"	1	1	25	2	4	26	25	1	1568	5	4	7	1	8	3	8	3	3805
"2009-12-02"	1	1	25	2	4	27	25	0	1175	6	3	7	2	1	9	3	7	3206
"2009-12-02"	1	1	25	2	4	28	1	1	4664	1	7	2	3	6	8	3	6	5144
"2009-12-02"	1	1	25	2	4	29	8	1	1935	2	4	5	9	1	3	2	4	2704
"2009-12-02"	1	1	25	2	4	30	31	1	1714	9	6	7	5	4	3	6	7	2429
"2009-12-02"	1	1	25	2	4	31	13	1	2192	9	6	4	5	8	1	4	8	2603
"2009-12-02"	1	1	25	2	4	32	4	0	1929	1	2	4	8	3	7	3	8	6479
"2009-12-02"	1	1	25	2	4	33	2	1	3155	8	4	7	6	2	5	2	5	2796
"2009-12-02"	1	1	25	2	4	34	17	0	2304	2	6	4	7	3	8	4	7	3732
"2009-12-02"	1	1	25	2	4	35	9	0	2927	8	1	2	9	7	5	1	5	3830
"2009-12-02"	1	1	25	2	4	36	5	0	2667	5	2	6	9	1	3	9	8	8288
"2009-12-02"	1	1	25	2	5	1	7	0	5326	3	1	2	4	8	9	3	1	1268
"2009-12-02"	1	1	25	2	5	2	25	0	2468	7	9	2	1	6	8	6	4	5088
"2009-12-02"	1	1	25	2	5	3	16	0	2813	2	9	7	3	6	8	2	1	5247
"2009-12-02"	1	1	25	2	5	4	9	1	3684	2	5	1	3	9	6	1	5	2445
"2009-12-02"	1	1	25	2	5	5	14	0	3001	3	6	7	8	2	1	8	2	1690
"2009-12-02"	1	1	25	2	5	6	13	1	4176	1	3	8	7	9	6	3	8	1981
"2009-12-02"	1	1	25	2	5	7	16	0	1839	4	1	2	5	7	3	4	1	1428
"2009-12-02"	1	1	25	2	5	8	22	0	2269	1	4	2	9	7	5	7	5	3249
"2009-12-02"	1	1	25	2	5	9	12	1	2050	2	8	9	6	5	3	9	9	2218
"2009-12-02"	1	1	25	2	5	10	6	0	3698	3	7	4	8	2	9	7	4	2158
"2009-12-02"	1	1	25	2	5	11	5	0	4475	3	5	9	6	4	7	6	4	13356
"2009-12-02"	1	1	25	2	5	12	11	1	2847	2	1	4	7	6	5	6	5	4767
"2009-12-02"	1	1	25	2	5	13	30	1	5891	6	2	4	8	3	5	8	3	2147
"2009-12-02"	1	1	25	2	5	14	17	1	1605	7	3	2	4	8	6	2	4	2866
"2009-12-02"	1	1	25	2	5	15	13	1	2597	9	4	6	3	8	1	9	4	1700
"2009-12-02"	1	1	25	2	5	16	28	0	2210	9	6	7	4	1	3	6	7	1548
"2009-12-02"	1	1	25	2	5	17	8	0	2093	6	3	2	1	5	7	1	5	2086
"2009-12-02"	1	1	25	2	5	18	17	1	2130	7	8	1	3	6	4	1	3	3051
"2009-12-02"	1	1	25	2	5	19	1	1	3036	7	9	1	3	2	5	2	3	1739
"2009-12-02"	1	1	25	2	5	20	28	0	2418	2	5	3	9	4	7	2	5	1572
"2009-12-02"	1	1	25	2	5	21	20	1	1834	3	8	5	1	6	4	8	5	2685
"2009-12-02"	1	1	25	2	5	22	5	0	4835	3	2	9	4	6	7	3	2	1446
"2009-12-02"	1	1	25	2	5	23	8	0	1873	2	1	3	4	5	6	4	5	1644
"2009-12-02"	1	1	25	2	5	24	1	1	1751	5	8	2	3	7	4	8	2	1435
"2009-12-02"	1	1	25	2	5	25	12	1	1475	7	6	1	2	3	4	3	4	1510
"2009-12-02"	1	1	25	2	5	26	15	1	2471	1	4	8	7	6	3	8	7	2170
"2009-12-02"	1	1	25	2	5	27	20	1	3499	1	4	2	6	9	8	4	2	1374
"2009-12-02"	1	1	25	2	5	28	4	1	1723	9	1	7	5	3	4	7	5	1497
"2009-12-02"	1	1	25	2	5	29	9	1	2055	6	9	2	7	3	1	6	9	1352
"2009-12-02"	1	1	25	2	5	30	2	1	1593	8	3	6	4	1	5	1	5	2155
"2009-12-02"	1	1	25	2	5	31	10	1	4040	4	3	5	2	8	6	2	8	1618
"2009-12-02"	1	1	25	2	5	32	3	0	6559	5	1	9	8	7	2	5	8	1502
"2009-12-02"	1	1	25	2	5	33	31	1	3086	7	6	1	4	8	3	4	8	1895
"2009-12-02"	1	1	25	2	5	34	25	0	1989	5	8	9	1	7	4	8	1	7417
"2009-12-02"	1	1	25	2	5	35	4	1	3084	7	8	6	4	9	3	9	3	3099
"2009-12-02"	1	1	25	2	5	36	23	0	2367	5	6	3	2	8	4	3	2	2022
"2009-12-02"	1	1	25	2	6	1	3	1	2350	3	2	4	1	5	6	1	9	2474
"2009-12-02"	1	1	25	2	6	2	23	0	2071	2	6	8	9	1	5	2	6	1643
"2009-12-02"	1	1	25	2	6	3	7	0	3511	6	2	9	7	1	3	2	9	2085
"2009-12-02"	1	1	25	2	6	4	12	1	1697	2	7	1	3	4	5	1	3	5177
"2009-12-02"	1	1	25	2	6	5	30	1	2576	3	9	4	5	8	1	8	1	2106
"2009-12-02"	1	1	25	2	6	6	28	0	1772	4	1	3	2	6	5	6	5	2269
"2009-12-02"	1	1	25	2	6	7	5	0	2983	7	9	3	4	2	1	9	3	1996
"2009-12-02"	1	1	25	2	6	8	17	1	1968	4	6	9	5	2	1	9	7	4726
"2009-12-02"	1	1	25	2	6	9	13	0	2546	5	9	4	7	8	3	7	8	1598
"2009-12-02"	1	1	25	2	6	10	9	1	1658	2	4	6	8	5	7	2	4	25065
"2009-12-02"	1	1	25	2	6	11	31	1	2524	7	2	6	1	9	8	7	6	2067
"2009-12-02"	1	1	25	2	6	12	1	1	2173	5	2	1	4	8	6	1	2	1222
"2009-12-02"	1	1	25	2	6	13	5	0	1660	7	8	1	3	2	4	2	4	2404
"2009-12-02"	1	1	25	2	6	14	20	1	1992	7	4	5	1	3	9	4	5	2524
"2009-12-02"	1	1	25	2	6	15	14	1	1897	1	6	8	9	2	4	9	2	3002
"2009-12-02"	1	1	25	2	6	16	12	1	1552	3	1	9	4	8	6	1	9	2923
"2009-12-02"	1	1	25	2	6	17	8	0	3337	6	7	1	5	3	4	6	7	1724
"2009-12-02"	1	1	25	2	6	18	1	1	1695	2	7	8	9	1	3	9	1	4783
"2009-12-02"	1	1	25	2	6	19	11	1	2678	5	3	9	4	6	7	9	4	4101
"2009-12-02"	1	1	25	2	6	20	8	0	1979	7	3	6	2	1	9	1	9	1939
"2009-12-02"	1	1	25	2	6	21	6	0	5826	9	5	2	7	3	4	9	5	1684
"2009-12-02"	1	1	25	2	6	22	4	1	2824	4	8	7	9	1	2	7	9	1997
"2009-12-02"	1	1	25	2	6	23	2	1	4345	3	6	8	7	9	4	9	2	7785
"2009-12-02"	1	1	25	2	6	24	17	1	1727	4	8	5	7	3	6	7	6	2669
"2009-12-02"	1	1	25	2	6	25	25	0	1447	1	8	7	4	2	5	8	4	1980
"2009-12-02"	1	1	25	2	6	26	10	0	2611	6	1	4	9	5	8	4	9	3429
"2009-12-02"	1	1	25	2	6	27	20	1	1850	8	6	1	4	7	5	4	7	1930
"2009-12-02"	1	1	25	2	6	28	4	1	1569	5	4	3	1	8	9	8	9	2271
"2009-12-02"	1	1	25	2	6	29	9	1	2689	6	4	2	1	8	9	6	4	1866
"2009-12-02"	1	1	25	2	6	30	16	0	2059	1	5	7	2	3	4	5	7	1772
"2009-12-02"	1	1	25	2	6	31	15	1	3579	7	3	6	2	8	9	8	9	4847
"2009-12-02"	1	1	25	2	6	32	28	0	2083	5	9	8	2	6	4	8	2	1816
"2009-12-02"	1	1	25	2	6	33	22	1	2095	8	5	7	9	2	3	8	5	2112
"2009-12-02"	1	1	25	2	6	34	13	0	3378	3	5	6	2	4	7	2	4	1645
"2009-12-02"	1	1	25	2	6	35	16	0	2817	9	7	2	4	6	5	7	2	2163
"2009-12-02"	1	1	25	2	6	36	25	0	1999	4	3	5	6	1	9	4	3	1470
"2009-12-02"	1	1	25	2	7	1	28	0	2165	7	6	5	9	4	3	9	4	2300
"2009-12-02"	1	1	25	2	7	2	16	0	3275	7	2	9	3	1	5	2	9	2572
"2009-12-02"	1	1	25	2	7	3	8	0	2924	9	4	8	5	3	6	3	6	2380
"2009-12-02"	1	1	25	2	7	4	30	1	8827	6	3	5	7	9	8	5	9	4109
"2009-12-02"	1	1	25	2	7	5	9	1	2170	4	3	5	8	7	1	5	8	1731
"2009-12-02"	1	1	25	2	7	6	1	1	3594	9	1	3	7	4	5	7	4	1555
"2009-12-02"	1	1	25	2	7	7	17	1	6148	8	6	1	3	5	2	5	1	2383
"2009-12-02"	1	1	25	2	7	8	25	0	1416	3	6	5	2	7	1	6	5	2160
"2009-12-02"	1	1	25	2	7	9	31	1	3269	1	8	9	6	5	3	1	8	1507
"2009-12-02"	1	1	25	2	7	10	7	1	5332	2	4	9	1	8	7	1	3	4234
"2009-12-02"	1	1	25	2	7	11	20	1	1723	3	8	7	2	5	4	3	8	1599
"2009-12-02"	1	1	25	2	7	12	20	1	2939	6	2	7	3	5	9	5	8	6062
"2009-12-02"	1	1	25	2	7	13	4	1	2255	2	1	5	3	6	9	1	2	1304
"2009-12-02"	1	1	25	2	7	14	22	0	2856	2	5	1	4	3	8	1	5	2763
"2009-12-02"	1	1	25	2	7	15	6	1	3336	9	2	7	4	5	1	7	4	3259
"2009-12-02"	1	1	25	2	7	16	28	0	2175	2	5	1	8	9	6	9	8	6992
"2009-12-02"	1	1	25	2	7	17	12	1	2381	2	3	1	6	8	7	3	9	5031
"2009-12-02"	1	1	25	2	7	18	11	0	6048	2	5	6	1	9	8	2	6	4344
"2009-12-02"	1	1	25	2	7	19	10	0	2421	3	2	6	7	5	8	7	5	3295
"2009-12-02"	1	1	25	2	7	20	8	0	1816	8	9	7	1	4	5	8	9	1537
"2009-12-02"	1	1	25	2	7	21	4	1	1887	5	8	1	9	2	6	1	2	2277
"2009-12-02"	1	1	25	2	7	22	1	1	1905	3	5	1	4	9	8	5	1	1701
"2009-12-02"	1	1	25	2	7	23	5	0	1731	9	1	4	8	7	6	8	7	3308
"2009-12-02"	1	1	25	2	7	24	2	0	2712	7	2	6	1	4	3	4	3	1948
"2009-12-02"	1	1	25	2	7	25	23	1	1774	2	8	1	7	3	9	7	3	1919
"2009-12-02"	1	1	25	2	7	26	15	1	4778	3	8	2	7	6	5	3	8	1346
"2009-12-02"	1	1	25	2	7	27	13	0	2043	5	1	4	7	3	6	3	6	1513
"2009-12-02"	1	1	25	2	7	28	3	1	2066	6	5	2	1	4	9	2	5	9390
"2009-12-02"	1	1	25	2	7	29	25	0	1599	9	4	8	3	7	6	4	3	1677
"2009-12-02"	1	1	25	2	7	30	17	1	1808	7	8	4	1	9	6	4	1	1373
"2009-12-02"	1	1	25	2	7	31	5	0	1827	4	2	9	6	5	1	5	1	2231
"2009-12-02"	1	1	25	2	7	32	12	1	1585	3	7	4	5	8	9	7	4	1540
"2009-12-02"	1	1	25	2	7	33	16	0	3090	3	7	4	9	5	2	9	5	1741
"2009-12-02"	1	1	25	2	7	34	14	1	1803	9	3	7	8	2	5	9	7	1577
"2009-12-02"	1	1	25	2	7	35	13	0	3559	5	7	2	4	1	6	2	9	4551
"2009-12-02"	1	1	25	2	7	36	9	1	1768	3	4	5	2	9	6	9	6	2142
"2009-12-02"	1	1	25	3	1	1	1	1	2587	2	5	8	3	7	6	3	7	3687
"2009-12-02"	1	1	25	3	1	2	4	1	2889	3	7	2	5	6	9	3	7	2332
"2009-12-02"	1	1	25	3	1	3	5	0	1939	8	3	1	9	4	7	3	1	1276
"2009-12-02"	1	1	25	3	1	4	8	0	2943	3	9	7	6	1	2	1	2	3932
"2009-12-02"	1	1	25	3	1	5	9	1	2742	6	3	5	2	4	9	6	3	1939
"2009-12-02"	1	1	25	3	1	6	12	1	1770	2	7	4	9	5	6	7	4	1658
"2009-12-02"	1	1	25	3	1	7	13	0	1673	5	7	4	3	1	2	4	3	2876
"2009-12-02"	1	1	25	3	1	8	16	0	2026	1	8	4	9	7	2	9	7	2037
"2009-12-02"	1	1	25	3	1	9	21	0	6721	3	4	1	8	9	6	8	1	3466
"2009-12-02"	1	1	25	3	1	10	24	0	2967	5	4	3	7	9	2	9	2	1885
"2009-12-02"	1	1	25	3	1	11	17	1	3659	1	4	5	2	9	6	5	2	2022
"2009-12-02"	1	1	25	3	1	12	20	0	8120	1	9	4	3	2	8	9	3	4924
"2009-12-02"	1	1	25	3	1	13	25	0	1406	7	5	8	6	4	9	7	5	2532
"2009-12-02"	1	1	25	3	1	14	28	0	1924	5	4	6	2	3	9	4	3	2323
"2009-12-02"	1	1	25	3	1	15	29	0	4728	7	2	6	1	9	3	7	2	1301
"2009-12-02"	1	1	25	3	1	16	32	0	9235	6	8	3	7	5	4	5	4	3693
"2009-12-02"	1	1	25	3	1	17	2	0	4823	7	5	1	6	8	9	1	6	1800
"2009-12-02"	1	1	25	3	1	18	6	1	5636	8	4	3	6	5	7	6	3	5120
"2009-12-02"	1	1	25	3	1	19	11	0	4210	5	7	2	9	4	8	7	2	1407
"2009-12-02"	1	1	25	3	1	20	15	1	3690	5	4	7	8	3	2	8	3	2245
"2009-12-02"	1	1	25	3	1	21	23	1	2266	8	4	6	2	5	1	5	2	5878
"2009-12-02"	1	1	25	3	1	22	18	0	4946	2	4	3	6	9	7	3	6	1946
"2009-12-02"	1	1	25	3	1	23	26	1	2892	1	7	2	6	5	9	1	7	2510
"2009-12-02"	1	1	25	3	1	24	31	1	8832	2	5	3	1	4	7	3	1	2954
"2009-12-02"	1	1	25	3	1	25	3	0	6032	7	4	6	1	2	8	4	6	1830
"2009-12-02"	1	1	25	3	1	26	7	1	16270	5	7	2	1	4	8	4	8	3144
"2009-12-02"	1	1	25	3	1	27	10	0	2900	1	9	3	7	6	2	7	6	3558
"2009-12-02"	1	1	25	3	1	28	14	1	6382	3	8	9	5	2	1	3	8	2009
"2009-12-02"	1	1	25	3	1	29	22	1	4192	6	5	4	2	9	1	4	5	1754
"2009-12-02"	1	1	25	3	1	30	19	0	6155	4	8	9	1	5	7	4	8	1960
"2009-12-02"	1	1	25	3	1	31	27	1	2605	2	6	9	8	7	5	6	9	27787
"2009-12-02"	1	1	25	3	1	32	30	1	3642	9	5	8	4	1	6	1	6	2147
"2009-12-02"	1	1	25	3	1	33	1	1	2101	3	5	9	2	1	6	2	6	1590
"2009-12-02"	1	1	25	3	1	34	4	1	2039	2	5	4	7	8	3	2	5	2230
"2009-12-02"	1	1	25	3	1	35	5	0	2544	2	1	6	9	5	3	9	6	2228
"2009-12-02"	1	1	25	3	1	36	8	0	4965	8	9	1	2	6	4	9	1	2340
"2009-12-02"	1	1	25	3	1	37	9	1	4699	6	9	2	4	5	1	5	1	2428
"2009-12-02"	1	1	25	3	1	38	12	1	1622	7	8	3	4	2	1	3	4	1502
"2009-12-02"	1	1	25	3	1	39	13	0	1759	7	6	3	1	5	2	1	5	2445
"2009-12-02"	1	1	25	3	1	40	16	0	2322	3	5	9	1	6	7	9	1	4744
"2009-12-02"	1	1	25	3	1	41	21	0	1711	2	9	7	4	1	8	1	8	1794
"2009-12-02"	1	1	25	3	1	42	24	0	2139	4	7	5	6	2	8	4	7	1804
"2009-12-02"	1	1	25	3	1	43	17	1	1880	9	7	1	3	8	6	7	1	2678
"2009-12-02"	1	1	25	3	1	44	20	1	2732	8	7	6	9	3	2	6	9	5430
"2009-12-02"	1	1	25	3	1	45	25	0	1240	4	1	3	7	8	2	7	8	1620
"2009-12-02"	1	1	25	3	1	46	28	0	2411	6	7	1	5	9	2	6	7	1764
"2009-12-02"	1	1	25	3	1	47	29	0	4640	2	5	3	7	9	8	5	3	1539
"2009-12-02"	1	1	25	3	1	48	32	0	2690	9	3	5	2	8	1	8	1	4060
"2009-02-15"	1	-1	27	1	1	1	-1	-1	-1	6	5	1	2	9	4	1	2	2090
"2009-02-15"	1	-1	27	1	1	2	-1	-1	-1	3	1	5	8	4	6	3	4	6075
"2009-02-15"	1	-1	27	1	1	3	-1	-1	-1	1	3	7	8	5	9	3	5	1697
"2009-02-15"	1	-1	27	1	1	4	-1	-1	-1	4	2	5	9	8	7	8	7	1342
"2009-02-15"	1	-1	27	1	1	5	-1	-1	-1	2	6	8	3	7	9	3	8	2314
"2009-02-15"	1	-1	27	1	1	6	-1	-1	-1	5	8	1	7	3	2	3	2	2307
"2009-02-15"	1	-1	27	1	1	7	-1	-1	-1	5	3	1	4	2	8	1	4	2274
"2009-02-15"	1	-1	27	1	1	8	-1	-1	-1	7	3	9	8	5	1	8	1	1638
"2009-02-15"	1	-1	27	1	1	9	-1	-1	-1	4	7	3	2	6	1	7	3	2502
"2009-02-15"	1	-1	27	1	1	10	-1	-1	-1	6	7	9	1	8	3	6	7	1526
"2009-02-15"	1	1	27	2	1	1	3	0	4129	9	4	5	8	7	1	9	3	3013
"2009-02-15"	1	1	27	2	1	2	17	1	2006	7	4	2	9	1	5	4	8	3052
"2009-02-15"	1	1	27	2	1	3	20	0	1174	9	8	6	1	3	5	6	1	2109
"2009-02-15"	1	1	27	2	1	4	30	0	1327	8	6	7	1	5	2	1	2	3227
"2009-02-15"	1	1	27	2	1	5	4	1	2191	1	8	3	4	5	9	5	9	3531
"2009-02-15"	1	1	27	2	1	6	9	0	1813	1	4	2	9	8	7	9	8	2198
"2009-02-15"	1	1	27	2	1	7	25	0	1787	5	4	1	8	6	3	1	8	4094
"2009-02-15"	1	1	27	2	1	8	31	1	2904	5	3	7	6	2	4	3	7	4141
"2009-02-15"	1	1	27	2	1	9	5	0	1195	4	5	7	3	1	9	4	7	4965
"2009-02-15"	1	1	27	2	1	10	15	0	1577	9	8	6	3	2	7	2	3	4809
"2009-02-15"	1	1	27	2	1	11	11	1	3077	2	6	7	9	8	4	7	2	2797
"2009-02-15"	1	1	27	2	1	12	9	0	2171	2	8	1	5	3	4	8	3	1852
"2009-02-15"	1	1	27	2	1	13	23	1	2035	8	3	2	6	7	1	7	1	3134
"2009-02-15"	1	1	27	2	1	14	22	0	3264	4	5	2	9	6	1	9	8	2564
"2009-02-15"	1	1	27	2	1	15	5	0	2434	5	1	9	6	3	7	5	1	2350
"2009-02-15"	1	1	27	2	1	16	7	1	1521	3	7	5	9	6	2	9	6	1454
"2009-02-15"	1	1	27	2	1	17	4	0	2037	4	6	1	5	7	8	7	8	1419
"2009-02-15"	1	1	27	2	1	18	6	0	2480	7	6	8	9	2	3	7	8	2895
"2009-02-15"	1	1	27	2	1	19	8	1	2336	6	4	5	2	8	7	5	8	3641
"2009-02-15"	1	1	27	2	1	20	20	1	2409	7	4	1	5	6	2	4	8	1707
"2009-02-15"	1	1	27	2	1	21	25	0	1404	2	1	7	3	5	8	5	8	2057
"2009-02-15"	1	1	27	2	1	22	14	0	2431	6	2	4	7	9	1	2	9	2484
"2009-02-15"	1	1	27	2	1	23	17	0	1409	5	9	4	7	2	3	7	4	2342
"2009-02-15"	1	1	27	2	1	24	2	0	4225	7	2	8	9	3	6	8	7	3336
"2009-02-15"	1	1	27	2	1	25	28	0	1178	2	9	6	1	3	4	2	3	6112
"2009-02-15"	1	1	27	2	1	26	1	0	1540	1	5	4	9	6	3	9	6	3036
"2009-02-15"	1	1	27	2	1	27	8	1	2339	7	3	6	9	2	4	2	3	6732
"2009-02-15"	1	1	27	2	1	28	12	0	1035	3	5	6	7	8	4	5	8	3493
"2009-02-15"	1	1	27	2	1	29	16	0	991	5	3	6	4	1	9	5	4	4928
"2009-02-15"	1	1	27	2	1	30	13	0	1149	2	5	7	4	9	6	7	2	3791
"2009-02-15"	1	1	27	2	1	31	10	1	1708	3	5	4	6	2	9	2	9	2383
"2009-02-15"	1	1	27	2	1	32	1	0	2409	9	4	7	8	6	3	9	8	3370
"2009-02-15"	1	1	27	2	1	33	12	1	2076	6	1	2	4	5	9	2	8	2362
"2009-02-15"	1	1	27	2	1	34	13	0	2207	6	2	8	7	4	9	2	8	3118
"2009-02-15"	1	1	27	2	1	35	28	0	2292	2	8	9	1	5	4	1	8	5085
"2009-02-15"	1	1	27	2	1	36	16	0	1594	6	3	1	5	7	4	3	9	3837
"2009-02-15"	1	1	27	2	2	1	7	1	2356	6	9	8	5	3	1	3	9	2611
"2009-02-15"	1	1	27	2	2	2	8	0	1914	4	5	1	2	7	8	2	1	2582
"2009-02-15"	1	1	27	2	2	3	28	0	1112	7	2	3	4	5	9	3	5	3418
"2009-02-15"	1	1	27	2	2	4	22	1	3247	3	2	9	7	1	8	3	9	5847
"2009-02-15"	1	1	27	2	2	5	14	1	2556	2	6	9	1	8	7	6	2	1668
"2009-02-15"	1	1	27	2	2	6	9	0	1693	5	8	9	4	1	7	4	8	4381
"2009-02-15"	1	1	27	2	2	7	13	0	1259	1	4	6	9	3	2	3	9	2539
"2009-02-15"	1	1	27	2	2	8	6	0	3339	2	5	7	1	4	8	2	9	1877
"2009-02-15"	1	1	27	2	2	9	12	1	1554	7	5	3	4	1	6	3	5	3141
"2009-02-15"	1	1	27	2	2	10	4	0	1024	1	4	5	6	8	3	5	8	2482
"2009-02-15"	1	1	27	2	2	11	3	0	1824	2	9	6	1	8	3	9	2	3475
"2009-02-15"	1	1	27	2	2	12	31	1	2465	9	7	3	2	1	4	2	8	1982
"2009-02-15"	1	1	27	2	2	13	2	0	1911	4	8	9	7	3	2	3	2	5171
"2009-02-15"	1	1	27	2	2	14	4	1	1952	6	9	2	7	4	8	6	9	3811
"2009-02-15"	1	1	27	2	2	15	8	0	1350	9	4	8	2	1	7	9	4	2479
"2009-02-15"	1	1	27	2	2	16	16	0	3444	3	2	8	1	9	7	1	8	6149
"2009-02-15"	1	1	27	2	2	17	20	0	1353	2	5	8	9	3	7	8	7	2524
"2009-02-15"	1	1	27	2	2	18	9	1	1673	1	6	2	4	7	9	7	9	4915
"2009-02-15"	1	1	27	2	2	19	1	0	1285	6	8	5	1	3	9	8	3	5002
"2009-02-15"	1	1	27	2	2	20	13	0	1148	8	1	2	4	6	5	2	8	6918
"2009-02-15"	1	1	27	2	2	21	5	1	2099	9	8	6	5	3	7	9	8	4955
"2009-02-15"	1	1	27	2	2	22	30	0	2773	5	6	8	9	1	4	9	8	2575
"2009-02-15"	1	1	27	2	2	23	5	1	2215	6	8	3	2	7	4	8	7	1897
"2009-02-15"	1	1	27	2	2	24	11	1	1960	5	6	7	9	1	4	1	4	5198
"2009-02-15"	1	1	27	2	2	25	12	0	1687	2	1	5	6	7	9	1	9	6933
"2009-02-15"	1	1	27	2	2	26	20	0	2287	3	5	8	6	1	7	6	7	3646
"2009-02-15"	1	1	27	2	2	27	10	0	1920	4	5	3	6	2	7	4	8	6509
"2009-02-15"	1	1	27	2	2	28	15	0	1362	2	1	3	7	5	9	3	7	6799
"2009-02-15"	1	1	27	2	2	29	16	1	2935	8	2	4	3	5	1	5	1	2137
"2009-02-15"	1	1	27	2	2	30	17	0	1017	1	6	5	9	2	3	5	3	4079
"2009-02-15"	1	1	27	2	2	31	25	0	1079	5	8	2	6	4	1	6	9	3948
"2009-02-15"	1	1	27	2	2	32	25	0	1809	4	5	6	7	9	8	9	8	1319
"2009-02-15"	1	1	27	2	2	33	17	1	3002	7	2	8	3	1	5	7	6	2426
"2009-02-15"	1	1	27	2	2	34	28	0	1301	9	1	8	3	4	2	1	4	3572
"2009-02-15"	1	1	27	2	2	35	23	1	3406	3	9	5	7	8	1	5	7	4782
"2009-02-15"	1	1	27	2	2	36	1	1	3637	4	6	5	7	9	2	4	9	2574
"2009-02-15"	1	1	27	2	3	1	15	1	2210	6	1	5	9	4	3	4	9	3787
"2009-02-15"	1	1	27	2	3	2	25	0	1200	5	8	9	4	6	3	8	3	5213
"2009-02-15"	1	1	27	2	3	3	28	0	994	4	2	1	5	7	3	5	8	1803
"2009-02-15"	1	1	27	2	3	4	12	1	2520	5	1	7	6	2	4	5	2	3950
"2009-02-15"	1	1	27	2	3	5	22	1	1987	6	1	2	7	8	9	1	7	4807
"2009-02-15"	1	1	27	2	3	6	28	0	715	2	5	8	7	1	3	7	2	3036
"2009-02-15"	1	1	27	2	3	7	25	0	595	6	7	4	9	8	3	8	3	1236
"2009-02-15"	1	1	27	2	3	8	17	0	804	7	6	2	3	5	9	2	7	4439
"2009-02-15"	1	1	27	2	3	9	8	0	1624	6	5	4	1	2	9	5	7	2387
"2009-02-15"	1	1	27	2	3	10	8	0	1902	9	4	1	2	5	3	5	3	3398
"2009-02-15"	1	1	27	2	3	11	31	0	2013	9	4	6	3	2	7	3	2	3517
"2009-02-15"	1	1	27	2	3	12	1	1	1949	4	1	5	8	6	3	5	8	3288
"2009-02-15"	1	1	27	2	3	13	17	0	962	3	6	9	5	2	7	3	7	3214
"2009-02-15"	1	1	27	2	3	14	7	0	1671	8	9	2	5	7	4	2	9	4170
"2009-02-15"	1	1	27	2	3	15	13	0	1156	3	1	5	4	2	9	3	6	7270
"2009-02-15"	1	1	27	2	3	16	4	0	1084	9	3	4	1	8	5	3	8	3897
"2009-02-15"	1	1	27	2	3	17	4	0	924	3	8	2	1	7	5	7	5	3080
"2009-02-15"	1	1	27	2	3	18	3	0	2502	6	8	2	7	4	1	7	1	4266
"2009-02-15"	1	1	27	2	3	19	5	0	1528	7	6	9	4	3	5	3	5	4357
"2009-02-15"	1	1	27	2	3	20	23	0	1766	7	6	4	9	2	3	9	7	3028
"2009-02-15"	1	1	27	2	3	21	16	0	1119	2	1	3	4	9	6	3	9	3411
"2009-02-15"	1	1	27	2	3	22	10	1	4261	5	4	1	8	3	6	5	6	2948
"2009-02-15"	1	1	27	2	3	23	20	0	1168	3	6	9	8	5	4	6	8	2253
"2009-02-15"	1	1	27	2	3	24	9	0	3388	3	9	6	7	2	8	9	8	1658
"2009-02-15"	1	1	27	2	3	25	2	0	3568	8	7	9	1	3	2	8	7	5052
"2009-02-15"	1	1	27	2	3	26	20	1	1328	3	9	1	5	6	4	1	2	3933
"2009-02-15"	1	1	27	2	3	27	9	1	2248	1	7	4	6	5	2	6	9	3111
"2009-02-15"	1	1	27	2	3	28	6	0	1403	7	3	1	6	9	5	9	8	2903
"2009-02-15"	1	1	27	2	3	29	13	0	730	2	7	4	9	5	3	4	5	2630
"2009-02-15"	1	1	27	2	3	30	1	1	1385	7	9	2	4	5	6	4	2	2516
"2009-02-15"	1	1	27	2	3	31	12	0	2385	5	3	4	9	2	7	2	7	1718
"2009-02-15"	1	1	27	2	3	32	11	1	2057	5	9	2	3	7	8	5	2	3554
"2009-02-15"	1	1	27	2	3	33	16	0	777	4	6	8	2	7	9	6	7	1928
"2009-02-15"	1	1	27	2	3	34	14	0	991	3	8	5	7	6	9	7	9	3537
"2009-02-15"	1	1	27	2	3	35	30	1	3203	4	8	5	2	3	9	4	8	2819
"2009-02-15"	1	1	27	2	3	36	5	0	2747	2	8	7	9	4	1	7	9	2487
"2009-02-15"	1	1	27	2	4	1	28	0	1261	4	3	2	7	8	6	8	6	973
"2009-02-15"	1	1	27	2	4	2	12	1	1570	6	9	5	1	3	2	9	8	1539
"2009-02-15"	1	1	27	2	4	3	17	0	1017	7	9	6	2	5	4	2	8	1751
"2009-02-15"	1	1	27	2	4	4	13	0	921	5	4	6	9	8	1	6	8	2085
"2009-02-15"	1	1	27	2	4	5	8	0	1354	2	5	7	1	8	4	5	6	1796
"2009-02-15"	1	1	27	2	4	6	4	0	4312	4	5	2	6	9	1	9	8	1899
"2009-02-15"	1	1	27	2	4	7	30	1	1570	3	6	1	5	8	4	3	8	2230
"2009-02-15"	1	1	27	2	4	8	11	1	1152	1	4	2	3	9	5	4	8	2819
"2009-02-15"	1	1	27	2	4	9	12	0	1075	1	5	8	3	9	2	9	8	2277
"2009-02-15"	1	1	27	2	4	10	13	0	1090	5	7	3	1	6	4	1	2	3215
"2009-02-15"	1	1	27	2	4	11	2	0	2016	7	9	6	4	3	1	6	4	1688
"2009-02-15"	1	1	27	2	4	12	25	0	751	8	5	6	1	9	7	8	7	2313
"2009-02-15"	1	1	27	2	4	13	5	1	4763	8	4	1	6	5	3	6	8	2438
"2009-02-15"	1	1	27	2	4	14	9	1	3995	8	3	9	7	1	2	9	4	5268
"2009-02-15"	1	1	27	2	4	15	6	1	2412	9	1	5	3	2	8	2	5	2093
"2009-02-15"	1	1	27	2	4	16	15	1	1973	7	4	8	6	3	2	4	8	4173
"2009-02-15"	1	1	27	2	4	17	3	1	2057	3	4	5	6	9	2	3	2	3249
"2009-02-15"	1	1	27	2	4	18	10	1	6370	9	2	7	5	6	8	5	9	3227
"2009-02-15"	1	1	27	2	4	19	22	0	2991	7	8	4	1	3	6	4	9	2468
"2009-02-15"	1	1	27	2	4	20	9	1	2015	4	7	3	2	6	9	7	8	1472
"2009-02-15"	1	1	27	2	4	21	5	0	3384	9	4	5	2	8	6	8	2	1566
"2009-02-15"	1	1	27	2	4	22	7	1	1625	1	4	6	3	7	2	1	8	3188
"2009-02-15"	1	1	27	2	4	23	25	0	1296	2	8	5	9	6	7	6	7	3168
"2009-02-15"	1	1	27	2	4	24	23	0	2297	5	3	2	9	6	4	3	8	2299
"2009-02-15"	1	1	27	2	4	25	31	0	2809	4	9	7	8	2	3	8	3	1972
"2009-02-15"	1	1	27	2	4	26	8	0	2475	7	3	9	4	2	1	7	1	2506
"2009-02-15"	1	1	27	2	4	27	16	0	1317	7	4	3	8	5	1	3	8	3927
"2009-02-15"	1	1	27	2	4	28	1	1	1906	1	3	7	8	2	4	2	4	2268
"2009-02-15"	1	1	27	2	4	29	20	1	2287	8	2	5	7	3	6	8	3	1821
"2009-02-15"	1	1	27	2	4	30	16	0	1247	1	9	3	7	4	6	3	7	3172
"2009-02-15"	1	1	27	2	4	31	14	1	2117	3	6	5	2	9	4	6	6	2268
"2009-02-15"	1	1	27	2	4	32	28	0	1261	8	6	1	9	2	7	9	7	1509
"2009-02-15"	1	1	27	2	4	33	20	1	4758	1	2	8	4	5	9	2	6	1577
"2009-02-15"	1	1	27	2	4	34	4	0	1295	2	7	9	4	8	5	2	4	3063
"2009-02-15"	1	1	27	2	4	35	17	0	1347	2	4	8	3	9	5	3	6	2829
"2009-02-15"	1	1	27	2	4	36	1	1	1959	1	4	5	9	7	6	5	8	2118
"2009-02-15"	1	1	27	2	5	1	17	0	1332	4	6	1	8	7	5	7	8	3588
"2009-02-15"	1	1	27	2	5	2	12	0	4249	6	9	1	3	7	2	6	5	3749
"2009-02-15"	1	1	27	2	5	3	1	1	1945	6	4	3	2	8	1	2	6	2461
"2009-02-15"	1	1	27	2	5	4	5	0	2672	5	1	7	8	2	6	2	8	1596
"2009-02-15"	1	1	27	2	5	5	1	1	2912	3	5	4	9	6	1	5	8	1381
"2009-02-15"	1	1	27	2	5	6	13	0	1708	1	6	7	4	8	5	7	6	4534
"2009-02-15"	1	1	27	2	5	7	16	0	1193	8	4	2	7	6	1	7	5	3819
"2009-02-15"	1	1	27	2	5	8	12	0	3849	1	9	6	7	5	4	9	7	2677
"2009-02-15"	1	1	27	2	5	9	30	1	2899	4	9	6	7	8	2	6	7	1605
"2009-02-15"	1	1	27	2	5	10	3	0	1848	3	8	5	6	9	4	3	4	1590
"2009-02-15"	1	1	27	2	5	11	16	0	1335	1	2	3	7	5	8	5	7	1607
"2009-02-15"	1	1	27	2	5	12	4	1	2547	1	4	3	9	2	5	2	8	1910
"2009-02-15"	1	1	27	2	5	13	9	1	4953	3	2	7	4	9	5	4	6	1779
"2009-02-15"	1	1	27	2	5	14	22	1	3082	9	6	7	2	8	1	7	6	2818
"2009-02-15"	1	1	27	2	5	15	20	1	2603	2	1	8	6	5	3	2	6	1706
"2009-02-15"	1	1	27	2	5	16	15	1	3372	3	6	1	4	2	9	6	5	1335
"2009-02-15"	1	1	27	2	5	17	23	0	2516	4	3	8	7	2	9	7	5	1763
"2009-02-15"	1	1	27	2	5	18	11	0	3383	6	2	7	5	1	9	6	5	1293
"2009-02-15"	1	1	27	2	5	19	28	0	1163	4	8	7	5	2	3	2	5	272
"2009-02-15"	1	1	27	2	5	20	2	0	1495	6	8	1	7	5	4	8	5	311
"2009-02-15"	1	1	27	2	5	21	17	0	1326	7	8	6	4	2	3	6	6	514
"2009-02-15"	1	1	27	2	5	22	9	1	1905	3	9	8	6	1	7	1	6	701
"2009-02-15"	1	1	27	2	5	23	28	0	1114	3	9	8	2	4	7	3	6	572
"2009-02-15"	1	1	27	2	5	24	13	0	1400	9	6	3	5	8	2	5	6	1677
"2009-02-15"	1	1	27	2	5	25	5	0	1905	4	8	6	5	7	9	8	7	477
"2009-02-15"	1	1	27	2	5	26	6	1	2827	4	1	2	3	5	6	2	6	464
"2009-02-15"	1	1	27	2	5	27	4	1	1775	2	5	4	1	6	9	6	6	384
"2009-02-15"	1	1	27	2	5	28	25	0	1015	6	3	8	9	5	1	9	7	734
"2009-02-15"	1	1	27	2	5	29	31	1	2003	1	8	6	3	7	5	6	7	633
"2009-02-15"	1	1	27	2	5	30	25	0	1057	2	5	8	6	7	1	2	7	64
"2009-02-15"	1	1	27	2	5	31	7	1	1643	8	4	1	7	2	3	4	6	264
"2009-02-15"	1	1	27	2	5	32	14	1	2743	2	1	6	4	5	3	1	6	164
"2009-02-15"	1	1	27	2	5	33	8	0	1725	2	5	1	7	6	8	2	7	755
"2009-02-15"	1	1	27	2	5	34	8	0	1115	7	2	6	4	1	5	4	7	629
"2009-02-15"	1	1	27	2	5	35	10	0	1964	3	6	1	8	9	5	9	7	578
"2009-02-15"	1	1	27	2	5	36	20	1	2526	3	8	9	7	4	6	9	6	101
"2009-02-15"	1	1	27	2	6	1	15	1	1783	2	4	6	3	8	1	4	6	338
"2009-02-15"	1	1	27	2	6	2	9	1	2142	9	4	7	3	1	6	1	7	2071
"2009-02-15"	1	1	27	2	6	3	1	1	1473	6	1	5	4	7	8	4	7	628
"2009-02-15"	1	1	27	2	6	4	17	1	1234	5	4	8	1	6	2	8	7	660
"2009-02-15"	1	1	27	2	6	5	3	0	3233	2	5	8	3	4	7	2	7	1887
"2009-02-15"	1	1	27	2	6	6	11	0	2443	1	4	6	3	5	7	6	7	3754
"2009-02-15"	1	1	27	2	6	7	16	0	4706	1	9	8	3	5	6	9	7	874
"2009-02-15"	1	1	27	2	6	8	13	0	1289	8	4	7	6	9	5	6	7	590
"2009-02-15"	1	1	27	2	6	9	25	0	1101	8	9	5	1	3	6	3	6	628
"2009-02-15"	1	1	27	2	6	10	4	0	1516	6	1	9	4	3	2	6	7	734
"2009-02-15"	1	1	27	2	6	11	9	1	1395	2	1	9	7	3	8	7	6	742
"2009-02-15"	1	1	27	2	6	12	7	1	1403	9	1	8	2	5	6	1	5	1280
"2009-02-15"	1	1	27	2	6	13	4	1	1610	6	8	9	1	7	4	7	6	1354
"2009-02-15"	1	1	27	2	6	14	12	1	1627	2	1	5	4	9	6	2	6	774
"2009-02-15"	1	1	27	2	6	15	1	1	1571	7	4	2	5	9	8	2	6	1899
"2009-02-15"	1	1	27	2	6	16	6	1	1026	2	3	5	9	4	8	3	7	451
"2009-02-15"	1	1	27	2	6	17	8	0	1671	5	4	1	8	6	7	5	7	1546
"2009-02-15"	1	1	27	2	6	18	30	1	2187	4	5	9	1	3	6	9	5	415
"2009-02-15"	1	1	27	2	6	19	31	1	1363	8	5	2	6	7	1	6	6	528
"2009-02-15"	1	1	27	2	6	20	25	0	1082	1	2	5	4	6	7	6	6	454
"2009-02-15"	1	1	27	2	6	21	14	1	1939	3	8	7	6	5	1	3	5	1188
"2009-02-15"	1	1	27	2	6	22	28	0	1179	6	7	8	2	9	1	2	7	922
"2009-02-15"	1	1	27	2	6	23	20	1	1317	9	6	3	5	7	2	7	5	543
"2009-02-15"	1	1	27	2	6	24	5	0	2246	9	8	3	2	1	7	8	6	701
"2009-02-15"	1	1	27	2	6	25	5	0	1098	2	3	1	5	8	6	1	7	609
"2009-02-15"	1	1	27	2	6	26	22	0	3147	6	2	7	5	8	3	2	6	433
"2009-02-15"	1	1	27	2	6	27	13	0	2815	5	8	3	6	9	2	5	7	529
"2009-02-15"	1	1	27	2	6	28	28	0	995	9	2	1	3	4	6	1	7	573
"2009-02-15"	1	1	27	2	6	29	16	0	2209	5	8	1	3	7	6	7	7	1938
"2009-02-15"	1	1	27	2	6	30	23	0	1553	3	4	2	7	6	8	7	7	2580
"2009-02-15"	1	1	27	2	6	31	8	0	1006	6	4	7	8	2	1	6	7	554
"2009-02-15"	1	1	27	2	6	32	12	1	2346	4	5	8	1	3	7	5	7	598
"2009-02-15"	1	1	27	2	6	33	2	0	1328	9	5	1	4	8	2	4	7	293
"2009-02-15"	1	1	27	2	6	34	10	0	1361	1	7	4	2	9	5	4	7	462
"2009-02-15"	1	1	27	2	6	35	17	1	2658	1	2	3	9	4	5	4	7	260
"2009-02-15"	1	1	27	2	6	36	20	1	1615	6	9	7	1	4	8	4	5	944
"2009-02-15"	1	1	27	3	1	1	1	1	1461	5	4	3	8	6	7	8	7	5429
"2009-02-15"	1	1	27	3	1	2	4	1	1776	3	2	6	9	4	5	3	7	2728
"2009-02-15"	1	1	27	3	1	3	5	0	1817	7	3	6	1	2	4	6	4	3193
"2009-02-15"	1	1	27	3	1	4	8	0	736	2	5	6	8	7	4	5	8	5989
"2009-02-15"	1	1	27	3	1	5	9	1	1441	4	2	3	7	6	8	4	2	1822
"2009-02-15"	1	1	27	3	1	6	12	1	1608	4	8	3	2	6	5	6	2	3301
"2009-02-15"	1	1	27	3	1	7	13	0	3033	1	8	3	5	6	9	5	7	2783
"2009-02-15"	1	1	27	3	1	8	16	0	1385	2	7	5	1	6	3	5	1	2171
"2009-02-15"	1	1	27	3	1	9	21	0	3723	3	4	7	8	5	6	4	5	6700
"2009-02-15"	1	1	27	3	1	10	24	0	2326	6	2	7	3	8	4	3	8	2765
"2009-02-15"	1	1	27	3	1	11	17	1	2187	3	5	7	6	1	4	5	1	3798
"2009-02-15"	1	1	27	3	1	12	20	1	1429	4	3	5	1	7	9	4	5	1936
"2009-02-15"	1	1	27	3	1	13	25	0	631	2	5	7	6	3	9	7	6	1680
"2009-02-15"	1	1	27	3	1	14	28	0	788	8	9	5	7	6	1	6	7	1125
"2009-02-15"	1	1	27	3	1	15	29	0	2680	1	9	6	5	3	8	3	8	2447
"2009-02-15"	1	1	27	3	1	16	32	0	1231	9	8	2	3	1	4	9	8	1810
"2009-02-15"	1	1	27	3	1	17	2	0	951	2	9	6	7	5	1	7	2	4145
"2009-02-15"	1	1	27	3	1	18	6	0	1847	5	6	4	2	1	7	6	2	4669
"2009-02-15"	1	1	27	3	1	19	11	0	1083	6	8	3	7	5	2	3	5	3336
"2009-02-15"	1	1	27	3	1	20	15	1	1257	8	5	9	2	7	6	7	2	5089
"2009-02-15"	1	1	27	3	1	21	23	0	1260	3	7	4	9	2	1	4	1	3252
"2009-02-15"	1	1	27	3	1	22	18	0	4157	5	7	2	8	6	4	7	8	2591
"2009-02-15"	1	1	27	3	1	23	26	0	2354	7	6	4	2	8	9	2	4	2990
"2009-02-15"	1	1	27	3	1	24	31	1	2058	9	8	1	5	3	6	9	3	3883
"2009-02-15"	1	1	27	3	1	25	3	0	801	9	2	5	4	7	8	9	2	1774
"2009-02-15"	1	1	27	3	1	26	7	1	1276	4	3	1	7	2	6	2	1	2239
"2009-02-15"	1	1	27	3	1	27	10	0	1291	1	3	8	4	2	7	3	8	1779
"2009-02-15"	1	1	27	3	1	28	14	1	1930	4	7	2	3	8	6	3	7	2083
"2009-02-15"	1	1	27	3	1	29	22	0	1063	3	6	8	7	2	4	8	7	1934
"2009-02-15"	1	1	27	3	1	30	19	1	4516	6	4	3	1	9	2	4	8	2407
"2009-02-15"	1	1	27	3	1	31	27	1	2103	8	5	7	3	4	9	7	3	1995
"2009-02-15"	1	1	27	3	1	32	30	1	1391	5	9	4	2	1	6	5	9	1690
"2009-02-15"	1	1	27	3	1	33	1	1	1656	7	9	3	8	6	4	6	4	2112
"2009-02-15"	1	1	27	3	1	34	4	0	1457	4	9	1	3	2	7	3	9	2657
"2009-02-15"	1	1	27	3	1	35	5	0	2154	4	8	3	2	5	7	3	8	2861
"2009-02-15"	1	1	27	3	1	36	8	0	1393	8	3	1	2	4	9	8	2	3075
"2009-02-15"	1	1	27	3	1	37	9	1	1481	2	3	1	7	6	9	6	9	1919
"2009-02-15"	1	1	27	3	1	38	12	1	1427	6	1	5	4	7	9	4	1	2086
"2009-02-15"	1	1	27	3	1	39	13	0	3449	3	5	6	9	2	1	5	9	2957
"2009-02-15"	1	1	27	3	1	40	16	0	1643	6	5	7	3	1	2	3	7	4144
"2009-02-15"	1	1	27	3	1	41	21	1	4398	2	7	3	1	9	6	3	9	2392
"2009-02-15"	1	1	27	3	1	42	24	0	1539	5	8	4	7	2	1	8	7	1123
"2009-02-15"	1	1	27	3	1	43	17	1	2277	2	9	1	4	8	3	2	8	1540
"2009-02-15"	1	1	27	3	1	44	20	1	1786	7	4	8	3	1	2	1	8	3501
"2009-02-15"	1	1	27	3	1	45	25	0	1042	6	9	4	5	7	8	5	6	7278
"2009-02-15"	1	1	27	3	1	46	28	0	1196	6	2	8	4	1	9	6	2	1022
"2009-02-15"	1	1	27	3	1	47	29	0	4154	4	2	9	3	1	6	9	2	2668
"2009-02-15"	1	1	27	3	1	48	32	0	4327	5	4	6	7	2	1	4	6	1332
"2009-02-19"	1	-1	34	1	1	1	-1	-1	-1	8	3	9	6	5	7	9	6	1549
"2009-02-19"	1	-1	34	1	1	2	-1	-1	-1	2	3	9	4	5	1	4	5	1244
"2009-02-19"	1	-1	34	1	1	3	-1	-1	-1	9	3	2	8	1	6	9	2	1438
"2009-02-19"	1	-1	34	1	1	4	-1	-1	-1	7	6	5	9	8	4	6	9	1850
"2009-02-19"	1	-1	34	1	1	5	-1	-1	-1	7	6	9	4	2	8	2	8	1507
"2009-02-19"	1	-1	34	1	1	6	-1	-1	-1	1	8	5	4	6	3	8	5	1898
"2009-02-19"	1	-1	34	1	1	7	-1	-1	-1	9	2	8	7	4	6	8	7	1267
"2009-02-19"	1	-1	34	1	1	8	-1	-1	-1	7	3	8	4	5	1	5	1	2016
"2009-02-19"	1	-1	34	1	1	9	-1	-1	-1	5	1	2	3	4	7	5	1	1760
"2009-02-19"	1	-1	34	1	1	10	-1	-1	-1	2	1	9	7	5	3	7	5	1965
"2009-02-19"	1	1	34	2	1	1	17	1	2385	3	5	2	4	9	6	3	5	1621
"2009-02-19"	1	1	34	2	1	2	2	0	2388	5	8	3	1	9	6	9	6	1520
"2009-02-19"	1	1	34	2	1	3	16	0	2316	8	1	7	5	4	6	7	9	2450
"2009-02-19"	1	1	34	2	1	4	20	1	1154	4	2	9	7	1	3	2	9	1268
"2009-02-19"	1	1	34	2	1	5	4	0	1284	7	8	2	9	5	1	9	5	1841
"2009-02-19"	1	1	34	2	1	6	5	1	1534	3	4	6	1	5	2	1	5	2950
"2009-02-19"	1	1	34	2	1	7	15	0	1817	4	3	1	2	9	6	1	9	2186
"2009-02-19"	1	1	34	2	1	8	12	0	1347	6	5	9	3	8	4	5	8	2557
"2009-02-19"	1	1	34	2	1	9	1	0	939	1	7	9	5	2	8	1	7	1410
"2009-02-19"	1	1	34	2	1	10	6	1	1448	4	2	8	3	6	5	6	7	1541
"2009-02-19"	1	1	34	2	1	11	9	1	1068	5	7	4	3	2	9	7	3	2382
"2009-02-19"	1	1	34	2	1	12	13	0	1048	7	9	5	3	6	4	6	2	3044
"2009-02-19"	1	1	34	2	1	13	28	0	1450	5	4	1	9	6	8	1	6	2418
"2009-02-19"	1	1	34	2	1	14	17	1	1466	8	9	7	5	4	2	8	7	1133
"2009-02-19"	1	1	34	2	1	15	16	0	1866	1	5	4	8	9	7	8	7	1582
"2009-02-19"	1	1	34	2	1	16	12	1	1508	2	8	9	5	6	7	6	7	1398
"2009-02-19"	1	1	34	2	1	17	7	0	1698	8	3	4	5	9	7	8	3	1330
"2009-02-19"	1	1	34	2	1	18	28	0	1008	4	9	2	5	1	6	5	9	2124
"2009-02-19"	1	1	34	2	1	19	31	0	1609	7	6	3	1	8	2	6	3	3254
"2009-02-19"	1	1	34	2	1	20	23	1	1888	1	9	4	7	8	2	4	7	2766
"2009-02-19"	1	1	34	2	1	21	30	1	1484	4	6	9	8	5	3	9	3	2153
"2009-02-19"	1	1	34	2	1	22	8	0	4098	3	6	2	5	4	7	6	2	1991
"2009-02-19"	1	1	34	2	1	23	3	0	2377	8	9	7	1	5	3	8	5	1898
"2009-02-19"	1	1	34	2	1	24	25	0	1769	6	4	5	7	1	2	7	1	1431
"2009-02-19"	1	1	34	2	1	25	8	0	1384	7	1	6	5	9	2	9	2	1336
"2009-02-19"	1	1	34	2	1	26	13	0	1285	1	6	8	7	5	9	7	5	1154
"2009-02-19"	1	1	34	2	1	27	14	1	1594	8	6	3	5	1	2	3	5	1917
"2009-02-19"	1	1	34	2	1	28	22	1	1465	9	4	6	8	2	7	2	8	2196
"2009-02-19"	1	1	34	2	1	29	11	1	1785	7	8	5	9	6	2	8	2	1532
"2009-02-19"	1	1	34	2	1	30	20	0	1394	7	9	2	5	1	6	7	9	2069
"2009-02-19"	1	1	34	2	1	31	5	1	1982	7	9	4	5	1	8	7	6	2231
"2009-02-19"	1	1	34	2	1	32	10	0	1553	6	7	9	8	4	1	9	8	1388
"2009-02-19"	1	1	34	2	1	33	1	0	1197	1	2	9	3	7	6	2	1	1759
"2009-02-19"	1	1	34	2	1	34	4	0	2050	2	1	7	6	4	5	6	7	1380
"2009-02-19"	1	1	34	2	1	35	9	0	1186	9	4	8	2	5	6	5	6	1300
"2009-02-19"	1	1	34	2	1	36	25	0	1937	7	6	5	2	3	8	7	6	1218
"2009-02-19"	1	1	34	2	2	1	1	1	2468	1	7	3	6	4	8	3	2	1544
"2009-02-19"	1	1	34	2	2	2	17	0	1016	3	4	6	9	5	1	4	9	1929
"2009-02-19"	1	1	34	2	2	3	25	1	1344	7	2	1	8	6	5	8	6	1678
"2009-02-19"	1	1	34	2	2	4	28	0	1682	4	1	2	7	6	8	6	1	1760
"2009-02-19"	1	1	34	2	2	5	15	1	1324	7	4	3	6	5	8	5	6	2081
"2009-02-19"	1	1	34	2	2	6	12	1	1262	2	5	4	3	1	6	4	3	1605
"2009-02-19"	1	1	34	2	2	7	13	0	1129	4	5	7	3	9	8	3	7	2630
"2009-02-19"	1	1	34	2	2	8	16	0	2232	4	7	6	1	9	5	7	1	1972
"2009-02-19"	1	1	34	2	2	9	22	0	1555	8	1	2	7	6	4	8	1	1342
"2009-02-19"	1	1	34	2	2	10	30	1	1647	8	7	9	3	2	1	9	2	2140
"2009-02-19"	1	1	34	2	2	11	10	0	1508	2	6	4	9	8	1	9	8	1006
"2009-02-19"	1	1	34	2	2	12	8	0	1017	2	5	3	8	7	9	5	9	3512
"2009-02-19"	1	1	34	2	2	13	25	0	1102	2	7	4	8	6	9	2	7	1646
"2009-02-19"	1	1	34	2	2	14	16	0	1834	8	9	4	1	2	5	2	5	1869
"2009-02-19"	1	1	34	2	2	15	11	0	1087	3	6	8	7	9	5	7	6	1675
"2009-02-19"	1	1	34	2	2	16	3	1	2495	4	6	9	2	1	3	4	6	1065
"2009-02-19"	1	1	34	2	2	17	7	0	977	2	8	7	6	1	4	7	6	1519
"2009-02-19"	1	1	34	2	2	18	17	0	1259	1	9	3	2	7	8	7	6	1531
"2009-02-19"	1	1	34	2	2	19	4	0	929	2	1	9	4	6	5	1	4	3021
"2009-02-19"	1	1	34	2	2	20	6	0	1721	6	5	1	2	8	9	5	4	1183
"2009-02-19"	1	1	34	2	2	21	14	0	1511	4	3	5	6	9	2	5	1	2018
"2009-02-19"	1	1	34	2	2	22	20	0	1297	3	5	2	8	9	7	8	9	1328
"2009-02-19"	1	1	34	2	2	23	31	0	2027	2	8	1	5	3	9	2	8	1231
"2009-02-19"	1	1	34	2	2	24	5	1	1471	4	1	6	2	8	3	8	1	1482
"2009-02-19"	1	1	34	2	2	25	12	0	1197	6	1	7	4	5	9	6	7	1114
"2009-02-19"	1	1	34	2	2	26	9	0	1411	4	6	8	1	7	2	7	8	1026
"2009-02-19"	1	1	34	2	2	27	2	1	1371	1	7	3	9	8	5	7	8	1144
"2009-02-19"	1	1	34	2	2	28	23	0	1359	9	8	3	1	4	5	3	8	2236
"2009-02-19"	1	1	34	2	2	29	9	1	1113	2	5	3	4	9	6	4	9	1739
"2009-02-19"	1	1	34	2	2	30	5	1	1778	5	3	2	6	7	8	5	6	1266
"2009-02-19"	1	1	34	2	2	31	28	0	2755	1	5	9	2	4	3	2	9	2123
"2009-02-19"	1	1	34	2	2	32	4	0	1263	8	7	6	4	3	9	6	7	1254
"2009-02-19"	1	1	34	2	2	33	20	1	1404	9	2	7	3	1	4	1	4	2473
"2009-02-19"	1	1	34	2	2	34	13	0	1484	3	8	6	9	4	1	8	9	1377
"2009-02-19"	1	1	34	2	2	35	1	1	2447	2	6	5	4	3	1	6	5	1590
"2009-02-19"	1	1	34	2	2	36	8	0	1047	2	5	4	8	9	3	4	9	1236
"2009-02-19"	1	1	34	2	3	1	22	1	1586	2	7	6	4	5	3	5	4	1886
"2009-02-19"	1	1	34	2	3	2	10	1	1547	4	5	3	6	7	1	4	7	1181
"2009-02-19"	1	1	34	2	3	3	9	1	1515	3	6	2	7	9	4	7	6	2166
"2009-02-19"	1	1	34	2	3	4	23	0	1515	2	3	7	9	4	6	9	7	1709
"2009-02-19"	1	1	34	2	3	5	7	0	1191	6	3	1	2	4	7	3	5	1280
"2009-02-19"	1	1	34	2	3	6	28	0	1723	7	1	5	4	3	9	5	5	1377
"2009-02-19"	1	1	34	2	3	7	30	0	1343	9	4	1	3	5	6	9	7	1271
"2009-02-19"	1	1	34	2	3	8	13	0	967	9	3	6	1	4	8	4	1	3236
"2009-02-19"	1	1	34	2	3	9	8	1	2410	6	5	4	2	1	7	5	4	1348
"2009-02-19"	1	1	34	2	3	10	4	0	2492	3	1	6	9	8	7	6	8	2101
"2009-02-19"	1	1	34	2	3	11	12	0	1200	7	4	2	8	3	9	8	2	1684
"2009-02-19"	1	1	34	2	3	12	20	1	856	5	7	2	8	6	1	5	7	1127
"2009-02-19"	1	1	34	2	3	13	1	0	954	7	1	4	5	9	6	9	6	1396
"2009-02-19"	1	1	34	2	3	14	15	1	1631	1	3	7	9	5	6	1	3	2770
"2009-02-19"	1	1	34	2	3	15	25	0	1098	4	3	7	5	8	9	3	7	1529
"2009-02-19"	1	1	34	2	3	16	31	0	1824	9	7	1	5	6	2	6	8	1659
"2009-02-19"	1	1	34	2	3	17	4	1	1281	2	4	5	8	3	6	5	8	1182
"2009-02-19"	1	1	34	2	3	18	13	0	1092	1	3	6	5	4	9	5	6	3179
"2009-02-19"	1	1	34	2	3	19	8	1	1750	5	9	2	7	4	8	2	7	1347
"2009-02-19"	1	1	34	2	3	20	17	0	994	4	6	1	3	5	8	6	7	1332
"2009-02-19"	1	1	34	2	3	21	5	0	770	8	4	3	9	5	7	8	3	1406
"2009-02-19"	1	1	34	2	3	22	17	0	2442	8	1	5	9	2	7	2	9	1809
"2009-02-19"	1	1	34	2	3	23	2	0	1696	5	1	4	9	2	6	9	2	1376
"2009-02-19"	1	1	34	2	3	24	25	0	758	1	5	7	3	9	6	5	7	1063
"2009-02-19"	1	1	34	2	3	25	16	0	1559	5	3	8	1	2	4	8	1	2116
"2009-02-19"	1	1	34	2	3	26	3	0	1145	7	8	4	5	9	6	9	6	1363
"2009-02-19"	1	1	34	2	3	27	14	1	1878	7	9	6	5	2	3	7	5	1340
"2009-02-19"	1	1	34	2	3	28	11	0	1218	5	3	9	4	2	7	4	3	2170
"2009-02-19"	1	1	34	2	3	29	28	0	1097	3	9	8	4	7	5	7	5	1368
"2009-02-19"	1	1	34	2	3	30	5	1	2307	8	9	2	3	5	4	9	2	1655
"2009-02-19"	1	1	34	2	3	31	1	0	830	1	6	8	7	5	3	8	7	1071
"2009-02-19"	1	1	34	2	3	32	16	0	1416	4	9	1	5	2	3	4	7	2831
"2009-02-19"	1	1	34	2	3	33	9	1	1723	8	2	6	1	9	7	1	7	1816
"2009-02-19"	1	1	34	2	3	34	20	0	1623	7	5	4	2	3	1	5	6	1295
"2009-02-19"	1	1	34	2	3	35	12	0	2341	4	7	6	8	3	1	3	7	2198
"2009-02-19"	1	1	34	2	3	36	6	1	1419	6	5	1	2	9	4	1	7	1987
"2009-02-19"	1	1	34	2	4	1	23	0	2009	3	7	5	9	4	8	9	4	1231
"2009-02-19"	1	1	34	2	4	2	25	0	1191	8	5	1	3	7	9	8	5	1114
"2009-02-19"	1	1	34	2	4	3	6	0	2282	5	6	4	8	7	9	7	9	1273
"2009-02-19"	1	1	34	2	4	4	8	1	2065	5	3	9	4	7	6	3	4	2261
"2009-02-19"	1	1	34	2	4	5	10	0	1454	5	1	3	8	7	4	5	1	1398
"2009-02-19"	1	1	34	2	4	6	4	0	1602	3	8	9	2	4	7	2	9	1927
