subj	cond	cb	keyb	phase	blk	trial	stim	resp	rt	conf	confrt14001	2	1	1	1	1	1	1	0	3510	3	396214001	2	1	1	1	1	2	5	1	1541	2	143014001	2	1	1	1	1	3	6	1	1774	2	94014001	2	1	1	1	1	4	4	1	968	2	82214001	2	1	1	1	1	5	3	0	1066	1	205914001	2	1	1	1	1	6	8	0	3199	3	97414001	2	1	1	1	1	7	2	1	1203	2	111314001	2	1	1	1	1	8	7	1	1207	3	256514001	2	1	1	1	2	9	8	0	976	2	108914001	2	1	1	1	2	10	5	1	2186	1	519814001	2	1	1	1	2	11	2	1	3583	2	176014001	2	1	1	1	2	12	1	1	1672	3	105214001	2	1	1	1	2	13	7	1	573	2	119514001	2	1	1	1	2	14	4	1	874	3	194114001	2	1	1	1	2	15	6	1	4538	2	88414001	2	1	1	1	2	16	3	1	318	3	40914001	2	1	1	1	3	17	4	1	1258	2	49814001	2	1	1	1	3	18	6	1	391	2	58614001	2	1	1	1	3	19	5	1	406	3	44414001	2	1	1	1	3	20	2	0	1669	1	65614001	2	1	1	1	3	21	8	1	773	2	58114001	2	1	1	1	3	22	3	1	642	2	77614001	2	1	1	1	3	23	1	1	259	3	31514001	2	1	1	1	3	24	7	1	466	2	161914001	2	1	1	1	4	25	5	0	408	1	82014001	2	1	1	1	4	26	7	1	361	2	126814001	2	1	1	1	4	27	8	1	1028	3	174814001	2	1	1	1	4	28	1	1	320	3	41914001	2	1	1	1	4	29	2	1	432	3	84214001	2	1	1	1	4	30	6	1	373	3	68214001	2	1	1	1	4	31	4	1	1459	2	58014001	2	1	1	1	4	32	3	1	464	2	85714001	2	1	1	1	5	33	8	1	445	3	51414001	2	1	1	1	5	34	2	1	545	2	50514001	2	1	1	1	5	35	4	1	22	2	191014001	2	1	1	1	5	36	3	1	338	3	81014001	2	1	1	1	5	37	5	1	452	2	53014001	2	1	1	1	5	38	1	1	772	1	139414001	2	1	1	1	5	39	7	1	336	3	88814001	2	1	1	1	5	40	6	1	314	2	48514001	2	1	1	1	6	41	3	1	861	2	132514001	2	1	1	1	6	42	7	1	318	3	35614001	2	1	1	1	6	43	1	1	707	3	81114001	2	1	1	1	6	44	5	1	309	2	40814001	2	1	1	1	6	45	2	1	321	3	33414001	2	1	1	1	6	46	6	1	288	3	59014001	2	1	1	1	6	47	8	1	314	3	65314001	2	1	1	1	6	48	4	1	2174	2	41514001	2	1	1	2	1	1	3	1	3343	0	014001	2	1	1	2	1	2	1	0	3413	0	014001	2	1	1	2	1	3	8	0	632	0	014001	2	1	1	2	1	4	4	0	326	0	014001	2	1	1	2	1	5	2	1	800	0	014001	2	1	1	2	1	6	10	1	367	0	014001	2	1	1	2	1	7	7	1	345	0	014001	2	1	1	2	1	8	5	0	277	0	014001	2	1	1	2	1	9	9	1	1196	0	014001	2	1	1	2	1	10	6	1	283	0	014001	2	1	1	2	2	11	8	0	321	0	014001	2	1	1	2	2	12	1	0	1264	0	014001	2	1	1	2	2	13	6	0	325	0	014001	2	1	1	2	2	14	10	1	270	0	014001	2	1	1	2	2	15	2	1	1077	0	014001	2	1	1	2	2	16	7	0	333	0	014001	2	1	1	2	2	17	4	1	278	0	014001	2	1	1	2	2	18	5	0	1212	0	014001	2	1	1	2	2	19	3	1	319	0	014001	2	1	1	2	2	20	9	1	646	0	014001	2	1	1	2	3	21	2	0	407	0	014001	2	1	1	2	3	22	3	1	1	0	014001	2	1	1	2	3	23	8	0	1191	0	014001	2	1	1	2	3	24	1	0	182	0	014001	2	1	1	2	3	25	5	1	1202	0	014001	2	1	1	2	3	26	10	1	253	0	014001	2	1	1	2	3	27	9	1	294	0	014001	2	1	1	2	3	28	6	0	311	0	014001	2	1	1	2	3	29	7	1	246	0	014001	2	1	1	2	3	30	4	0	2032	0	014001	2	1	1	2	4	31	9	1	199	0	014001	2	1	1	2	4	32	10	0	302	0	014001	2	1	1	2	4	33	2	1	442	0	014001	2	1	1	2	4	34	6	0	289	0	014001	2	1	1	2	4	35	3	0	434	0	014001	2	1	1	2	4	36	5	0	289	0	014001	2	1	1	2	4	37	8	1	355	0	014001	2	1	1	2	4	38	4	1	377	0	014001	2	1	1	2	4	39	7	1	419	0	014001	2	1	1	2	4	40	1	1	319	0	014001	2	1	1	2	5	41	6	0	271	0	014001	2	1	1	2	5	42	3	1	418	0	014001	2	1	1	2	5	43	2	1	318	0	014001	2	1	1	2	5	44	10	0	230	0	014001	2	1	1	2	5	45	1	1	321	0	014001	2	1	1	2	5	46	9	1	312	0	014001	2	1	1	2	5	47	8	0	439	0	014001	2	1	1	2	5	48	7	1	1989	0	014001	2	1	1	2	5	49	4	1	251	0	014001	2	1	1	2	5	50	5	0	228	0	014001	2	1	1	2	6	51	2	1	337	0	014001	2	1	1	2	6	52	9	1	281	0	014001	2	1	1	2	6	53	4	0	296	0	014001	2	1	1	2	6	54	3	0	298	0	014001	2	1	1	2	6	55	10	0	967	0	014001	2	1	1	2	6	56	8	1	472	0	014001	2	1	1	2	6	57	6	0	303	0	014001	2	1	1	2	6	58	7	0	451	0	014001	2	1	1	2	6	59	1	1	460	0	014001	2	1	1	2	6	60	5	0	297	0	014001	2	1	1	2	7	61	8	1	354	0	014001	2	1	1	2	7	62	3	0	361	0	014001	2	1	1	2	7	63	6	0	448	0	014001	2	1	1	2	7	64	5	0	305	0	014001	2	1	1	2	7	65	10	0	246	0	014001	2	1	1	2	7	66	4	0	232	0	014001	2	1	1	2	7	67	2	1	294	0	014001	2	1	1	2	7	68	7	1	295	0	014001	2	1	1	2	7	69	9	1	313	0	014001	2	1	1	2	7	70	1	1	287	0	014001	2	1	1	2	8	71	5	0	433	0	014001	2	1	1	2	8	72	7	0	264	0	014001	2	1	1	2	8	73	10	0	156	0	014001	2	1	1	2	8	74	8	1	42	0	014001	2	1	1	2	8	75	6	0	49	0	014001	2	1	1	2	8	76	3	1	227	0	014001	2	1	1	2	8	77	4	0	335	0	014001	2	1	1	2	8	78	1	1	288	0	014001	2	1	1	2	8	79	9	1	274	0	014001	2	1	1	2	8	80	2	1	329	0	014001	2	1	1	2	9	81	3	0	434	0	014001	2	1	1	2	9	82	9	1	321	0	014001	2	1	1	2	9	83	2	1	304	0	014001	2	1	1	2	9	84	5	0	260	0	014001	2	1	1	2	9	85	1	1	280	0	014001	2	1	1	2	9	86	7	1	1823	0	014001	2	1	1	2	9	87	10	0	396	0	014001	2	1	1	2	9	88	4	0	746	0	014001	2	1	1	2	9	89	8	1	287	0	014001	2	1	1	2	9	90	6	0	337	0	014001	2	1	1	2	10	91	4	1	258	0	014001	2	1	1	2	10	92	10	0	214	0	014001	2	1	1	2	10	93	3	0	399	0	014001	2	1	1	2	10	94	9	1	263	0	014001	2	1	1	2	10	95	8	1	106	0	014001	2	1	1	2	10	96	5	0	238	0	014001	2	1	1	2	10	97	2	1	437	0	014001	2	1	1	2	10	98	7	1	61	0	014001	2	1	1	2	10	99	1	1	144	0	014001	2	1	1	2	10	100	6	0	268	0	014001	2	1	1	2	11	101	3	1	625	0	014001	2	1	1	2	11	102	10	0	413	0	014001	2	1	1	2	11	103	1	1	94	0	014001	2	1	1	2	11	104	6	0	288	0	014001	2	1	1	2	11	105	4	1	305	0	014001	2	1	1	2	11	106	8	1	278	0	014001	2	1	1	2	11	107	2	1	460	0	014001	2	1	1	2	11	108	7	1	312	0	014001	2	1	1	2	11	109	9	1	311	0	014001	2	1	1	2	11	110	5	0	325	0	014001	2	1	1	2	12	111	9	1	239	0	014001	2	1	1	2	12	112	10	0	486	0	014001	2	1	1	2	12	113	1	1	408	0	014001	2	1	1	2	12	114	3	1	89	0	014001	2	1	1	2	12	115	6	0	371	0	014001	2	1	1	2	12	116	5	0	1132	0	014001	2	1	1	2	12	117	8	1	294	0	014001	2	1	1	2	12	118	2	1	463	0	014001	2	1	1	2	12	119	7	0	324	0	014001	2	1	1	2	12	120	4	0	302	0	014001	2	1	1	2	13	121	9	1	305	0	014001	2	1	1	2	13	122	6	0	381	0	014001	2	1	1	2	13	123	8	1	442	0	014001	2	1	1	2	13	124	1	1	920	0	014001	2	1	1	2	13	125	5	0	327	0	014001	2	1	1	2	13	126	10	0	249	0	014001	2	1	1	2	13	127	2	1	275	0	014001	2	1	1	2	13	128	3	0	465	0	014001	2	1	1	2	13	129	7	0	309	0	014001	2	1	1	2	13	130	4	0	562	0	014002	2	2	2	1	1	1	1	0	2300	3	202914002	2	2	2	1	1	2	7	1	2829	2	193714002	2	2	2	1	1	3	5	0	1121	3	140414002	2	2	2	1	1	4	3	0	1614	3	156714002	2	2	2	1	1	5	2	1	1833	3	113314002	2	2	2	1	1	6	8	0	1929	2	106314002	2	2	2	1	1	7	4	0	3428	2	193614002	2	2	2	1	1	8	6	1	2229	3	106514002	2	2	2	1	2	9	2	1	614	3	60314002	2	2	2	1	2	10	1	1	908	3	56014002	2	2	2	1	2	11	8	1	735	3	72714002	2	2	2	1	2	12	7	1	1209	3	52714002	2	2	2	1	2	13	3	1	1120	3	36314002	2	2	2	1	2	14	5	1	2501	3	49414002	2	2	2	1	2	15	6	0	664	2	80814002	2	2	2	1	2	16	4	1	826	2	70714002	2	2	2	1	3	17	6	1	1231	3	125014002	2	2	2	1	3	18	3	1	1020	3	63714002	2	2	2	1	3	19	2	1	356	3	37514002	2	2	2	1	3	20	5	1	432	3	31514002	2	2	2	1	3	21	8	1	1977	3	37814002	2	2	2	1	3	22	1	1	711	2	97814002	2	2	2	1	3	23	7	1	407	3	53214002	2	2	2	1	3	24	4	1	2470	2	62614002	2	2	2	1	4	25	7	1	1950	3	44114002	2	2	2	1	4	26	5	1	1776	3	37714002	2	2	2	1	4	27	6	0	651	2	40914002	2	2	2	1	4	28	8	1	435	2	31714002	2	2	2	1	4	29	2	1	436	3	35914002	2	2	2	1	4	30	3	1	326	3	32314002	2	2	2	1	4	31	4	1	362	3	31214002	2	2	2	1	4	32	1	1	1535	3	36014002	2	2	2	1	5	33	2	1	974	2	58014002	2	2	2	1	5	34	4	1	312	3	27514002	2	2	2	1	5	35	8	1	698	3	30614002	2	2	2	1	5	36	6	1	367	3	25214002	2	2	2	1	5	37	3	1	1478	3	41614002	2	2	2	1	5	38	7	1	3930	3	30614002	2	2	2	1	5	39	1	1	390	3	32614002	2	2	2	1	5	40	5	1	1576	3	105414002	2	2	2	1	6	41	3	1	1455	3	32514002	2	2	2	1	6	42	7	1	2439	2	63514002	2	2	2	1	6	43	6	1	306	3	43414002	2	2	2	1	6	44	5	1	370	3	35114002	2	2	2	1	6	45	8	1	379	3	31514002	2	2	2	1	6	46	2	1	1034	3	30914002	2	2	2	1	6	47	1	1	433	3	41214002	2	2	2	1	6	48	4	1	854	3	34014002	2	2	2	2	1	1	10	0	1989	0	014002	2	2	2	2	1	2	5	0	789	0	014002	2	2	2	2	1	3	1	1	516	0	014002	2	2	2	2	1	4	7	1	380	0	014002	2	2	2	2	1	5	2	1	783	0	014002	2	2	2	2	1	6	4	1	324	0	014002	2	2	2	2	1	7	8	0	549	0	014002	2	2	2	2	1	8	9	1	405	0	014002	2	2	2	2	1	9	6	0	446	0	014002	2	2	2	2	1	10	3	0	487	0	014002	2	2	2	2	2	11	9	1	353	0	014002	2	2	2	2	2	12	4	1	312	0	014002	2	2	2	2	2	13	8	1	719	0	014002	2	2	2	2	2	14	5	0	262	0	014002	2	2	2	2	2	15	2	1	298	0	014002	2	2	2	2	2	16	1	1	398	0	014002	2	2	2	2	2	17	10	0	357	0	014002	2	2	2	2	2	18	3	1	1644	0	014002	2	2	2	2	2	19	6	0	343	0	014002	2	2	2	2	2	20	7	1	338	0	014002	2	2	2	2	3	21	9	1	479	0	014002	2	2	2	2	3	22	4	1	382	0	014002	2	2	2	2	3	23	7	1	522	0	014002	2	2	2	2	3	24	10	0	313	0	014002	2	2	2	2	3	25	8	0	385	0	014002	2	2	2	2	3	26	5	0	308	0	014002	2	2	2	2	3	27	2	1	280	0	014002	2	2	2	2	3	28	1	1	1271	0	014002	2	2	2	2	3	29	6	0	1591	0	014002	2	2	2	2	3	30	3	0	1422	0	014002	2	2	2	2	4	31	9	1	403	0	014002	2	2	2	2	4	32	4	1	890	0	014002	2	2	2	2	4	33	8	0	468	0	014002	2	2	2	2	4	34	7	1	296	0	014002	2	2	2	2	4	35	3	0	932	0	014002	2	2	2	2	4	36	5	0	742	0	014002	2	2	2	2	4	37	2	1	586	0	014002	2	2	2	2	4	38	6	0	463	0	014002	2	2	2	2	4	39	1	1	2835	0	014002	2	2	2	2	4	40	10	0	363	0	014002	2	2	2	2	5	41	5	0	330	0	014002	2	2	2	2	5	42	4	1	308	0	014002	2	2	2	2	5	43	7	1	408	0	014002	2	2	2	2	5	44	9	1	274	0	014002	2	2	2	2	5	45	8	0	376	0	014002	2	2	2	2	5	46	6	0	402	0	014002	2	2	2	2	5	47	1	1	1161	0	014002	2	2	2	2	5	48	3	0	944	0	014002	2	2	2	2	5	49	2	1	1549	0	014002	2	2	2	2	5	50	10	0	372	0	014002	2	2	2	2	6	51	6	0	606	0	014002	2	2	2	2	6	52	2	1	583	0	014002	2	2	2	2	6	53	5	0	484	0	014002	2	2	2	2	6	54	1	1	430	0	014002	2	2	2	2	6	55	9	1	417	0	014002	2	2	2	2	6	56	3	0	718	0	014002	2	2	2	2	6	57	8	0	405	0	014002	2	2	2	2	6	58	4	1	559	0	014002	2	2	2	2	6	59	7	1	334	0	014002	2	2	2	2	6	60	10	0	503	0	014002	2	2	2	2	7	61	2	1	1459	0	014002	2	2	2	2	7	62	8	0	528	0	014002	2	2	2	2	7	63	4	1	1538	0	014002	2	2	2	2	7	64	10	0	295	0	014002	2	2	2	2	7	65	3	0	688	0	014002	2	2	2	2	7	66	1	1	442	0	014002	2	2	2	2	7	67	7	1	681	0	014002	2	2	2	2	7	68	9	1	1608	0	014002	2	2	2	2	7	69	5	0	954	0	014002	2	2	2	2	7	70	6	0	729	0	014002	2	2	2	2	8	71	9	1	1283	0	014002	2	2	2	2	8	72	2	1	1267	0	014002	2	2	2	2	8	73	7	1	583	0	014002	2	2	2	2	8	74	4	1	532	0	014002	2	2	2	2	8	75	5	0	397	0	014002	2	2	2	2	8	76	6	0	980	0	014002	2	2	2	2	8	77	3	0	345	0	014002	2	2	2	2	8	78	1	1	421	0	014002	2	2	2	2	8	79	8	0	377	0	014002	2	2	2	2	8	80	10	0	682	0	014002	2	2	2	2	9	81	3	0	588	0	014002	2	2	2	2	9	82	9	0	1289	0	014002	2	2	2	2	9	83	4	1	139	0	014002	2	2	2	2	9	84	7	1	398	0	014002	2	2	2	2	9	85	6	0	454	0	014002	2	2	2	2	9	86	8	0	935	0	014002	2	2	2	2	9	87	1	0	681	0	014002	2	2	2	2	9	88	10	0	321	0	014002	2	2	2	2	9	89	5	0	423	0	014002	2	2	2	2	9	90	2	1	403	0	014002	2	2	2	2	10	91	6	0	354	0	014002	2	2	2	2	10	92	1	1	233	0	014002	2	2	2	2	10	93	7	1	608	0	014002	2	2	2	2	10	94	8	0	498	0	014002	2	2	2	2	10	95	4	1	910	0	014002	2	2	2	2	10	96	2	1	587	0	014002	2	2	2	2	10	97	10	0	1367	0	014002	2	2	2	2	10	98	9	1	609	0	014002	2	2	2	2	10	99	3	0	291	0	014002	2	2	2	2	10	100	5	0	652	0	014002	2	2	2	2	11	101	4	1	646	0	014002	2	2	2	2	11	102	7	1	3184	0	014002	2	2	2	2	11	103	1	1	390	0	014002	2	2	2	2	11	104	6	0	273	0	014002	2	2	2	2	11	105	10	0	344	0	014002	2	2	2	2	11	106	3	0	421	0	014002	2	2	2	2	11	107	9	1	705	0	014002	2	2	2	2	11	108	5	0	414	0	014002	2	2	2	2	11	109	8	0	391	0	014002	2	2	2	2	11	110	2	1	630	0	014002	2	2	2	2	12	111	1	1	754	0	014002	2	2	2	2	12	112	10	0	2050	0	014002	2	2	2	2	12	113	9	1	428	0	014002	2	2	2	2	12	114	3	0	1080	0	014002	2	2	2	2	12	115	7	1	687	0	014002	2	2	2	2	12	116	2	1	665	0	014002	2	2	2	2	12	117	4	1	470	0	014002	2	2	2	2	12	118	6	0	754	0	014002	2	2	2	2	12	119	5	0	440	0	014002	2	2	2	2	12	120	8	0	896	0	014002	2	2	2	2	13	121	1	1	362	0	014002	2	2	2	2	13	122	5	0	1097	0	014002	2	2	2	2	13	123	4	1	877	0	014002	2	2	2	2	13	124	9	1	548	0	014002	2	2	2	2	13	125	10	0	480	0	014002	2	2	2	2	13	126	2	1	384	0	014002	2	2	2	2	13	127	3	0	580	0	014002	2	2	2	2	13	128	8	0	953	0	014002	2	2	2	2	13	129	6	0	575	0	014002	2	2	2	2	13	130	7	1	537	0	014003	2	3	1	1	1	1	5	0	3520	3	328314003	2	3	1	1	1	2	4	0	1823	3	192514003	2	3	1	1	1	3	7	0	1328	3	365714003	2	3	1	1	1	4	8	0	534	3	112814003	2	3	1	1	1	5	2	0	242	3	93514003	2	3	1	1	1	6	6	0	2225	3	64714003	2	3	1	1	1	7	1	1	4803	2	79514003	2	3	1	1	1	8	3	0	514	3	179714003	2	3	1	1	2	9	6	0	1476	2	72814003	2	3	1	1	2	10	2	1	122	3	111614003	2	3	1	1	2	11	5	1	391	3	63014003	2	3	1	1	2	12	4	1	3451	3	60914003	2	3	1	1	2	13	7	0	984	2	95214003	2	3	1	1	2	14	1	1	1322	3	324414003	2	3	1	1	2	15	3	0	1929	2	71514003	2	3	1	1	2	16	8	1	334	3	59214003	2	3	1	1	3	17	5	1	600	3	51914003	2	3	1	1	3	18	6	0	34	3	71214003	2	3	1	1	3	19	8	1	1266	2	40714003	2	3	1	1	3	20	7	1	4277	2	81014003	2	3	1	1	3	21	3	1	2408	3	39914003	2	3	1	1	3	22	4	1	439	3	42814003	2	3	1	1	3	23	2	0	1330	2	105214003	2	3	1	1	3	24	1	1	4760	2	48214003	2	3	1	1	4	25	3	1	77	2	46514003	2	3	1	1	4	26	1	0	2870	2	69814003	2	3	1	1	4	27	7	1	2670	2	82614003	2	3	1	1	4	28	5	0	2880	3	57214003	2	3	1	1	4	29	4	1	4420	3	50714003	2	3	1	1	4	30	8	1	1926	2	36114003	2	3	1	1	4	31	6	1	457	2	35014003	2	3	1	1	4	32	2	1	3126	3	38414003	2	3	1	1	5	33	1	1	424	3	51814003	2	3	1	1	5	34	4	1	321	3	41214003	2	3	1	1	5	35	6	0	786	2	45814003	2	3	1	1	5	36	3	1	367	3	37614003	2	3	1	1	5	37	2	1	2520	3	34614003	2	3	1	1	5	38	5	1	323	3	33314003	2	3	1	1	5	39	8	1	639	2	33214003	2	3	1	1	5	40	7	1	182	3	47014003	2	3	1	1	6	41	4	1	3466	3	32714003	2	3	1	1	6	42	5	1	217	2	52714003	2	3	1	1	6	43	6	1	633	2	27114003	2	3	1	1	6	44	2	0	4068	2	64114003	2	3	1	1	6	45	3	0	447	2	34814003	2	3	1	1	6	46	1	1	301	3	64014003	2	3	1	1	6	47	8	1	1094	2	44914003	2	3	1	1	6	48	7	1	334	3	34414003	2	3	1	2	1	1	8	1	7492	0	014003	2	3	1	2	1	2	1	1	2832	0	014003	2	3	1	2	1	3	5	0	270	0	014003	2	3	1	2	1	4	9	0	450	0	014003	2	3	1	2	1	5	2	1	239	0	014003	2	3	1	2	1	6	10	0	1404	0	014003	2	3	1	2	1	7	3	0	3148	0	014003	2	3	1	2	1	8	4	1	1557	0	014003	2	3	1	2	1	9	7	0	2485	0	014003	2	3	1	2	1	10	6	1	1321	0	014003	2	3	1	2	2	11	1	1	588	0	014003	2	3	1	2	2	12	9	1	500	0	014003	2	3	1	2	2	13	5	0	527	0	014003	2	3	1	2	2	14	3	0	2480	0	014003	2	3	1	2	2	15	2	0	5988	0	014003	2	3	1	2	2	16	7	0	269	0	014003	2	3	1	2	2	17	10	1	234	0	014003	2	3	1	2	2	18	6	0	4078	0	014003	2	3	1	2	2	19	4	1	1259	0	014003	2	3	1	2	2	20	8	0	584	0	014003	2	3	1	2	3	21	9	1	2552	0	014003	2	3	1	2	3	22	3	1	233	0	014003	2	3	1	2	3	23	10	0	806	0	014003	2	3	1	2	3	24	8	0	261	0	014003	2	3	1	2	3	25	1	1	298	0	014003	2	3	1	2	3	26	5	0	1421	0	014003	2	3	1	2	3	27	6	0	244	0	014003	2	3	1	2	3	28	2	1	1489	0	014003	2	3	1	2	3	29	7	1	2780	0	014003	2	3	1	2	3	30	4	1	284	0	014003	2	3	1	2	4	31	9	0	288	0	014003	2	3	1	2	4	32	1	1	284	0	014003	2	3	1	2	4	33	6	1	335	0	014003	2	3	1	2	4	34	10	1	241	0	014003	2	3	1	2	4	35	3	1	271	0	014003	2	3	1	2	4	36	8	0	187	0	014003	2	3	1	2	4	37	4	1	322	0	014003	2	3	1	2	4	38	7	0	1765	0	014003	2	3	1	2	4	39	2	1	237	0	014003	2	3	1	2	4	40	5	0	347	0	014003	2	3	1	2	5	41	2	1	764	0	014003	2	3	1	2	5	42	5	0	276	0	014003	2	3	1	2	5	43	6	1	248	0	014003	2	3	1	2	5	44	1	1	310	0	014003	2	3	1	2	5	45	8	0	337	0	014003	2	3	1	2	5	46	10	1	419	0	014003	2	3	1	2	5	47	7	0	185	0	014003	2	3	1	2	5	48	4	1	352	0	014003	2	3	1	2	5	49	9	0	233	0	014003	2	3	1	2	5	50	3	1	199	0	014003	2	3	1	2	6	51	10	1	1006	0	014003	2	3	1	2	6	52	8	0	893	0	014003	2	3	1	2	6	53	5	0	240	0	014003	2	3	1	2	6	54	6	0	310	0	014003	2	3	1	2	6	55	2	1	49	0	014003	2	3	1	2	6	56	7	0	245	0	014003	2	3	1	2	6	57	3	1	1178	0	014003	2	3	1	2	6	58	4	1	1178	0	014003	2	3	1	2	6	59	9	0	82	0	014003	2	3	1	2	6	60	1	1	510	0	014003	2	3	1	2	7	61	4	1	249	0	014003	2	3	1	2	7	62	3	1	285	0	014003	2	3	1	2	7	63	9	0	337	0	014003	2	3	1	2	7	64	8	0	1715	0	014003	2	3	1	2	7	65	5	0	301	0	014003	2	3	1	2	7	66	1	1	496	0	014003	2	3	1	2	7	67	2	1	324	0	014003	2	3	1	2	7	68	10	1	341	0	014003	2	3	1	2	7	69	6	1	215	0	014003	2	3	1	2	7	70	7	0	269	0	014003	2	3	1	2	8	71	3	1	386	0	014003	2	3	1	2	8	72	2	1	1274	0	014003	2	3	1	2	8	73	8	0	2309	0	014003	2	3	1	2	8	74	5	0	1312	0	014003	2	3	1	2	8	75	1	1	483	0	014003	2	3	1	2	8	76	10	1	303	0	014003	2	3	1	2	8	77	6	1	202	0	014003	2	3	1	2	8	78	9	0	273	0	014003	2	3	1	2	8	79	7	0	325	0	014003	2	3	1	2	8	80	4	1	335	0	014003	2	3	1	2	9	81	1	1	257	0	014003	2	3	1	2	9	82	8	0	254	0	014003	2	3	1	2	9	83	2	1	347	0	014003	2	3	1	2	9	84	6	0	636	0	014003	2	3	1	2	9	85	4	1	218	0	014003	2	3	1	2	9	86	5	0	256	0	014003	2	3	1	2	9	87	7	1	629	0	014003	2	3	1	2	9	88	9	0	2322	0	014003	2	3	1	2	9	89	3	1	509	0	014003	2	3	1	2	9	90	10	1	1064	0	014003	2	3	1	2	10	91	5	0	1677	0	014003	2	3	1	2	10	92	6	0	2697	0	014003	2	3	1	2	10	93	2	1	1676	0	014003	2	3	1	2	10	94	9	0	273	0	014003	2	3	1	2	10	95	7	0	245	0	014003	2	3	1	2	10	96	1	1	178	0	014003	2	3	1	2	10	97	4	0	514	0	014003	2	3	1	2	10	98	8	1	292	0	014003	2	3	1	2	10	99	3	1	208	0	014003	2	3	1	2	10	100	10	1	223	0	014003	2	3	1	2	11	101	3	1	285	0	014003	2	3	1	2	11	102	2	1	225	0	014003	2	3	1	2	11	103	4	1	367	0	014003	2	3	1	2	11	104	5	0	320	0	014003	2	3	1	2	11	105	10	1	337	0	014003	2	3	1	2	11	106	9	0	763	0	014003	2	3	1	2	11	107	6	0	1084	0	014003	2	3	1	2	11	108	1	1	2880	0	014003	2	3	1	2	11	109	8	0	1100	0	014003	2	3	1	2	11	110	7	0	295	0	014003	2	3	1	2	12	111	8	0	2065	0	014003	2	3	1	2	12	112	2	1	334	0	014003	2	3	1	2	12	113	7	0	304	0	014003	2	3	1	2	12	114	10	1	291	0	014003	2	3	1	2	12	115	1	1	271	0	014003	2	3	1	2	12	116	6	0	323	0	014003	2	3	1	2	12	117	5	0	261	0	014003	2	3	1	2	12	118	9	0	217	0	014003	2	3	1	2	12	119	4	1	272	0	014003	2	3	1	2	12	120	3	1	244	0	014003	2	3	1	2	13	121	6	0	225	0	014003	2	3	1	2	13	122	3	1	328	0	014003	2	3	1	2	13	123	9	0	225	0	014003	2	3	1	2	13	124	1	0	279	0	014003	2	3	1	2	13	125	4	1	267	0	014003	2	3	1	2	13	126	7	0	247	0	014003	2	3	1	2	13	127	8	0	205	0	014003	2	3	1	2	13	128	10	1	244	0	014003	2	3	1	2	13	129	5	0	225	0	014003	2	3	1	2	13	130	2	1	223	0	014004	2	4	2	1	1	1	8	0	4345	2	458114004	2	4	2	1	1	2	2	1	1996	3	206414004	2	4	2	1	1	3	4	0	1125	1	269014004	2	4	2	1	1	4	7	1	4301	2	123214004	2	4	2	1	1	5	1	1	2358	3	402614004	2	4	2	1	1	6	6	0	1267	3	130214004	2	4	2	1	1	7	5	0	3419	3	182114004	2	4	2	1	1	8	3	1	1673	3	239714004	2	4	2	1	2	9	7	0	1149	1	601314004	2	4	2	1	2	10	1	0	5171	1	102214004	2	4	2	1	2	11	2	0	1499	3	419614004	2	4	2	1	2	12	6	0	5740	2	271114004	2	4	2	1	2	13	8	0	1782	3	214314004	2	4	2	1	2	14	5	1	2597	2	324814004	2	4	2	1	2	15	3	0	4763	3	153014004	2	4	2	1	2	16	4	0	783	2	113614004	2	4	2	1	3	17	3	1	946	1	164214004	2	4	2	1	3	18	7	0	5801	2	112214004	2	4	2	1	3	19	6	1	984	3	50514004	2	4	2	1	3	20	2	1	2422	2	154314004	2	4	2	1	3	21	8	1	1027	1	90014004	2	4	2	1	3	22	1	1	1112	2	547514004	2	4	2	1	3	23	5	1	1141	3	195714004	2	4	2	1	3	24	4	0	4340	2	119114004	2	4	2	1	4	25	8	1	878	3	59614004	2	4	2	1	4	26	2	0	938	1	171514004	2	4	2	1	4	27	5	1	2971	2	177814004	2	4	2	1	4	28	3	0	6086	2	99114004	2	4	2	1	4	29	4	0	3405	2	82814004	2	4	2	1	4	30	6	1	1049	3	23914004	2	4	2	1	4	31	1	1	1525	3	21114004	2	4	2	1	4	32	7	0	813	1	64314004	2	4	2	1	5	33	8	1	722	3	22414004	2	4	2	1	5	34	2	1	2571	2	17014004	2	4	2	1	5	35	6	1	1164	3	37014004	2	4	2	1	5	36	5	1	1603	2	23014004	2	4	2	1	5	37	4	1	1058	3	30714004	2	4	2	1	5	38	3	0	704	3	29614004	2	4	2	1	5	39	7	0	1441	1	18814004	2	4	2	1	5	40	1	1	513	3	18814004	2	4	2	1	6	41	6	1	1528	3	18214004	2	4	2	1	6	42	7	0	706	1	18614004	2	4	2	1	6	43	1	1	702	2	14314004	2	4	2	1	6	44	5	1	1370	2	20014004	2	4	2	1	6	45	2	1	1727	1	17414004	2	4	2	1	6	46	3	0	263	1	13514004	2	4	2	1	6	47	8	0	936	2	14514004	2	4	2	1	6	48	4	0	1421	2	56614004	2	4	2	2	1	1	10	0	3022	0	014004	2	4	2	2	1	2	2	1	3812	0	014004	2	4	2	2	1	3	6	0	705	0	014004	2	4	2	2	1	4	1	0	864	0	014004	2	4	2	2	1	5	4	1	661	0	014004	2	4	2	2	1	6	5	0	289	0	014004	2	4	2	2	1	7	7	1	395	0	014004	2	4	2	2	1	8	8	0	530	0	014004	2	4	2	2	1	9	9	0	531	0	014004	2	4	2	2	1	10	3	1	365	0	014004	2	4	2	2	2	11	10	1	292	0	014004	2	4	2	2	2	12	2	1	1180	0	014004	2	4	2	2	2	13	5	0	361	0	014004	2	4	2	2	2	14	9	0	545	0	014004	2	4	2	2	2	15	7	0	293	0	014004	2	4	2	2	2	16	3	1	286	0	014004	2	4	2	2	2	17	8	0	328	0	014004	2	4	2	2	2	18	4	1	418	0	014004	2	4	2	2	2	19	6	0	1266	0	014004	2	4	2	2	2	20	1	1	343	0	014004	2	4	2	2	3	21	8	0	420	0	014004	2	4	2	2	3	22	2	1	384	0	014004	2	4	2	2	3	23	1	1	348	0	014004	2	4	2	2	3	24	6	0	352	0	014004	2	4	2	2	3	25	10	1	272	0	014004	2	4	2	2	3	26	7	1	347	0	014004	2	4	2	2	3	27	5	0	272	0	014004	2	4	2	2	3	28	3	1	239	0	014004	2	4	2	2	3	29	4	1	358	0	014004	2	4	2	2	3	30	9	0	484	0	014004	2	4	2	2	4	31	10	1	1310	0	014004	2	4	2	2	4	32	7	0	819	0	014004	2	4	2	2	4	33	6	0	327	0	014004	2	4	2	2	4	34	3	1	464	0	014004	2	4	2	2	4	35	8	0	269	0	014004	2	4	2	2	4	36	9	0	344	0	014004	2	4	2	2	4	37	1	1	301	0	014004	2	4	2	2	4	38	2	1	329	0	014004	2	4	2	2	4	39	5	0	322	0	014004	2	4	2	2	4	40	4	0	649	0	014004	2	4	2	2	5	41	1	1	131	0	014004	2	4	2	2	5	42	6	0	301	0	014004	2	4	2	2	5	43	8	0	377	0	014004	2	4	2	2	5	44	9	0	370	0	014004	2	4	2	2	5	45	2	1	284	0	014004	2	4	2	2	5	46	10	1	685	0	014004	2	4	2	2	5	47	5	0	935	0	014004	2	4	2	2	5	48	7	0	441	0	014004	2	4	2	2	5	49	3	1	816	0	014004	2	4	2	2	5	50	4	1	305	0	014004	2	4	2	2	6	51	7	1	494	0	014004	2	4	2	2	6	52	6	0	624	0	014004	2	4	2	2	6	53	10	0	315	0	014004	2	4	2	2	6	54	3	1	339	0	014004	2	4	2	2	6	55	2	1	359	0	014004	2	4	2	2	6	56	9	0	285	0	014004	2	4	2	2	6	57	4	1	599	0	014004	2	4	2	2	6	58	5	0	270	0	014004	2	4	2	2	6	59	1	1	675	0	014004	2	4	2	2	6	60	8	0	665	0	014004	2	4	2	2	7	61	7	0	206	0	014004	2	4	2	2	7	62	8	0	640	0	014004	2	4	2	2	7	63	6	0	198	0	014004	2	4	2	2	7	64	4	1	821	0	014004	2	4	2	2	7	65	1	1	450	0	014004	2	4	2	2	7	66	5	1	987	0	014004	2	4	2	2	7	67	10	0	319	0	014004	2	4	2	2	7	68	3	0	287	0	014004	2	4	2	2	7	69	2	1	328	0	014004	2	4	2	2	7	70	9	1	305	0	014004	2	4	2	2	8	71	1	1	302	0	014004	2	4	2	2	8	72	10	1	266	0	014004	2	4	2	2	8	73	6	0	438	0	014004	2	4	2	2	8	74	9	0	277	0	014004	2	4	2	2	8	75	3	1	284	0	014004	2	4	2	2	8	76	8	0	459	0	014004	2	4	2	2	8	77	4	1	255	0	014004	2	4	2	2	8	78	5	0	288	0	014004	2	4	2	2	8	79	2	1	242	0	014004	2	4	2	2	8	80	7	0	344	0	014004	2	4	2	2	9	81	9	0	357	0	014004	2	4	2	2	9	82	10	1	276	0	014004	2	4	2	2	9	83	2	1	307	0	014004	2	4	2	2	9	84	3	1	246	0	014004	2	4	2	2	9	85	5	0	208	0	014004	2	4	2	2	9	86	1	0	498	0	014004	2	4	2	2	9	87	8	1	379	0	014004	2	4	2	2	9	88	6	0	335	0	014004	2	4	2	2	9	89	4	1	329	0	014004	2	4	2	2	9	90	7	1	227	0	014004	2	4	2	2	10	91	8	0	1598	0	014004	2	4	2	2	10	92	3	0	566	0	014004	2	4	2	2	10	93	2	1	415	0	014004	2	4	2	2	10	94	7	1	361	0	014004	2	4	2	2	10	95	4	1	104	0	014004	2	4	2	2	10	96	1	1	301	0	014004	2	4	2	2	10	97	9	0	440	0	014004	2	4	2	2	10	98	5	0	351	0	014004	2	4	2	2	10	99	6	0	326	0	014004	2	4	2	2	10	100	10	1	288	0	014004	2	4	2	2	11	101	8	0	313	0	014004	2	4	2	2	11	102	7	0	1000	0	014004	2	4	2	2	11	103	9	0	328	0	014004	2	4	2	2	11	104	5	0	377	0	014004	2	4	2	2	11	105	3	1	266	0	014004	2	4	2	2	11	106	2	1	279	0	014004	2	4	2	2	11	107	6	0	109	0	014004	2	4	2	2	11	108	1	0	377	0	014004	2	4	2	2	11	109	10	0	387	0	014004	2	4	2	2	11	110	4	0	104	0	014004	2	4	2	2	12	111	2	0	323	0	014004	2	4	2	2	12	112	6	0	250	0	014004	2	4	2	2	12	113	10	1	396	0	014004	2	4	2	2	12	114	7	1	427	0	014004	2	4	2	2	12	115	8	1	351	0	014004	2	4	2	2	12	116	1	0	558	0	014004	2	4	2	2	12	117	3	1	293	0	014004	2	4	2	2	12	118	4	1	438	0	014004	2	4	2	2	12	119	9	0	261	0	014004	2	4	2	2	12	120	5	0	178	0	014004	2	4	2	2	13	121	8	1	291	0	014004	2	4	2	2	13	122	9	1	364	0	014004	2	4	2	2	13	123	5	1	230	0	014004	2	4	2	2	13	124	10	1	322	0	014004	2	4	2	2	13	125	1	0	296	0	014004	2	4	2	2	13	126	2	1	58	0	014004	2	4	2	2	13	127	3	1	239	0	014004	2	4	2	2	13	128	7	1	333	0	014004	2	4	2	2	13	129	6	0	311	0	014004	2	4	2	2	13	130	4	1	483	0	014005	2	5	1	1	1	1	7	0	3410	3	421714005	2	5	1	1	1	2	4	1	1776	3	308814005	2	5	1	1	1	3	8	0	1803	2	308914005	2	5	1	1	1	4	3	0	1452	3	218514005	2	5	1	1	1	5	6	1	1503	3	199114005	2	5	1	1	1	6	2	1	1199	2	111414005	2	5	1	1	1	7	5	1	825	3	100914005	2	5	1	1	1	8	1	0	3140	1	127714005	2	5	1	1	2	9	5	0	1660	3	105314005	2	5	1	1	2	10	3	1	1351	3	74614005	2	5	1	1	2	11	2	0	2222	2	103114005	2	5	1	1	2	12	7	0	3406	3	174114005	2	5	1	1	2	13	6	1	1249	1	375114005	2	5	1	1	2	14	4	0	1264	3	76914005	2	5	1	1	2	15	1	1	1250	3	96014005	2	5	1	1	2	16	8	0	1815	3	137314005	2	5	1	1	3	17	5	1	2855	3	51214005	2	5	1	1	3	18	8	1	2111	3	57914005	2	5	1	1	3	19	4	1	2440	3	49114005	2	5	1	1	3	20	6	0	1812	1	96314005	2	5	1	1	3	21	2	1	2042	3	73614005	2	5	1	1	3	22	3	1	905	3	100214005	2	5	1	1	3	23	1	0	625	2	94614005	2	5	1	1	3	24	7	0	3349	3	68214005	2	5	1	1	4	25	8	1	1313	2	103614005	2	5	1	1	4	26	7	1	924	3	105014005	2	5	1	1	4	27	5	1	2531	3	148914005	2	5	1	1	4	28	4	1	1220	3	100414005	2	5	1	1	4	29	1	1	1925	3	73214005	2	5	1	1	4	30	3	0	1406	3	115614005	2	5	1	1	4	31	2	1	827	3	114714005	2	5	1	1	4	32	6	0	1223	3	56014005	2	5	1	1	5	33	4	1	1255	3	56514005	2	5	1	1	5	34	3	0	1286	2	82814005	2	5	1	1	5	35	7	0	1713	2	74014005	2	5	1	1	5	36	1	1	369	3	83014005	2	5	1	1	5	37	5	1	186	3	124214005	2	5	1	1	5	38	2	0	2650	2	80814005	2	5	1	1	5	39	8	1	1505	3	118614005	2	5	1	1	5	40	6	0	4767	3	111114005	2	5	1	1	6	41	2	0	917	2	112814005	2	5	1	1	6	42	3	1	939	3	93114005	2	5	1	1	6	43	8	0	3052	2	149914005	2	5	1	1	6	44	7	1	2256	2	126514005	2	5	1	1	6	45	5	1	2709	2	280114005	2	5	1	1	6	46	4	0	2921	2	133414005	2	5	1	1	6	47	1	1	1311	2	105814005	2	5	1	1	6	48	6	1	1831	3	105114005	2	5	1	2	1	1	8	0	3553	0	014005	2	5	1	2	1	2	7	0	1896	0	014005	2	5	1	2	1	3	4	0	1470	0	014005	2	5	1	2	1	4	6	0	1243	0	014005	2	5	1	2	1	5	2	1	681	0	014005	2	5	1	2	1	6	10	1	600	0	014005	2	5	1	2	1	7	9	0	808	0	014005	2	5	1	2	1	8	1	1	930	0	014005	2	5	1	2	1	9	3	1	915	0	014005	2	5	1	2	1	10	5	0	786	0	014005	2	5	1	2	2	11	1	1	1391	0	014005	2	5	1	2	2	12	6	0	676	0	014005	2	5	1	2	2	13	10	1	834	0	014005	2	5	1	2	2	14	7	0	753	0	014005	2	5	1	2	2	15	9	0	1320	0	014005	2	5	1	2	2	16	8	0	1279	0	014005	2	5	1	2	2	17	5	0	510	0	014005	2	5	1	2	2	18	2	1	638	0	014005	2	5	1	2	2	19	4	1	1508	0	014005	2	5	1	2	2	20	3	1	961	0	014005	2	5	1	2	3	21	4	1	696	0	014005	2	5	1	2	3	22	3	0	1009	0	014005	2	5	1	2	3	23	5	0	587	0	014005	2	5	1	2	3	24	2	1	728	0	014005	2	5	1	2	3	25	7	0	450	0	014005	2	5	1	2	3	26	6	0	754	0	014005	2	5	1	2	3	27	10	1	770	0	014005	2	5	1	2	3	28	9	0	580	0	014005	2	5	1	2	3	29	8	0	711	0	014005	2	5	1	2	3	30	1	0	1654	0	014005	2	5	1	2	4	31	2	1	865	0	014005	2	5	1	2	4	32	10	1	534	0	014005	2	5	1	2	4	33	9	0	462	0	014005	2	5	1	2	4	34	3	1	1459	0	014005	2	5	1	2	4	35	5	0	400	0	014005	2	5	1	2	4	36	4	1	638	0	014005	2	5	1	2	4	37	1	1	1277	0	014005	2	5	1	2	4	38	6	0	773	0	014005	2	5	1	2	4	39	7	0	375	0	014005	2	5	1	2	4	40	8	0	391	0	014005	2	5	1	2	5	41	9	0	526	0	014005	2	5	1	2	5	42	4	1	2144	0	014005	2	5	1	2	5	43	2	1	597	0	014005	2	5	1	2	5	44	5	0	364	0	014005	2	5	1	2	5	45	7	0	779	0	014005	2	5	1	2	5	46	10	1	911	0	014005	2	5	1	2	5	47	6	0	1643	0	014005	2	5	1	2	5	48	1	1	566	0	014005	2	5	1	2	5	49	8	0	447	0	014005	2	5	1	2	5	50	3	1	376	0	014005	2	5	1	2	6	51	8	0	546	0	014005	2	5	1	2	6	52	6	0	542	0	014005	2	5	1	2	6	53	7	0	1043	0	014005	2	5	1	2	6	54	1	1	545	0	014005	2	5	1	2	6	55	9	0	1470	0	014005	2	5	1	2	6	56	4	1	1331	0	014005	2	5	1	2	6	57	3	1	1036	0	014005	2	5	1	2	6	58	10	1	1196	0	014005	2	5	1	2	6	59	2	1	5594	0	014005	2	5	1	2	6	60	5	0	1356	0	014005	2	5	1	2	7	61	10	1	331	0	014005	2	5	1	2	7	62	9	0	685	0	014005	2	5	1	2	7	63	7	0	646	0	014005	2	5	1	2	7	64	6	0	608	0	014005	2	5	1	2	7	65	5	0	1050	0	014005	2	5	1	2	7	66	4	0	651	0	014005	2	5	1	2	7	67	8	0	581	0	014005	2	5	1	2	7	68	1	1	721	0	014005	2	5	1	2	7	69	2	1	561	0	014005	2	5	1	2	7	70	3	1	655	0	014005	2	5	1	2	8	71	9	0	769	0	014005	2	5	1	2	8	72	3	1	1187	0	014005	2	5	1	2	8	73	7	0	534	0	014005	2	5	1	2	8	74	5	0	744	0	014005	2	5	1	2	8	75	1	1	1453	0	014005	2	5	1	2	8	76	10	1	551	0	014005	2	5	1	2	8	77	8	0	445	0	014005	2	5	1	2	8	78	4	1	271	0	014005	2	5	1	2	8	79	6	0	1110	0	014005	2	5	1	2	8	80	2	1	1878	0	014005	2	5	1	2	9	81	3	1	436	0	014005	2	5	1	2	9	82	8	0	348	0	014005	2	5	1	2	9	83	9	0	800	0	014005	2	5	1	2	9	84	7	0	1718	0	014005	2	5	1	2	9	85	5	0	2526	0	014005	2	5	1	2	9	86	2	1	648	0	014005	2	5	1	2	9	87	4	1	898	0	014005	2	5	1	2	9	88	10	1	2006	0	014005	2	5	1	2	9	89	6	0	593	0	014005	2	5	1	2	9	90	1	1	1279	0	014005	2	5	1	2	10	91	2	1	455	0	014005	2	5	1	2	10	92	4	1	697	0	014005	2	5	1	2	10	93	7	1	1025	0	014005	2	5	1	2	10	94	1	1	694	0	014005	2	5	1	2	10	95	9	0	536	0	014005	2	5	1	2	10	96	10	1	6956	0	014005	2	5	1	2	10	97	6	0	390	0	014005	2	5	1	2	10	98	8	0	947	0	014005	2	5	1	2	10	99	3	1	742	0	014005	2	5	1	2	10	100	5	0	691	0	014005	2	5	1	2	11	101	7	0	661	0	014005	2	5	1	2	11	102	10	1	1696	0	014005	2	5	1	2	11	103	4	1	1235	0	014005	2	5	1	2	11	104	8	0	1498	0	014005	2	5	1	2	11	105	2	1	551	0	014005	2	5	1	2	11	106	9	0	1675	0	014005	2	5	1	2	11	107	5	0	98	0	014005	2	5	1	2	11	108	3	1	487	0	014005	2	5	1	2	11	109	6	0	400	0	014005	2	5	1	2	11	110	1	1	975	0	014005	2	5	1	2	12	111	2	1	609	0	014005	2	5	1	2	12	112	3	1	506	0	014005	2	5	1	2	12	113	1	1	918	0	014005	2	5	1	2	12	114	6	0	949	0	014005	2	5	1	2	12	115	8	0	789	0	014005	2	5	1	2	12	116	7	0	440	0	014005	2	5	1	2	12	117	10	1	288	0	014005	2	5	1	2	12	118	9	0	345	0	014005	2	5	1	2	12	119	5	0	846	0	014005	2	5	1	2	12	120	4	1	215	0	014005	2	5	1	2	13	121	3	1	248	0	014005	2	5	1	2	13	122	9	0	202	0	014005	2	5	1	2	13	123	6	0	545	0	014005	2	5	1	2	13	124	4	1	956	0	014005	2	5	1	2	13	125	5	0	372	0	014005	2	5	1	2	13	126	2	1	6	0	014005	2	5	1	2	13	127	1	1	263	0	014005	2	5	1	2	13	128	10	1	243	0	014005	2	5	1	2	13	129	8	0	266	0	014005	2	5	1	2	13	130	7	0	238	0	014006	2	6	2	1	1	1	5	0	2209	3	518314006	2	6	2	1	1	2	3	0	3934	3	298314006	2	6	2	1	1	3	4	1	701	3	128514006	2	6	2	1	1	4	1	0	3039	2	278614006	2	6	2	1	1	5	7	1	1171	2	238514006	2	6	2	1	1	6	8	1	5933	1	112814006	2	6	2	1	1	7	6	1	1330	3	201614006	2	6	2	1	1	8	2	1	1181	3	31014006	2	6	2	1	2	9	4	1	4892	2	289214006	2	6	2	1	2	10	7	1	4069	2	165814006	2	6	2	1	2	11	2	1	535	2	33314006	2	6	2	1	2	12	6	0	190	2	216114006	2	6	2	1	2	13	1	1	739	3	69914006	2	6	2	1	2	14	8	1	8	3	82114006	2	6	2	1	2	15	5	0	4329	2	134414006	2	6	2	1	2	16	3	1	1397	3	96014006	2	6	2	1	3	17	4	1	1992	3	40314006	2	6	2	1	3	18	7	1	89	2	143114006	2	6	2	1	3	19	5	1	678	3	33714006	2	6	2	1	3	20	6	1	1246	3	62014006	2	6	2	1	3	21	2	1	1415	2	224814006	2	6	2	1	3	22	3	1	1098	3	49114006	2	6	2	1	3	23	1	1	589	3	144014006	2	6	2	1	3	24	8	1	686	3	164414006	2	6	2	1	4	25	7	1	894	3	38314006	2	6	2	1	4	26	8	1	155	3	74214006	2	6	2	1	4	27	2	1	1281	3	46914006	2	6	2	1	4	28	4	1	1697	3	120214006	2	6	2	1	4	29	5	1	3840	2	408814006	2	6	2	1	4	30	1	1	355	3	31014006	2	6	2	1	4	31	6	1	634	3	65314006	2	6	2	1	4	32	3	1	278	3	37714006	2	6	2	1	5	33	6	1	5389	3	27514006	2	6	2	1	5	34	7	1	3801	3	74414006	2	6	2	1	5	35	1	1	7180	3	122414006	2	6	2	1	5	36	2	1	2204	3	225814006	2	6	2	1	5	37	5	1	8102	3	65114006	2	6	2	1	5	38	3	1	11859	3	37714006	2	6	2	1	5	39	8	1	158	2	178414006	2	6	2	1	5	40	4	1	1109	3	172514006	2	6	2	1	6	41	7	1	679	2	34614006	2	6	2	1	6	42	6	1	919	2	32214006	2	6	2	1	6	43	8	1	657	3	28614006	2	6	2	1	6	44	4	0	6639	2	157314006	2	6	2	1	6	45	2	1	4678	2	117914006	2	6	2	1	6	46	1	1	200	3	70714006	2	6	2	1	6	47	3	1	623	3	29614006	2	6	2	1	6	48	5	1	2928	3	110314006	2	6	2	2	1	1	1	1	2391	0	014006	2	6	2	2	1	2	10	1	2959	0	014006	2	6	2	2	1	3	3	1	537	0	014006	2	6	2	2	1	4	8	0	910	0	014006	2	6	2	2	1	5	4	0	629	0	014006	2	6	2	2	1	6	6	0	708	0	014006	2	6	2	2	1	7	5	1	2563	0	014006	2	6	2	2	1	8	2	1	325	0	014006	2	6	2	2	1	9	7	0	295	0	014006	2	6	2	2	1	10	9	1	627	0	014006	2	6	2	2	2	11	8	0	1431	0	014006	2	6	2	2	2	12	2	1	3230	0	014006	2	6	2	2	2	13	4	0	551	0	014006	2	6	2	2	2	14	9	0	309	0	014006	2	6	2	2	2	15	7	1	361	0	014006	2	6	2	2	2	16	1	1	336	0	014006	2	6	2	2	2	17	6	0	762	0	014006	2	6	2	2	2	18	10	0	576	0	014006	2	6	2	2	2	19	3	1	909	0	014006	2	6	2	2	2	20	5	0	1764	0	014006	2	6	2	2	3	21	6	1	734	0	014006	2	6	2	2	3	22	4	1	559	0	014006	2	6	2	2	3	23	7	0	1366	0	014006	2	6	2	2	3	24	1	0	904	0	014006	2	6	2	2	3	25	9	1	2172	0	014006	2	6	2	2	3	26	5	0	831	0	014006	2	6	2	2	3	27	2	1	627	0	014006	2	6	2	2	3	28	10	0	2831	0	014006	2	6	2	2	3	29	3	1	383	0	014006	2	6	2	2	3	30	8	0	931	0	014006	2	6	2	2	4	31	6	0	965	0	014006	2	6	2	2	4	32	7	0	983	0	014006	2	6	2	2	4	33	2	1	587	0	014006	2	6	2	2	4	34	4	1	279	0	014006	2	6	2	2	4	35	1	1	4774	0	014006	2	6	2	2	4	36	9	0	217	0	014006	2	6	2	2	4	37	8	1	141	0	014006	2	6	2	2	4	38	5	0	658	0	014006	2	6	2	2	4	39	10	0	2154	0	014006	2	6	2	2	4	40	3	1	3170	0	014006	2	6	2	2	5	41	2	0	1197	0	014006	2	6	2	2	5	42	4	1	2836	0	014006	2	6	2	2	5	43	8	0	3500	0	014006	2	6	2	2	5	44	1	0	418	0	014006	2	6	2	2	5	45	6	1	3037	0	014006	2	6	2	2	5	46	9	1	982	0	014006	2	6	2	2	5	47	3	1	218	0	014006	2	6	2	2	5	48	5	0	1190	0	014006	2	6	2	2	5	49	10	1	962	0	014006	2	6	2	2	5	50	7	0	5018	0	014006	2	6	2	2	6	51	2	1	295	0	014006	2	6	2	2	6	52	9	1	1697	0	014006	2	6	2	2	6	53	6	0	294	0	014006	2	6	2	2	6	54	5	1	1160	0	014006	2	6	2	2	6	55	7	0	1950	0	014006	2	6	2	2	6	56	4	1	2542	0	014006	2	6	2	2	6	57	3	0	3818	0	014006	2	6	2	2	6	58	10	1	1144	0	014006	2	6	2	2	6	59	1	1	317	0	014006	2	6	2	2	6	60	8	0	1012	0	014006	2	6	2	2	7	61	5	1	389	0	014006	2	6	2	2	7	62	10	0	729	0	014006	2	6	2	2	7	63	8	0	1299	0	014006	2	6	2	2	7	64	1	0	352	0	014006	2	6	2	2	7	65	6	0	6798	0	014006	2	6	2	2	7	66	7	0	696	0	014006	2	6	2	2	7	67	2	1	289	0	014006	2	6	2	2	7	68	4	0	843	0	014006	2	6	2	2	7	69	9	1	282	0	014006	2	6	2	2	7	70	3	0	257	0	014006	2	6	2	2	8	71	5	1	762	0	014006	2	6	2	2	8	72	6	0	105	0	014006	2	6	2	2	8	73	4	0	989	0	014006	2	6	2	2	8	74	2	1	482	0	014006	2	6	2	2	8	75	10	1	728	0	014006	2	6	2	2	8	76	9	0	682	0	014006	2	6	2	2	8	77	7	0	6896	0	014006	2	6	2	2	8	78	8	1	1647	0	014006	2	6	2	2	8	79	3	1	634	0	014006	2	6	2	2	8	80	1	0	769	0	014006	2	6	2	2	9	81	7	0	442	0	014006	2	6	2	2	9	82	2	1	953	0	014006	2	6	2	2	9	83	6	0	688	0	014006	2	6	2	2	9	84	1	0	5945	0	014006	2	6	2	2	9	85	8	1	504	0	014006	2	6	2	2	9	86	3	0	797	0	014006	2	6	2	2	9	87	9	0	692	0	014006	2	6	2	2	9	88	5	0	749	0	014006	2	6	2	2	9	89	10	0	385	0	014006	2	6	2	2	9	90	4	0	542	0	014006	2	6	2	2	10	91	9	0	641	0	014006	2	6	2	2	10	92	1	0	552	0	014006	2	6	2	2	10	93	8	0	655	0	014006	2	6	2	2	10	94	5	1	881	0	014006	2	6	2	2	10	95	3	1	1024	0	014006	2	6	2	2	10	96	6	0	540	0	014006	2	6	2	2	10	97	2	0	696	0	014006	2	6	2	2	10	98	10	0	954	0	014006	2	6	2	2	10	99	7	1	882	0	014006	2	6	2	2	10	100	4	1	48	0	014006	2	6	2	2	11	101	9	0	337	0	014006	2	6	2	2	11	102	2	1	2950	0	014006	2	6	2	2	11	103	1	1	1389	0	014006	2	6	2	2	11	104	3	1	1802	0	014006	2	6	2	2	11	105	10	1	564	0	014006	2	6	2	2	11	106	8	0	715	0	014006	2	6	2	2	11	107	7	0	642	0	014006	2	6	2	2	11	108	4	1	121	0	014006	2	6	2	2	11	109	6	0	624	0	014006	2	6	2	2	11	110	5	0	420	0	014006	2	6	2	2	12	111	4	1	359	0	014006	2	6	2	2	12	112	2	0	606	0	014006	2	6	2	2	12	113	10	0	1320	0	014006	2	6	2	2	12	114	3	1	408	0	014006	2	6	2	2	12	115	5	0	256	0	014006	2	6	2	2	12	116	1	0	1701	0	014006	2	6	2	2	12	117	8	1	794	0	014006	2	6	2	2	12	118	9	0	664	0	014006	2	6	2	2	12	119	6	0	660	0	014006	2	6	2	2	12	120	7	0	1617	0	014006	2	6	2	2	13	121	3	1	2342	0	014006	2	6	2	2	13	122	5	0	770	0	014006	2	6	2	2	13	123	1	1	460	0	014006	2	6	2	2	13	124	7	0	1777	0	014006	2	6	2	2	13	125	2	1	294	0	014006	2	6	2	2	13	126	6	0	366	0	014006	2	6	2	2	13	127	10	0	448	0	014006	2	6	2	2	13	128	8	0	578	0	014006	2	6	2	2	13	129	9	0	326	0	014006	2	6	2	2	13	130	4	0	391	0	014007	2	7	1	1	1	1	3	0	4275	1	586414007	2	7	1	1	1	2	7	0	4929	1	112914007	2	7	1	1	1	3	4	1	1891	1	484114007	2	7	1	1	1	4	6	1	2989	2	325614007	2	7	1	1	1	5	2	1	5750	3	984314007	2	7	1	1	1	6	8	0	1276	1	111914007	2	7	1	1	1	7	1	1	1577	1	124214007	2	7	1	1	1	8	5	1	2196	1	69614007	2	7	1	1	2	9	2	1	779	1	108414007	2	7	1	1	2	10	5	1	1702	1	83114007	2	7	1	1	2	11	4	1	1333	1	73114007	2	7	1	1	2	12	8	1	3861	1	62314007	2	7	1	1	2	13	1	1	2371	1	113014007	2	7	1	1	2	14	3	1	812	1	58614007	2	7	1	1	2	15	6	1	2005	2	57914007	2	7	1	1	2	16	7	1	744	1	56814007	2	7	1	1	3	17	5	1	642	1	48714007	2	7	1	1	3	18	7	1	4969	2	172114007	2	7	1	1	3	19	4	1	704	1	51214007	2	7	1	1	3	20	2	1	2935	1	63314007	2	7	1	1	3	21	3	1	1367	1	87714007	2	7	1	1	3	22	6	0	3149	1	230514007	2	7	1	1	3	23	1	1	1253	1	45414007	2	7	1	1	3	24	8	1	472	1	45114007	2	7	1	1	4	25	7	1	445	1	55414007	2	7	1	1	4	26	2	1	3664	1	81814007	2	7	1	1	4	27	6	1	3838	1	121114007	2	7	1	1	4	28	3	0	4173	1	158314007	2	7	1	1	4	29	1	0	2843	1	275414007	2	7	1	1	4	30	4	0	1051	1	64814007	2	7	1	1	4	31	8	0	2617	2	113114007	2	7	1	1	4	32	5	1	9252	2	44914007	2	7	1	1	5	33	8	1	963	1	103014007	2	7	1	1	5	34	6	1	2546	1	77114007	2	7	1	1	5	35	1	1	1189	1	74214007	2	7	1	1	5	36	4	1	2881	1	83714007	2	7	1	1	5	37	2	0	2325	2	157014007	2	7	1	1	5	38	3	1	549	1	86114007	2	7	1	1	5	39	5	1	2770	1	134514007	2	7	1	1	5	40	7	1	8181	2	64114007	2	7	1	1	6	41	2	0	2887	2	538214007	2	7	1	1	6	42	6	0	1316	1	55214007	2	7	1	1	6	43	7	1	1079	1	60214007	2	7	1	1	6	44	8	1	81	1	131514007	2	7	1	1	6	45	4	1	2003	1	74514007	2	7	1	1	6	46	1	1	1206	1	261114007	2	7	1	1	6	47	3	1	3502	1	137514007	2	7	1	1	6	48	5	1	4441	2	47214007	2	7	1	2	1	1	1	1	3022	0	014007	2	7	1	2	1	2	2	0	5114	0	014007	2	7	1	2	1	3	6	0	1212	0	014007	2	7	1	2	1	4	7	0	717	0	014007	2	7	1	2	1	5	5	1	1789	0	014007	2	7	1	2	1	6	8	1	644	0	014007	2	7	1	2	1	7	3	1	989	0	014007	2	7	1	2	1	8	9	1	1573	0	014007	2	7	1	2	1	9	10	0	442	0	014007	2	7	1	2	1	10	4	0	2811	0	014007	2	7	1	2	2	11	1	1	414	0	014007	2	7	1	2	2	12	10	0	280	0	014007	2	7	1	2	2	13	3	1	2726	0	014007	2	7	1	2	2	14	4	0	705	0	014007	2	7	1	2	2	15	8	1	572	0	014007	2	7	1	2	2	16	6	0	334	0	014007	2	7	1	2	2	17	9	1	576	0	014007	2	7	1	2	2	18	5	0	1266	0	014007	2	7	1	2	2	19	7	0	670	0	014007	2	7	1	2	2	20	2	1	786	0	014007	2	7	1	2	3	21	3	1	1319	0	014007	2	7	1	2	3	22	1	1	390	0	014007	2	7	1	2	3	23	7	0	354	0	014007	2	7	1	2	3	24	10	1	377	0	014007	2	7	1	2	3	25	2	0	2034	0	014007	2	7	1	2	3	26	9	1	538	0	014007	2	7	1	2	3	27	6	0	399	0	014007	2	7	1	2	3	28	4	1	5333	0	014007	2	7	1	2	3	29	8	1	313	0	014007	2	7	1	2	3	30	5	0	344	0	014007	2	7	1	2	4	31	10	0	404	0	014007	2	7	1	2	4	32	4	1	350	0	014007	2	7	1	2	4	33	6	0	4585	0	014007	2	7	1	2	4	34	2	1	304	0	014007	2	7	1	2	4	35	5	0	708	0	014007	2	7	1	2	4	36	9	1	872	0	014007	2	7	1	2	4	37	3	1	711	0	014007	2	7	1	2	4	38	8	1	478	0	014007	2	7	1	2	4	39	7	0	662	0	014007	2	7	1	2	4	40	1	1	385	0	014007	2	7	1	2	5	41	5	0	902	0	014007	2	7	1	2	5	42	10	0	922	0	014007	2	7	1	2	5	43	1	1	273	0	014007	2	7	1	2	5	44	3	1	320	0	014007	2	7	1	2	5	45	8	1	407	0	014007	2	7	1	2	5	46	9	1	296	0	014007	2	7	1	2	5	47	2	1	394	0	014007	2	7	1	2	5	48	7	0	321	0	014007	2	7	1	2	5	49	4	0	376	0	014007	2	7	1	2	5	50	6	0	329	0	014007	2	7	1	2	6	51	8	1	538	0	014007	2	7	1	2	6	52	6	0	399	0	014007	2	7	1	2	6	53	10	0	262	0	014007	2	7	1	2	6	54	5	0	673	0	014007	2	7	1	2	6	55	9	1	321	0	014007	2	7	1	2	6	56	1	1	304	0	014007	2	7	1	2	6	57	3	1	387	0	014007	2	7	1	2	6	58	2	1	296	0	014007	2	7	1	2	6	59	7	0	753	0	014007	2	7	1	2	6	60	4	0	1713	0	014007	2	7	1	2	7	61	8	1	352	0	014007	2	7	1	2	7	62	1	1	447	0	014007	2	7	1	2	7	63	9	1	369	0	014007	2	7	1	2	7	64	7	0	481	0	014007	2	7	1	2	7	65	3	1	312	0	014007	2	7	1	2	7	66	2	1	336	0	014007	2	7	1	2	7	67	6	0	457	0	014007	2	7	1	2	7	68	5	0	346	0	014007	2	7	1	2	7	69	4	0	335	0	014007	2	7	1	2	7	70	10	0	320	0	014007	2	7	1	2	8	71	4	0	406	0	014007	2	7	1	2	8	72	6	0	736	0	014007	2	7	1	2	8	73	2	1	338	0	014007	2	7	1	2	8	74	7	0	572	0	014007	2	7	1	2	8	75	10	0	733	0	014007	2	7	1	2	8	76	1	1	271	0	014007	2	7	1	2	8	77	8	1	1262	0	014007	2	7	1	2	8	78	9	1	322	0	014007	2	7	1	2	8	79	5	0	473	0	014007	2	7	1	2	8	80	3	1	592	0	014007	2	7	1	2	9	81	4	0	1190	0	014007	2	7	1	2	9	82	1	1	1502	0	014007	2	7	1	2	9	83	6	1	2915	0	014007	2	7	1	2	9	84	7	0	282	0	014007	2	7	1	2	9	85	10	0	362	0	014007	2	7	1	2	9	86	3	1	385	0	014007	2	7	1	2	9	87	9	1	428	0	014007	2	7	1	2	9	88	5	0	313	0	014007	2	7	1	2	9	89	2	1	328	0	014007	2	7	1	2	9	90	8	1	785	0	014007	2	7	1	2	10	91	10	0	1357	0	014007	2	7	1	2	10	92	5	0	2821	0	014007	2	7	1	2	10	93	8	1	330	0	014007	2	7	1	2	10	94	6	0	1131	0	014007	2	7	1	2	10	95	7	0	293	0	014007	2	7	1	2	10	96	2	1	367	0	014007	2	7	1	2	10	97	3	1	304	0	014007	2	7	1	2	10	98	4	0	268	0	014007	2	7	1	2	10	99	9	1	257	0	014007	2	7	1	2	10	100	1	1	149	0	014007	2	7	1	2	11	101	10	0	305	0	014007	2	7	1	2	11	102	5	0	293	0	014007	2	7	1	2	11	103	9	1	1975	0	014007	2	7	1	2	11	104	7	0	280	0	014007	2	7	1	2	11	105	3	1	439	0	014007	2	7	1	2	11	106	1	1	431	0	014007	2	7	1	2	11	107	6	0	293	0	014007	2	7	1	2	11	108	4	0	238	0	014007	2	7	1	2	11	109	8	1	334	0	014007	2	7	1	2	11	110	2	1	311	0	014007	2	7	1	2	12	111	10	0	341	0	014007	2	7	1	2	12	112	6	0	258	0	014007	2	7	1	2	12	113	9	1	326	0	014007	2	7	1	2	12	114	5	0	328	0	014007	2	7	1	2	12	115	3	1	393	0	014007	2	7	1	2	12	116	1	1	216	0	014007	2	7	1	2	12	117	4	0	330	0	014007	2	7	1	2	12	118	7	0	306	0	014007	2	7	1	2	12	119	2	1	1095	0	014007	2	7	1	2	12	120	8	1	361	0	014007	2	7	1	2	13	121	6	0	240	0	014007	2	7	1	2	13	122	5	0	230	0	014007	2	7	1	2	13	123	1	1	499	0	014007	2	7	1	2	13	124	3	1	287	0	014007	2	7	1	2	13	125	7	0	296	0	014007	2	7	1	2	13	126	10	0	274	0	014007	2	7	1	2	13	127	4	0	225	0	014007	2	7	1	2	13	128	2	1	77	0	014007	2	7	1	2	13	129	8	1	283	0	014007	2	7	1	2	13	130	9	1	282	0	014008	2	8	2	1	1	1	6	0	2117	3	230414008	2	8	2	1	1	2	2	0	1661	3	114214008	2	8	2	1	1	3	5	1	4307	2	106414008	2	8	2	1	1	4	8	0	3915	3	83214008	2	8	2	1	1	5	7	0	6967	3	98414008	2	8	2	1	1	6	1	0	1093	3	78614008	2	8	2	1	1	7	3	0	4521	3	84814008	2	8	2	1	1	8	4	1	2762	1	340914008	2	8	2	1	2	9	8	0	2012	3	65014008	2	8	2	1	2	10	5	0	7971	3	108414008	2	8	2	1	2	11	2	0	7326	2	52714008	2	8	2	1	2	12	4	1	1625	1	94514008	2	8	2	1	2	13	1	1	1205	1	81914008	2	8	2	1	2	14	3	1	1855	1	77614008	2	8	2	1	2	15	7	0	1194	3	249314008	2	8	2	1	2	16	6	1	1504	1	75314008	2	8	2	1	3	17	5	0	3615	2	114514008	2	8	2	1	3	18	7	0	1821	3	141414008	2	8	2	1	3	19	8	0	3896	2	206614008	2	8	2	1	3	20	2	0	10646	1	462514008	2	8	2	1	3	21	6	0	6711	3	49314008	2	8	2	1	3	22	4	1	814	3	115014008	2	8	2	1	3	23	1	1	1646	2	117214008	2	8	2	1	3	24	3	1	2126	3	64414008	2	8	2	1	4	25	4	1	1542	3	56714008	2	8	2	1	4	26	3	1	2081	3	56314008	2	8	2	1	4	27	8	1	3010	1	60914008	2	8	2	1	4	28	6	1	515	3	65414008	2	8	2	1	4	29	5	0	896	3	46114008	2	8	2	1	4	30	1	1	11377	1	62214008	2	8	2	1	4	31	7	0	3211	2	58514008	2	8	2	1	4	32	2	1	902	2	59014008	2	8	2	1	5	33	3	1	1091	3	35214008	2	8	2	1	5	34	5	1	1903	1	42314008	2	8	2	1	5	35	7	1	532	3	211314008	2	8	2	1	5	36	4	1	985	2	56214008	2	8	2	1	5	37	1	1	217	3	73414008	2	8	2	1	5	38	6	1	1672	3	47614008	2	8	2	1	5	39	2	0	5090	2	52914008	2	8	2	1	5	40	8	0	6755	2	42514008	2	8	2	1	6	41	6	1	685	3	45114008	2	8	2	1	6	42	5	1	612	3	50514008	2	8	2	1	6	43	2	1	1622	2	33414008	2	8	2	1	6	44	8	0	4232	2	209314008	2	8	2	1	6	45	1	1	735	3	46114008	2	8	2	1	6	46	7	1	3160	2	38114008	2	8	2	1	6	47	4	1	993	3	34814008	2	8	2	1	6	48	3	1	11904	2	46514008	2	8	2	2	1	1	6	0	1594	0	014008	2	8	2	2	1	2	2	0	3834	0	014008	2	8	2	2	1	3	5	0	4699	0	014008	2	8	2	2	1	4	1	1	392	0	014008	2	8	2	2	1	5	9	1	463	0	014008	2	8	2	2	1	6	8	1	411	0	014008	2	8	2	2	1	7	4	1	1325	0	014008	2	8	2	2	1	8	3	0	551	0	014008	2	8	2	2	1	9	10	0	3773	0	014008	2	8	2	2	1	10	7	0	12483	0	014008	2	8	2	2	2	11	9	0	267	0	014008	2	8	2	2	2	12	1	1	615	0	014008	2	8	2	2	2	13	2	0	1096	0	014008	2	8	2	2	2	14	8	0	1770	0	014008	2	8	2	2	2	15	3	0	4620	0	014008	2	8	2	2	2	16	7	1	930	0	014008	2	8	2	2	2	17	5	0	3035	0	014008	2	8	2	2	2	18	10	0	4372	0	014008	2	8	2	2	2	19	4	1	2287	0	014008	2	8	2	2	2	20	6	1	5106	0	014008	2	8	2	2	3	21	8	0	6231	0	014008	2	8	2	2	3	22	7	1	7273	0	014008	2	8	2	2	3	23	4	0	971	0	014008	2	8	2	2	3	24	3	0	925	0	014008	2	8	2	2	3	25	5	0	598	0	014008	2	8	2	2	3	26	9	1	1221	0	014008	2	8	2	2	3	27	6	0	354	0	014008	2	8	2	2	3	28	10	0	4345	0	014008	2	8	2	2	3	29	2	0	470	0	014008	2	8	2	2	3	30	1	1	363	0	014008	2	8	2	2	4	31	6	0	506	0	014008	2	8	2	2	4	32	10	0	1894	0	014008	2	8	2	2	4	33	3	0	2488	0	014008	2	8	2	2	4	34	7	1	875	0	014008	2	8	2	2	4	35	5	0	2545	0	014008	2	8	2	2	4	36	9	1	7990	0	014008	2	8	2	2	4	37	2	1	2385	0	014008	2	8	2	2	4	38	8	0	5117	0	014008	2	8	2	2	4	39	1	1	1711	0	014008	2	8	2	2	4	40	4	1	2110	0	014008	2	8	2	2	5	41	7	1	574	0	014008	2	8	2	2	5	42	6	0	5000	0	014008	2	8	2	2	5	43	1	1	408	0	014008	2	8	2	2	5	44	8	1	13322	0	014008	2	8	2	2	5	45	9	1	2026	0	014008	2	8	2	2	5	46	3	0	7142	0	014008	2	8	2	2	5	47	5	0	4357	0	014008	2	8	2	2	5	48	2	1	1534	0	014008	2	8	2	2	5	49	10	0	1967	0	014008	2	8	2	2	5	50	4	1	274	0	014008	2	8	2	2	6	51	5	0	297	0	014008	2	8	2	2	6	52	4	0	242	0	014008	2	8	2	2	6	53	2	1	249	0	014008	2	8	2	2	6	54	1	1	235	0	014008	2	8	2	2	6	55	7	1	306	0	014008	2	8	2	2	6	56	10	0	230	0	014008	2	8	2	2	6	57	8	0	233	0	014008	2	8	2	2	6	58	3	0	336	0	014008	2	8	2	2	6	59	6	0	442	0	014008	2	8	2	2	6	60	9	1	361	0	014008	2	8	2	2	7	61	5	0	320	0	014008	2	8	2	2	7	62	1	1	231	0	014008	2	8	2	2	7	63	2	1	262	0	014008	2	8	2	2	7	64	9	0	449	0	014008	2	8	2	2	7	65	8	0	523	0	014008	2	8	2	2	7	66	7	1	658	0	014008	2	8	2	2	7	67	3	0	294	0	014008	2	8	2	2	7	68	6	0	392	0	014008	2	8	2	2	7	69	4	0	1079	0	014008	2	8	2	2	7	70	10	1	293	0	014008	2	8	2	2	8	71	4	1	382	0	014008	2	8	2	2	8	72	8	0	555	0	014008	2	8	2	2	8	73	6	0	234	0	014008	2	8	2	2	8	74	2	1	281	0	014008	2	8	2	2	8	75	1	1	456	0	014008	2	8	2	2	8	76	7	1	593	0	014008	2	8	2	2	8	77	5	0	1159	0	014008	2	8	2	2	8	78	9	1	295	0	014008	2	8	2	2	8	79	10	0	664	0	014008	2	8	2	2	8	80	3	0	453	0	014008	2	8	2	2	9	81	2	1	327	0	014008	2	8	2	2	9	82	3	0	408	0	014008	2	8	2	2	9	83	5	0	290	0	014008	2	8	2	2	9	84	4	1	163	0	014008	2	8	2	2	9	85	6	0	169	0	014008	2	8	2	2	9	86	8	1	419	0	014008	2	8	2	2	9	87	9	0	447	0	014008	2	8	2	2	9	88	1	1	393	0	014008	2	8	2	2	9	89	7	1	384	0	014008	2	8	2	2	9	90	10	0	388	0	014008	2	8	2	2	10	91	6	0	256	0	014008	2	8	2	2	10	92	2	1	721	0	014008	2	8	2	2	10	93	9	0	240	0	014008	2	8	2	2	10	94	5	0	367	0	014008	2	8	2	2	10	95	1	1	569	0	014008	2	8	2	2	10	96	8	0	282	0	014008	2	8	2	2	10	97	3	0	297	0	014008	2	8	2	2	10	98	7	1	771	0	014008	2	8	2	2	10	99	4	1	244	0	014008	2	8	2	2	10	100	10	0	277	0	014008	2	8	2	2	11	101	8	0	500	0	014008	2	8	2	2	11	102	7	1	337	0	014008	2	8	2	2	11	103	1	1	586	0	014008	2	8	2	2	11	104	2	1	615	0	014008	2	8	2	2	11	105	9	1	423	0	014008	2	8	2	2	11	106	4	1	604	0	014008	2	8	2	2	11	107	3	0	286	0	014008	2	8	2	2	11	108	5	0	295	0	014008	2	8	2	2	11	109	6	0	305	0	014008	2	8	2	2	11	110	10	0	309	0	014008	2	8	2	2	12	111	1	1	361	0	014008	2	8	2	2	12	112	3	0	544	0	014008	2	8	2	2	12	113	7	1	364	0	014008	2	8	2	2	12	114	9	0	315	0	014008	2	8	2	2	12	115	2	1	370	0	014008	2	8	2	2	12	116	5	0	267	0	014008	2	8	2	2	12	117	6	0	295	0	014008	2	8	2	2	12	118	4	1	601	0	014008	2	8	2	2	12	119	10	0	336	0	014008	2	8	2	2	12	120	8	0	505	0	014008	2	8	2	2	13	121	9	1	277	0	014008	2	8	2	2	13	122	3	0	516	0	014008	2	8	2	2	13	123	7	0	323	0	014008	2	8	2	2	13	124	8	0	274	0	014008	2	8	2	2	13	125	5	0	305	0	014008	2	8	2	2	13	126	2	1	269	0	014008	2	8	2	2	13	127	4	1	273	0	014008	2	8	2	2	13	128	6	0	279	0	014008	2	8	2	2	13	129	10	0	334	0	014008	2	8	2	2	13	130	1	1	296	0	014009	2	1	2	1	1	1	6	0	3175	3	297614009	2	1	2	1	1	2	1	0	1670	3	156914009	2	1	2	1	1	3	7	0	715	3	129414009	2	1	2	1	1	4	5	0	75	3	94914009	2	1	2	1	1	5	8	1	789	1	168014009	2	1	2	1	1	6	4	1	1377	2	299414009	2	1	2	1	1	7	3	1	5490	1	124214009	2	1	2	1	1	8	2	0	1548	1	74114009	2	1	2	1	2	9	3	1	433	2	42014009	2	1	2	1	2	10	5	0	488	1	138214009	2	1	2	1	2	11	8	1	395	2	54914009	2	1	2	1	2	12	6	1	97	2	118514009	2	1	2	1	2	13	7	1	590	3	51814009	2	1	2	1	2	14	4	0	4437	1	95414009	2	1	2	1	2	15	1	0	497	2	227914009	2	1	2	1	2	16	2	1	270	2	134214009	2	1	2	1	3	17	4	0	1387	1	162014009	2	1	2	1	3	18	3	1	265	3	54514009	2	1	2	1	3	19	7	1	356	2	83914009	2	1	2	1	3	20	6	0	767	2	63614009	2	1	2	1	3	21	1	1	732	1	58414009	2	1	2	1	3	22	5	1	301	1	76514009	2	1	2	1	3	23	2	1	335	2	96514009	2	1	2	1	3	24	8	1	4006	1	155714009	2	1	2	1	4	25	1	1	45	1	47414009	2	1	2	1	4	26	2	1	297	3	35914009	2	1	2	1	4	27	5	1	781	2	45314009	2	1	2	1	4	28	8	0	4447	1	103814009	2	1	2	1	4	29	3	1	3253	1	98914009	2	1	2	1	4	30	4	0	1209	1	91814009	2	1	2	1	4	31	7	0	1030	1	68114009	2	1	2	1	4	32	6	0	456	1	77414009	2	1	2	1	5	33	4	1	6455	2	108214009	2	1	2	1	5	34	1	1	1425	2	55314009	2	1	2	1	5	35	6	1	2329	3	45514009	2	1	2	1	5	36	8	1	289	2	95114009	2	1	2	1	5	37	5	0	421	1	361314009	2	1	2	1	5	38	7	0	2609	2	212614009	2	1	2	1	5	39	2	0	1145	1	61014009	2	1	2	1	5	40	3	1	1572	2	220914009	2	1	2	1	6	41	2	0	3492	1	148314009	2	1	2	1	6	42	1	0	1276	1	83214009	2	1	2	1	6	43	8	1	351	2	146614009	2	1	2	1	6	44	4	1	4822	2	154414009	2	1	2	1	6	45	5	0	6780	1	67214009	2	1	2	1	6	46	6	1	111	3	38314009	2	1	2	1	6	47	3	1	3979	1	90114009	2	1	2	1	6	48	7	1	1722	2	154914009	2	1	2	2	1	1	4	0	5530	0	014009	2	1	2	2	1	2	5	0	721	0	014009	2	1	2	2	1	3	7	0	4375	0	014009	2	1	2	2	1	4	8	1	302	0	014009	2	1	2	2	1	5	3	1	322	0	014009	2	1	2	2	1	6	2	1	265	0	014009	2	1	2	2	1	7	10	0	229	0	014009	2	1	2	2	1	8	9	1	569	0	014009	2	1	2	2	1	9	6	0	291	0	014009	2	1	2	2	1	10	1	1	532	0	014009	2	1	2	2	2	11	2	1	294	0	014009	2	1	2	2	2	12	10	0	3871	0	014009	2	1	2	2	2	13	3	0	1528	0	014009	2	1	2	2	2	14	7	1	1978	0	014009	2	1	2	2	2	15	5	1	494	0	014009	2	1	2	2	2	16	4	0	1144	0	014009	2	1	2	2	2	17	9	1	5028	0	014009	2	1	2	2	2	18	6	1	4342	0	014009	2	1	2	2	2	19	1	0	195	0	014009	2	1	2	2	2	20	8	0	202	0	014009	2	1	2	2	3	21	7	1	1105	0	014009	2	1	2	2	3	22	5	0	270	0	014009	2	1	2	2	3	23	8	1	425	0	014009	2	1	2	2	3	24	2	0	1198	0	014009	2	1	2	2	3	25	4	0	1517	0	014009	2	1	2	2	3	26	10	1	1404	0	014009	2	1	2	2	3	27	1	1	543	0	014009	2	1	2	2	3	28	6	0	299	0	014009	2	1	2	2	3	29	3	1	1814	0	014009	2	1	2	2	3	30	9	1	1052	0	014009	2	1	2	2	4	31	6	0	638	0	014009	2	1	2	2	4	32	9	1	284	0	014009	2	1	2	2	4	33	5	0	574	0	014009	2	1	2	2	4	34	3	0	40	0	014009	2	1	2	2	4	35	4	1	399	0	014009	2	1	2	2	4	36	10	0	285	0	014009	2	1	2	2	4	37	8	1	3487	0	014009	2	1	2	2	4	38	2	0	1185	0	014009	2	1	2	2	4	39	7	1	1670	0	014009	2	1	2	2	4	40	1	1	1614	0	014009	2	1	2	2	5	41	10	0	351	0	014009	2	1	2	2	5	42	9	1	270	0	014009	2	1	2	2	5	43	2	1	461	0	014009	2	1	2	2	5	44	1	1	250	0	014009	2	1	2	2	5	45	6	0	379	0	014009	2	1	2	2	5	46	4	0	9422	0	014009	2	1	2	2	5	47	5	0	223	0	014009	2	1	2	2	5	48	7	1	276	0	014009	2	1	2	2	5	49	8	0	290	0	014009	2	1	2	2	5	50	3	1	467	0	014009	2	1	2	2	6	51	2	1	360	0	014009	2	1	2	2	6	52	4	1	1254	0	014009	2	1	2	2	6	53	9	1	360	0	014009	2	1	2	2	6	54	7	0	743	0	014009	2	1	2	2	6	55	5	0	380	0	014009	2	1	2	2	6	56	1	1	328	0	014009	2	1	2	2	6	57	3	0	281	0	014009	2	1	2	2	6	58	6	0	640	0	014009	2	1	2	2	6	59	10	0	256	0	014009	2	1	2	2	6	60	8	0	448	0	014009	2	1	2	2	7	61	2	1	1482	0	014009	2	1	2	2	7	62	9	1	258	0	014009	2	1	2	2	7	63	3	0	2509	0	014009	2	1	2	2	7	64	5	0	278	0	014009	2	1	2	2	7	65	6	0	253	0	014009	2	1	2	2	7	66	7	0	469	0	014009	2	1	2	2	7	67	4	0	229	0	014009	2	1	2	2	7	68	1	1	217	0	014009	2	1	2	2	7	69	10	1	1764	0	014009	2	1	2	2	7	70	8	1	575	0	014009	2	1	2	2	8	71	10	1	145	0	014009	2	1	2	2	8	72	3	1	261	0	014009	2	1	2	2	8	73	2	1	288	0	014009	2	1	2	2	8	74	1	1	226	0	014009	2	1	2	2	8	75	6	0	271	0	014009	2	1	2	2	8	76	8	0	1989	0	014009	2	1	2	2	8	77	9	1	258	0	014009	2	1	2	2	8	78	4	0	238	0	014009	2	1	2	2	8	79	7	0	7492	0	014009	2	1	2	2	8	80	5	0	234	0	014009	2	1	2	2	9	81	9	1	272	0	014009	2	1	2	2	9	82	3	1	367	0	014009	2	1	2	2	9	83	8	0	873	0	014009	2	1	2	2	9	84	5	0	287	0	014009	2	1	2	2	9	85	7	1	393	0	014009	2	1	2	2	9	86	1	1	248	0	014009	2	1	2	2	9	87	2	1	170	0	014009	2	1	2	2	9	88	6	0	330	0	014009	2	1	2	2	9	89	10	0	292	0	014009	2	1	2	2	9	90	4	0	2550	0	014009	2	1	2	2	10	91	5	0	2101	0	014009	2	1	2	2	10	92	10	0	539	0	014009	2	1	2	2	10	93	2	1	2551	0	014009	2	1	2	2	10	94	1	1	3422	0	014009	2	1	2	2	10	95	9	1	389	0	014009	2	1	2	2	10	96	4	0	1456	0	014009	2	1	2	2	10	97	8	1	1442	0	014009	2	1	2	2	10	98	6	0	253	0	014009	2	1	2	2	10	99	3	1	517	0	014009	2	1	2	2	10	100	7	1	549	0	014009	2	1	2	2	11	101	5	0	321	0	014009	2	1	2	2	11	102	2	1	264	0	014009	2	1	2	2	11	103	7	0	252	0	014009	2	1	2	2	11	104	9	1	229	0	014009	2	1	2	2	11	105	4	0	250	0	014009	2	1	2	2	11	106	3	1	283	0	014009	2	1	2	2	11	107	10	0	268	0	014009	2	1	2	2	11	108	1	1	241	0	014009	2	1	2	2	11	109	6	0	320	0	014009	2	1	2	2	11	110	8	0	526	0	014009	2	1	2	2	12	111	1	1	416	0	014009	2	1	2	2	12	112	9	1	241	0	014009	2	1	2	2	12	113	6	1	368	0	014009	2	1	2	2	12	114	3	1	401	0	014009	2	1	2	2	12	115	5	0	888	0	014009	2	1	2	2	12	116	7	1	74	0	014009	2	1	2	2	12	117	4	0	2416	0	014009	2	1	2	2	12	118	2	1	398	0	014009	2	1	2	2	12	119	10	0	125	0	014009	2	1	2	2	12	120	8	0	255	0	014009	2	1	2	2	13	121	2	1	271	0	014009	2	1	2	2	13	122	5	0	959	0	014009	2	1	2	2	13	123	1	0	1365	0	014009	2	1	2	2	13	124	7	0	247	0	014009	2	1	2	2	13	125	6	0	233	0	014009	2	1	2	2	13	126	4	0	208	0	014009	2	1	2	2	13	127	10	0	233	0	014009	2	1	2	2	13	128	9	1	240	0	014009	2	1	2	2	13	129	8	1	263	0	014009	2	1	2	2	13	130	3	0	523	0	014010	2	2	1	1	1	1	5	0	3673	1	229414010	2	2	1	1	1	2	7	1	787	3	141114010	2	2	1	1	1	3	1	0	1310	1	99314010	2	2	1	1	1	4	6	0	928	1	493314010	2	2	1	1	1	5	3	1	7292	1	231214010	2	2	1	1	1	6	4	1	5087	3	211914010	2	2	1	1	1	7	2	1	695	3	50414010	2	2	1	1	1	8	8	1	1172	3	63414010	2	2	1	1	2	9	7	1	48	3	60614010	2	2	1	1	2	10	5	1	559	3	56214010	2	2	1	1	2	11	4	1	602	3	44514010	2	2	1	1	2	12	1	1	926	2	96414010	2	2	1	1	2	13	2	1	181	3	81314010	2	2	1	1	2	14	6	1	631	1	115414010	2	2	1	1	2	15	8	1	322	1	85314010	2	2	1	1	2	16	3	0	559	2	93014010	2	2	1	1	3	17	2	1	1179	1	62714010	2	2	1	1	3	18	5	1	1656	3	74214010	2	2	1	1	3	19	6	1	435	3	120614010	2	2	1	1	3	20	1	1	344	2	151214010	2	2	1	1	3	21	8	1	7	2	92414010	2	2	1	1	3	22	3	1	462	3	86314010	2	2	1	1	3	23	4	1	931	3	57714010	2	2	1	1	3	24	7	0	1347	2	93214010	2	2	1	1	4	25	8	1	189	3	142114010	2	2	1	1	4	26	2	1	674	3	188514010	2	2	1	1	4	27	5	0	1015	3	66914010	2	2	1	1	4	28	1	1	770	2	74314010	2	2	1	1	4	29	7	1	819	3	111614010	2	2	1	1	4	30	3	1	715	3	78214010	2	2	1	1	4	31	4	1	1195	2	235014010	2	2	1	1	4	32	6	1	1387	3	113114010	2	2	1	1	5	33	5	1	741	3	53414010	2	2	1	1	5	34	7	1	160	3	88214010	2	2	1	1	5	35	8	1	1178	3	43414010	2	2	1	1	5	36	1	1	857	3	51014010	2	2	1	1	5	37	6	1	4030	3	94614010	2	2	1	1	5	38	2	1	1847	2	91714010	2	2	1	1	5	39	4	1	1084	2	625814010	2	2	1	1	5	40	3	0	1057	1	138614010	2	2	1	1	6	41	4	1	662	3	65414010	2	2	1	1	6	42	3	1	1472	3	591514010	2	2	1	1	6	43	1	1	573	2	81114010	2	2	1	1	6	44	8	1	637	1	114314010	2	2	1	1	6	45	6	1	1996	3	80014010	2	2	1	1	6	46	7	1	487	3	84414010	2	2	1	1	6	47	2	1	831	3	289414010	2	2	1	1	6	48	5	1	513	3	104414010	2	2	1	2	1	1	8	0	2896	0	014010	2	2	1	2	1	2	5	1	1637	0	014010	2	2	1	2	1	3	7	1	1021	0	014010	2	2	1	2	1	4	1	1	713	0	014010	2	2	1	2	1	5	6	0	544	0	014010	2	2	1	2	1	6	3	1	517	0	014010	2	2	1	2	1	7	9	0	972	0	014010	2	2	1	2	1	8	10	0	462	0	014010	2	2	1	2	1	9	2	1	2945	0	014010	2	2	1	2	1	10	4	1	823	0	014010	2	2	1	2	2	11	9	0	476	0	014010	2	2	1	2	2	12	5	0	403	0	014010	2	2	1	2	2	13	3	0	90	0	014010	2	2	1	2	2	14	6	0	43	0	014010	2	2	1	2	2	15	4	1	484	0	014010	2	2	1	2	2	16	8	1	1158	0	014010	2	2	1	2	2	17	7	0	470	0	014010	2	2	1	2	2	18	10	0	189	0	014010	2	2	1	2	2	19	1	0	2048	0	014010	2	2	1	2	2	20	2	0	4123	0	014010	2	2	1	2	3	21	6	1	895	0	014010	2	2	1	2	3	22	9	0	1153	0	014010	2	2	1	2	3	23	4	0	655	0	014010	2	2	1	2	3	24	1	1	169	0	014010	2	2	1	2	3	25	2	0	739	0	014010	2	2	1	2	3	26	10	0	783	0	014010	2	2	1	2	3	27	3	1	2387	0	014010	2	2	1	2	3	28	5	1	136	0	014010	2	2	1	2	3	29	7	0	613	0	014010	2	2	1	2	3	30	8	0	3111	0	014010	2	2	1	2	4	31	5	1	1182	0	014010	2	2	1	2	4	32	2	1	739	0	014010	2	2	1	2	4	33	8	0	152	0	014010	2	2	1	2	4	34	1	1	711	0	014010	2	2	1	2	4	35	4	0	5717	0	014010	2	2	1	2	4	36	7	0	95	0	014010	2	2	1	2	4	37	9	1	680	0	014010	2	2	1	2	4	38	10	1	504	0	014010	2	2	1	2	4	39	3	0	6115	0	014010	2	2	1	2	4	40	6	1	53	0	014010	2	2	1	2	5	41	2	0	2471	0	014010	2	2	1	2	5	42	8	0	847	0	014010	2	2	1	2	5	43	5	0	20015	0	014010	2	2	1	2	5	44	4	0	854	0	014010	2	2	1	2	5	45	3	1	344	0	014010	2	2	1	2	5	46	9	1	892	0	014010	2	2	1	2	5	47	10	0	718	0	014010	2	2	1	2	5	48	6	0	773	0	014010	2	2	1	2	5	49	1	1	847	0	014010	2	2	1	2	5	50	7	1	265	0	014010	2	2	1	2	6	51	10	1	829	0	014010	2	2	1	2	6	52	7	0	7145	0	014010	2	2	1	2	6	53	9	0	1281	0	014010	2	2	1	2	6	54	6	0	904	0	014010	2	2	1	2	6	55	5	0	941	0	014010	2	2	1	2	6	56	3	1	4097	0	014010	2	2	1	2	6	57	2	1	2167	0	014010	2	2	1	2	6	58	4	1	1442	0	014010	2	2	1	2	6	59	8	0	392	0	014010	2	2	1	2	6	60	1	1	711	0	014010	2	2	1	2	7	61	10	0	1063	0	014010	2	2	1	2	7	62	7	0	684	0	014010	2	2	1	2	7	63	2	1	1469	0	014010	2	2	1	2	7	64	3	1	3761	0	014010	2	2	1	2	7	65	6	0	642	0	014010	2	2	1	2	7	66	4	1	1482	0	014010	2	2	1	2	7	67	8	0	772	0	014010	2	2	1	2	7	68	1	1	1413	0	014010	2	2	1	2	7	69	9	0	2815	0	014010	2	2	1	2	7	70	5	1	5370	0	014010	2	2	1	2	8	71	4	1	1702	0	014010	2	2	1	2	8	72	5	0	1203	0	014010	2	2	1	2	8	73	3	1	61	0	014010	2	2	1	2	8	74	6	0	1521	0	014010	2	2	1	2	8	75	2	0	680	0	014010	2	2	1	2	8	76	1	1	1111	0	014010	2	2	1	2	8	77	9	0	1407	0	014010	2	2	1	2	8	78	7	1	577	0	014010	2	2	1	2	8	79	8	0	739	0	014010	2	2	1	2	8	80	10	1	1255	0	014010	2	2	1	2	9	81	9	1	937	0	014010	2	2	1	2	9	82	2	1	7277	0	014010	2	2	1	2	9	83	3	0	535	0	014010	2	2	1	2	9	84	10	0	681	0	014010	2	2	1	2	9	85	6	1	4360	0	014010	2	2	1	2	9	86	8	0	1512	0	014010	2	2	1	2	9	87	7	0	3128	0	014010	2	2	1	2	9	88	4	0	3075	0	014010	2	2	1	2	9	89	1	1	1483	0	014010	2	2	1	2	9	90	5	0	413	0	014010	2	2	1	2	10	91	2	0	1855	0	014010	2	2	1	2	10	92	5	1	154	0	014010	2	2	1	2	10	93	8	1	649	0	014010	2	2	1	2	10	94	9	0	1082	0	014010	2	2	1	2	10	95	3	0	516	0	014010	2	2	1	2	10	96	1	0	2267	0	014010	2	2	1	2	10	97	10	1	1648	0	014010	2	2	1	2	10	98	6	0	379	0	014010	2	2	1	2	10	99	4	0	2974	0	014010	2	2	1	2	10	100	7	1	1225	0	014010	2	2	1	2	11	101	4	0	838	0	014010	2	2	1	2	11	102	5	1	1157	0	014010	2	2	1	2	11	103	8	0	1124	0	014010	2	2	1	2	11	104	1	0	478	0	014010	2	2	1	2	11	105	6	1	1317	0	014010	2	2	1	2	11	106	9	0	461	0	014010	2	2	1	2	11	107	3	0	1649	0	014010	2	2	1	2	11	108	7	0	611	0	014010	2	2	1	2	11	109	2	1	717	0	014010	2	2	1	2	11	110	10	0	468	0	014010	2	2	1	2	12	111	2	0	336	0	014010	2	2	1	2	12	112	8	0	66	0	014010	2	2	1	2	12	113	9	0	86	0	014010	2	2	1	2	12	114	4	0	95	0	014010	2	2	1	2	12	115	10	1	737	0	014010	2	2	1	2	12	116	5	1	827	0	014010	2	2	1	2	12	117	7	0	982	0	014010	2	2	1	2	12	118	3	1	3155	0	014010	2	2	1	2	12	119	1	0	4484	0	014010	2	2	1	2	12	120	6	1	2112	0	014010	2	2	1	2	13	121	7	0	479	0	014010	2	2	1	2	13	122	6	0	1438	0	014010	2	2	1	2	13	123	9	1	325	0	014010	2	2	1	2	13	124	2	1	535	0	014010	2	2	1	2	13	125	3	0	520	0	014010	2	2	1	2	13	126	5	0	807	0	014010	2	2	1	2	13	127	4	1	465	0	014010	2	2	1	2	13	128	8	0	38	0	014010	2	2	1	2	13	129	1	1	677	0	014010	2	2	1	2	13	130	10	0	2035	0	014011	2	3	2	1	1	1	5	0	5445	1	233214011	2	3	2	1	1	2	8	0	3114	2	129414011	2	3	2	1	1	3	3	0	2951	1	154014011	2	3	2	1	1	4	7	0	5640	2	256014011	2	3	2	1	1	5	4	1	5098	2	294114011	2	3	2	1	1	6	2	1	5698	2	139714011	2	3	2	1	1	7	6	1	2133	1	65114011	2	3	2	1	1	8	1	1	1332	1	128214011	2	3	2	1	2	9	2	1	1405	1	104314011	2	3	2	1	2	10	4	0	1609	2	164714011	2	3	2	1	2	11	5	1	5554	1	295914011	2	3	2	1	2	12	3	1	1351	1	48314011	2	3	2	1	2	13	6	0	7609	3	357814011	2	3	2	1	2	14	1	1	3104	2	131314011	2	3	2	1	2	15	7	1	633	1	210014011	2	3	2	1	2	16	8	1	5472	1	146214011	2	3	2	1	3	17	4	1	1538	1	46714011	2	3	2	1	3	18	6	1	552	1	69814011	2	3	2	1	3	19	3	1	479	1	37814011	2	3	2	1	3	20	2	1	310	1	39814011	2	3	2	1	3	21	8	1	389	1	70114011	2	3	2	1	3	22	1	1	266	1	35414011	2	3	2	1	3	23	5	1	488	1	69414011	2	3	2	1	3	24	7	1	432	1	36314011	2	3	2	1	4	25	8	1	290	1	64714011	2	3	2	1	4	26	6	0	4608	2	108814011	2	3	2	1	4	27	7	1	314	1	58014011	2	3	2	1	4	28	3	1	289	1	42214011	2	3	2	1	4	29	4	0	3555	2	94314011	2	3	2	1	4	30	2	1	939	1	46014011	2	3	2	1	4	31	5	1	384	1	69714011	2	3	2	1	4	32	1	1	330	1	58314011	2	3	2	1	5	33	8	1	380	1	36414011	2	3	2	1	5	34	3	1	1043	1	46214011	2	3	2	1	5	35	4	1	618	1	43414011	2	3	2	1	5	36	6	1	810	1	39914011	2	3	2	1	5	37	5	1	982	1	41514011	2	3	2	1	5	38	7	1	464	1	34414011	2	3	2	1	5	39	2	1	349	1	35914011	2	3	2	1	5	40	1	1	799	1	51414011	2	3	2	1	6	41	7	1	640	1	45114011	2	3	2	1	6	42	8	1	621	1	55714011	2	3	2	1	6	43	6	1	285	1	29814011	2	3	2	1	6	44	4	0	2550	2	130614011	2	3	2	1	6	45	3	1	1111	2	179814011	2	3	2	1	6	46	1	1	294	1	32414011	2	3	2	1	6	47	5	1	309	1	29414011	2	3	2	1	6	48	2	1	287	1	26914011	2	3	2	2	1	1	1	1	3739	0	014011	2	3	2	2	1	2	7	0	1345	0	014011	2	3	2	2	1	3	3	0	3389	0	014011	2	3	2	2	1	4	9	1	1486	0	014011	2	3	2	2	1	5	2	0	2808	0	014011	2	3	2	2	1	6	6	1	707	0	014011	2	3	2	2	1	7	8	0	543	0	014011	2	3	2	2	1	8	5	1	515	0	014011	2	3	2	2	1	9	4	1	2394	0	014011	2	3	2	2	1	10	10	0	659	0	014011	2	3	2	2	2	11	2	0	1158	0	014011	2	3	2	2	2	12	6	1	390	0	014011	2	3	2	2	2	13	7	0	577	0	014011	2	3	2	2	2	14	9	1	374	0	014011	2	3	2	2	2	15	10	0	456	0	014011	2	3	2	2	2	16	3	1	346	0	014011	2	3	2	2	2	17	1	1	253	0	014011	2	3	2	2	2	18	5	0	319	0	014011	2	3	2	2	2	19	4	1	558	0	014011	2	3	2	2	2	20	8	0	253	0	014011	2	3	2	2	3	21	5	0	982	0	014011	2	3	2	2	3	22	2	0	267	0	014011	2	3	2	2	3	23	6	1	255	0	014011	2	3	2	2	3	24	7	0	232	0	014011	2	3	2	2	3	25	10	0	231	0	014011	2	3	2	2	3	26	1	1	310	0	014011	2	3	2	2	3	27	4	1	275	0	014011	2	3	2	2	3	28	8	0	257	0	014011	2	3	2	2	3	29	3	1	293	0	014011	2	3	2	2	3	30	9	1	311	0	014011	2	3	2	2	4	31	2	0	427	0	014011	2	3	2	2	4	32	4	1	271	0	014011	2	3	2	2	4	33	7	0	222	0	014011	2	3	2	2	4	34	10	0	6098	0	014011	2	3	2	2	4	35	5	0	337	0	014011	2	3	2	2	4	36	9	1	338	0	014011	2	3	2	2	4	37	8	0	431	0	014011	2	3	2	2	4	38	3	1	478	0	014011	2	3	2	2	4	39	1	1	293	0	014011	2	3	2	2	4	40	6	1	334	0	014011	2	3	2	2	5	41	5	0	240	0	014011	2	3	2	2	5	42	7	0	327	0	014011	2	3	2	2	5	43	2	0	376	0	014011	2	3	2	2	5	44	4	1	265	0	014011	2	3	2	2	5	45	6	1	382	0	014011	2	3	2	2	5	46	9	1	314	0	014011	2	3	2	2	5	47	8	0	297	0	014011	2	3	2	2	5	48	3	1	266	0	014011	2	3	2	2	5	49	1	1	359	0	014011	2	3	2	2	5	50	10	0	277	0	014011	2	3	2	2	6	51	4	1	324	0	014011	2	3	2	2	6	52	1	1	382	0	014011	2	3	2	2	6	53	3	1	817	0	014011	2	3	2	2	6	54	10	0	398	0	014011	2	3	2	2	6	55	5	0	477	0	014011	2	3	2	2	6	56	6	1	565	0	014011	2	3	2	2	6	57	9	1	413	0	014011	2	3	2	2	6	58	2	0	271	0	014011	2	3	2	2	6	59	8	0	326	0	014011	2	3	2	2	6	60	7	0	263	0	014011	2	3	2	2	7	61	10	0	276	0	014011	2	3	2	2	7	62	3	1	283	0	014011	2	3	2	2	7	63	2	0	338	0	014011	2	3	2	2	7	64	7	0	371	0	014011	2	3	2	2	7	65	4	1	349	0	014011	2	3	2	2	7	66	6	1	473	0	014011	2	3	2	2	7	67	9	1	391	0	014011	2	3	2	2	7	68	1	1	695	0	014011	2	3	2	2	7	69	5	0	297	0	014011	2	3	2	2	7	70	8	0	362	0	014011	2	3	2	2	8	71	5	0	377	0	014011	2	3	2	2	8	72	10	0	354	0	014011	2	3	2	2	8	73	7	0	506	0	014011	2	3	2	2	8	74	2	0	325	0	014011	2	3	2	2	8	75	4	1	399	0	014011	2	3	2	2	8	76	3	1	1422	0	014011	2	3	2	2	8	77	9	1	634	0	014011	2	3	2	2	8	78	8	0	313	0	014011	2	3	2	2	8	79	1	1	1593	0	014011	2	3	2	2	8	80	6	1	295	0	014011	2	3	2	2	9	81	3	1	537	0	014011	2	3	2	2	9	82	10	0	710	0	014011	2	3	2	2	9	83	8	0	514	0	014011	2	3	2	2	9	84	1	1	401	0	014011	2	3	2	2	9	85	6	1	728	0	014011	2	3	2	2	9	86	2	0	298	0	014011	2	3	2	2	9	87	9	1	485	0	014011	2	3	2	2	9	88	5	0	591	0	014011	2	3	2	2	9	89	7	0	279	0	014011	2	3	2	2	9	90	4	1	325	0	014011	2	3	2	2	10	91	5	0	423	0	014011	2	3	2	2	10	92	9	1	603	0	014011	2	3	2	2	10	93	6	1	428	0	014011	2	3	2	2	10	94	10	0	393	0	014011	2	3	2	2	10	95	1	1	368	0	014011	2	3	2	2	10	96	7	0	946	0	014011	2	3	2	2	10	97	3	1	1205	0	014011	2	3	2	2	10	98	2	0	248	0	014011	2	3	2	2	10	99	4	1	330	0	014011	2	3	2	2	10	100	8	0	386	0	014011	2	3	2	2	11	101	6	1	407	0	014011	2	3	2	2	11	102	7	0	1265	0	014011	2	3	2	2	11	103	9	1	349	0	014011	2	3	2	2	11	104	8	0	1129	0	014011	2	3	2	2	11	105	5	0	299	0	014011	2	3	2	2	11	106	10	0	415	0	014011	2	3	2	2	11	107	2	0	417	0	014011	2	3	2	2	11	108	1	1	611	0	014011	2	3	2	2	11	109	4	1	565	0	014011	2	3	2	2	11	110	3	1	654	0	014011	2	3	2	2	12	111	6	1	1144	0	014011	2	3	2	2	12	112	2	0	548	0	014011	2	3	2	2	12	113	4	1	376	0	014011	2	3	2	2	12	114	1	1	402	0	014011	2	3	2	2	12	115	10	0	545	0	014011	2	3	2	2	12	116	5	0	2461	0	014011	2	3	2	2	12	117	9	1	2106	0	014011	2	3	2	2	12	118	3	1	560	0	014011	2	3	2	2	12	119	8	0	254	0	014011	2	3	2	2	12	120	7	0	336	0	014011	2	3	2	2	13	121	1	1	290	0	014011	2	3	2	2	13	122	4	1	306	0	014011	2	3	2	2	13	123	9	1	407	0	014011	2	3	2	2	13	124	6	1	849	0	014011	2	3	2	2	13	125	5	0	1578	0	014011	2	3	2	2	13	126	3	1	511	0	014011	2	3	2	2	13	127	2	0	286	0	014011	2	3	2	2	13	128	7	0	311	0	014011	2	3	2	2	13	129	10	0	342	0	014011	2	3	2	2	13	130	8	0	275	0	014012	2	4	1	1	1	1	8	0	4398	1	217114012	2	4	1	1	1	2	2	0	1095	1	233614012	2	4	1	1	1	3	7	0	1669	2	201714012	2	4	1	1	1	4	1	0	670	2	165614012	2	4	1	1	1	5	5	1	405	2	83514012	2	4	1	1	1	6	4	1	274	2	55714012	2	4	1	1	1	7	3	1	1516	2	72714012	2	4	1	1	1	8	6	1	280	2	90714012	2	4	1	1	2	9	8	1	239	2	54614012	2	4	1	1	2	10	7	1	287	2	46814012	2	4	1	1	2	11	6	0	2056	2	56114012	2	4	1	1	2	12	2	1	6016	2	104314012	2	4	1	1	2	13	5	1	724	2	83414012	2	4	1	1	2	14	4	1	289	2	67014012	2	4	1	1	2	15	1	1	261	2	55814012	2	4	1	1	2	16	3	1	261	2	53314012	2	4	1	1	3	17	2	1	390	2	60614012	2	4	1	1	3	18	7	1	304	2	48814012	2	4	1	1	3	19	5	1	1625	2	46614012	2	4	1	1	3	20	1	1	310	2	74214012	2	4	1	1	3	21	4	1	1394	2	58214012	2	4	1	1	3	22	8	0	890	2	44014012	2	4	1	1	3	23	3	0	423	2	54214012	2	4	1	1	3	24	6	1	243	2	49414012	2	4	1	1	4	25	7	0	623	2	47214012	2	4	1	1	4	26	8	1	295	2	38014012	2	4	1	1	4	27	5	1	305	2	34414012	2	4	1	1	4	28	3	0	772	2	45014012	2	4	1	1	4	29	4	0	267	2	39614012	2	4	1	1	4	30	1	1	235	2	38914012	2	4	1	1	4	31	2	1	217	2	42514012	2	4	1	1	4	32	6	1	957	2	35214012	2	4	1	1	5	33	7	1	831	2	29914012	2	4	1	1	5	34	5	1	647	2	56414012	2	4	1	1	5	35	1	1	1277	2	35314012	2	4	1	1	5	36	8	1	512	3	78714012	2	4	1	1	5	37	6	1	607	2	148514012	2	4	1	1	5	38	3	1	758	2	111314012	2	4	1	1	5	39	2	1	992	3	58014012	2	4	1	1	5	40	4	1	344	3	90414012	2	4	1	1	6	41	5	1	332	1	115314012	2	4	1	1	6	42	6	0	353	1	102814012	2	4	1	1	6	43	7	1	272	2	34714012	2	4	1	1	6	44	3	1	559	2	68914012	2	4	1	1	6	45	4	1	1771	3	43414012	2	4	1	1	6	46	1	0	1017	1	102214012	2	4	1	1	6	47	2	0	347	1	44214012	2	4	1	1	6	48	8	0	249	1	44714012	2	4	1	2	1	1	2	1	3421	0	014012	2	4	1	2	1	2	9	0	1138	0	014012	2	4	1	2	1	3	4	0	1807	0	014012	2	4	1	2	1	4	7	1	1897	0	014012	2	4	1	2	1	5	10	0	246	0	014012	2	4	1	2	1	6	1	0	311	0	014012	2	4	1	2	1	7	6	1	342	0	014012	2	4	1	2	1	8	8	0	306	0	014012	2	4	1	2	1	9	5	0	737	0	014012	2	4	1	2	1	10	3	1	357	0	014012	2	4	1	2	2	11	9	1	500	0	014012	2	4	1	2	2	12	6	1	312	0	014012	2	4	1	2	2	13	7	1	335	0	014012	2	4	1	2	2	14	2	1	264	0	014012	2	4	1	2	2	15	3	1	204	0	014012	2	4	1	2	2	16	1	1	246	0	014012	2	4	1	2	2	17	5	0	199	0	014012	2	4	1	2	2	18	4	1	54	0	014012	2	4	1	2	2	19	8	0	271	0	014012	2	4	1	2	2	20	10	1	102	0	014012	2	4	1	2	3	21	4	1	482	0	014012	2	4	1	2	3	22	8	0	225	0	014012	2	4	1	2	3	23	7	1	269	0	014012	2	4	1	2	3	24	9	0	241	0	014012	2	4	1	2	3	25	10	1	256	0	014012	2	4	1	2	3	26	3	1	225	0	014012	2	4	1	2	3	27	5	0	437	0	014012	2	4	1	2	3	28	6	0	235	0	014012	2	4	1	2	3	29	1	1	250	0	014012	2	4	1	2	3	30	2	1	324	0	014012	2	4	1	2	4	31	4	1	230	0	014012	2	4	1	2	4	32	7	0	225	0	014012	2	4	1	2	4	33	9	0	221	0	014012	2	4	1	2	4	34	2	1	258	0	014012	2	4	1	2	4	35	3	1	318	0	014012	2	4	1	2	4	36	1	1	277	0	014012	2	4	1	2	4	37	5	0	283	0	014012	2	4	1	2	4	38	8	0	378	0	014012	2	4	1	2	4	39	6	0	302	0	014012	2	4	1	2	4	40	10	1	307	0	014012	2	4	1	2	5	41	3	1	238	0	014012	2	4	1	2	5	42	10	1	325	0	014012	2	4	1	2	5	43	6	0	126	0	014012	2	4	1	2	5	44	1	1	304	0	014012	2	4	1	2	5	45	8	1	340	0	014012	2	4	1	2	5	46	4	0	216	0	014012	2	4	1	2	5	47	9	0	241	0	014012	2	4	1	2	5	48	5	0	264	0	014012	2	4	1	2	5	49	7	1	269	0	014012	2	4	1	2	5	50	2	0	280	0	014012	2	4	1	2	6	51	1	1	231	0	014012	2	4	1	2	6	52	5	0	294	0	014012	2	4	1	2	6	53	6	1	263	0	014012	2	4	1	2	6	54	9	0	251	0	014012	2	4	1	2	6	55	8	0	316	0	014012	2	4	1	2	6	56	3	1	235	0	014012	2	4	1	2	6	57	2	0	258	0	014012	2	4	1	2	6	58	4	0	215	0	014012	2	4	1	2	6	59	10	0	239	0	014012	2	4	1	2	6	60	7	1	254	0	014012	2	4	1	2	7	61	10	1	728	0	014012	2	4	1	2	7	62	9	1	274	0	014012	2	4	1	2	7	63	4	1	392	0	014012	2	4	1	2	7	64	5	0	223	0	014012	2	4	1	2	7	65	1	1	123	0	014012	2	4	1	2	7	66	8	0	266	0	014012	2	4	1	2	7	67	6	0	438	0	014012	2	4	1	2	7	68	2	1	252	0	014012	2	4	1	2	7	69	3	1	262	0	014012	2	4	1	2	7	70	7	0	274	0	014012	2	4	1	2	8	71	9	0	417	0	014012	2	4	1	2	8	72	8	0	274	0	014012	2	4	1	2	8	73	4	1	281	0	014012	2	4	1	2	8	74	3	1	296	0	014012	2	4	1	2	8	75	6	0	241	0	014012	2	4	1	2	8	76	1	1	296	0	014012	2	4	1	2	8	77	10	1	201	0	014012	2	4	1	2	8	78	5	0	96	0	014012	2	4	1	2	8	79	7	0	281	0	014012	2	4	1	2	8	80	2	1	272	0	014012	2	4	1	2	9	81	7	0	254	0	014012	2	4	1	2	9	82	8	0	280	0	014012	2	4	1	2	9	83	9	0	111	0	014012	2	4	1	2	9	84	5	0	398	0	014012	2	4	1	2	9	85	3	1	204	0	014012	2	4	1	2	9	86	4	0	310	0	014012	2	4	1	2	9	87	2	1	986	0	014012	2	4	1	2	9	88	1	1	262	0	014012	2	4	1	2	9	89	6	0	235	0	014012	2	4	1	2	9	90	10	1	233	0	014012	2	4	1	2	10	91	3	1	280	0	014012	2	4	1	2	10	92	4	1	231	0	014012	2	4	1	2	10	93	7	0	238	0	014012	2	4	1	2	10	94	2	0	325	0	014012	2	4	1	2	10	95	1	1	29	0	014012	2	4	1	2	10	96	10	1	225	0	014012	2	4	1	2	10	97	9	0	398	0	014012	2	4	1	2	10	98	5	0	356	0	014012	2	4	1	2	10	99	8	0	363	0	014012	2	4	1	2	10	100	6	0	322	0	014012	2	4	1	2	11	101	4	1	49	0	014012	2	4	1	2	11	102	10	1	362	0	014012	2	4	1	2	11	103	9	0	256	0	014012	2	4	1	2	11	104	1	1	210	0	014012	2	4	1	2	11	105	8	0	228	0	014012	2	4	1	2	11	106	7	0	224	0	014012	2	4	1	2	11	107	5	0	108	0	014012	2	4	1	2	11	108	3	1	231	0	014012	2	4	1	2	11	109	2	1	190	0	014012	2	4	1	2	11	110	6	0	211	0	014012	2	4	1	2	12	111	10	1	316	0	014012	2	4	1	2	12	112	4	1	234	0	014012	2	4	1	2	12	113	8	0	153	0	014012	2	4	1	2	12	114	6	0	216	0	014012	2	4	1	2	12	115	7	0	258	0	014012	2	4	1	2	12	116	1	1	211	0	014012	2	4	1	2	12	117	5	0	68	0	014012	2	4	1	2	12	118	2	1	288	0	014012	2	4	1	2	12	119	3	1	226	0	014012	2	4	1	2	12	120	9	0	166	0	014012	2	4	1	2	13	121	4	1	215	0	014012	2	4	1	2	13	122	2	1	232	0	014012	2	4	1	2	13	123	9	0	279	0	014012	2	4	1	2	13	124	8	0	150	0	014012	2	4	1	2	13	125	3	1	245	0	014012	2	4	1	2	13	126	10	1	222	0	014012	2	4	1	2	13	127	6	0	242	0	014012	2	4	1	2	13	128	7	0	225	0	014012	2	4	1	2	13	129	1	1	429	0	014012	2	4	1	2	13	130	5	0	240	0	014013	2	5	2	1	1	1	6	0	4345	3	158714013	2	5	2	1	1	2	5	1	2011	2	61014013	2	5	2	1	1	3	7	0	2528	2	103414013	2	5	2	1	1	4	1	0	736	3	91414013	2	5	2	1	1	5	2	0	1277	3	132114013	2	5	2	1	1	6	3	0	739	3	82914013	2	5	2	1	1	7	8	0	2474	2	103814013	2	5	2	1	1	8	4	0	739	2	79714013	2	5	2	1	2	9	3	1	1388	2	213214013	2	5	2	1	2	10	2	0	1222	2	110114013	2	5	2	1	2	11	4	1	1455	1	114914013	2	5	2	1	2	12	8	1	1014	2	88514013	2	5	2	1	2	13	7	1	2033	2	75114013	2	5	2	1	2	14	1	1	624	3	111014013	2	5	2	1	2	15	5	0	921	1	132414013	2	5	2	1	2	16	6	0	4070	2	132314013	2	5	2	1	3	17	2	1	1349	3	106314013	2	5	2	1	3	18	8	1	532	2	57414013	2	5	2	1	3	19	1	0	2261	2	97814013	2	5	2	1	3	20	4	1	410	2	46514013	2	5	2	1	3	21	7	1	997	2	84514013	2	5	2	1	3	22	6	1	1170	1	51514013	2	5	2	1	3	23	5	1	429	3	49914013	2	5	2	1	3	24	3	1	2726	1	35214013	2	5	2	1	4	25	4	1	1241	2	73514013	2	5	2	1	4	26	1	0	1000	1	67214013	2	5	2	1	4	27	7	1	357	2	55014013	2	5	2	1	4	28	2	1	2143	2	51314013	2	5	2	1	4	29	8	1	3146	1	88414013	2	5	2	1	4	30	6	1	840	3	36514013	2	5	2	1	4	31	5	1	494	3	24914013	2	5	2	1	4	32	3	1	438	3	36414013	2	5	2	1	5	33	5	1	965	3	43714013	2	5	2	1	5	34	4	1	723	3	65314013	2	5	2	1	5	35	6	1	258	3	34314013	2	5	2	1	5	36	7	1	240	3	40614013	2	5	2	1	5	37	8	1	334	3	43214013	2	5	2	1	5	38	1	1	358	3	63814013	2	5	2	1	5	39	3	1	155	3	115614013	2	5	2	1	5	40	2	0	1702	2	89714013	2	5	2	1	6	41	5	1	717	2	97514013	2	5	2	1	6	42	8	1	2008	3	39114013	2	5	2	1	6	43	3	1	1134	3	40914013	2	5	2	1	6	44	1	1	1279	3	41114013	2	5	2	1	6	45	7	1	2834	1	67214013	2	5	2	1	6	46	2	1	2445	2	69014013	2	5	2	1	6	47	4	1	1694	1	112214013	2	5	2	1	6	48	6	1	411	2	185014013	2	5	2	2	1	1	4	1	3660	0	014013	2	5	2	2	1	2	6	0	657	0	014013	2	5	2	2	1	3	7	0	870	0	014013	2	5	2	2	1	4	10	1	562	0	014013	2	5	2	2	1	5	9	1	307	0	014013	2	5	2	2	1	6	8	0	293	0	014013	2	5	2	2	1	7	5	1	2712	0	014013	2	5	2	2	1	8	1	1	355	0	014013	2	5	2	2	1	9	2	1	243	0	014013	2	5	2	2	1	10	3	1	441	0	014013	2	5	2	2	2	11	5	0	342	0	014013	2	5	2	2	2	12	1	1	263	0	014013	2	5	2	2	2	13	9	1	468	0	014013	2	5	2	2	2	14	6	0	312	0	014013	2	5	2	2	2	15	7	0	363	0	014013	2	5	2	2	2	16	2	1	259	0	014013	2	5	2	2	2	17	8	0	304	0	014013	2	5	2	2	2	18	3	1	619	0	014013	2	5	2	2	2	19	4	0	266	0	014013	2	5	2	2	2	20	10	1	437	0	014013	2	5	2	2	3	21	6	0	395	0	014013	2	5	2	2	3	22	4	1	1418	0	014013	2	5	2	2	3	23	1	1	761	0	014013	2	5	2	2	3	24	5	0	426	0	014013	2	5	2	2	3	25	2	0	1016	0	014013	2	5	2	2	3	26	8	0	358	0	014013	2	5	2	2	3	27	7	0	383	0	014013	2	5	2	2	3	28	9	1	359	0	014013	2	5	2	2	3	29	3	1	408	0	014013	2	5	2	2	3	30	10	0	3015	0	014013	2	5	2	2	4	31	2	0	437	0	014013	2	5	2	2	4	32	9	0	259	0	014013	2	5	2	2	4	33	10	1	312	0	014013	2	5	2	2	4	34	3	0	642	0	014013	2	5	2	2	4	35	7	0	568	0	014013	2	5	2	2	4	36	6	0	344	0	014013	2	5	2	2	4	37	8	0	345	0	014013	2	5	2	2	4	38	4	1	257	0	014013	2	5	2	2	4	39	1	1	23	0	014013	2	5	2	2	4	40	5	0	293	0	014013	2	5	2	2	5	41	4	1	1416	0	014013	2	5	2	2	5	42	10	1	311	0	014013	2	5	2	2	5	43	7	0	553	0	014013	2	5	2	2	5	44	6	0	362	0	014013	2	5	2	2	5	45	3	1	506	0	014013	2	5	2	2	5	46	1	1	397	0	014013	2	5	2	2	5	47	2	1	612	0	014013	2	5	2	2	5	48	8	0	363	0	014013	2	5	2	2	5	49	5	0	747	0	014013	2	5	2	2	5	50	9	0	1493	0	014013	2	5	2	2	6	51	8	1	463	0	014013	2	5	2	2	6	52	7	0	291	0	014013	2	5	2	2	6	53	3	1	391	0	014013	2	5	2	2	6	54	10	1	599	0	014013	2	5	2	2	6	55	9	0	542	0	014013	2	5	2	2	6	56	2	1	832	0	014013	2	5	2	2	6	57	1	1	333	0	014013	2	5	2	2	6	58	5	0	375	0	014013	2	5	2	2	6	59	6	0	231	0	014013	2	5	2	2	6	60	4	1	309	0	014013	2	5	2	2	7	61	3	1	272	0	014013	2	5	2	2	7	62	5	0	373	0	014013	2	5	2	2	7	63	9	0	333	0	014013	2	5	2	2	7	64	8	0	542	0	014013	2	5	2	2	7	65	6	0	312	0	014013	2	5	2	2	7	66	2	1	450	0	014013	2	5	2	2	7	67	10	1	487	0	014013	2	5	2	2	7	68	4	1	443	0	014013	2	5	2	2	7	69	1	1	321	0	014013	2	5	2	2	7	70	7	0	715	0	014013	2	5	2	2	8	71	9	0	1573	0	014013	2	5	2	2	8	72	7	0	486	0	014013	2	5	2	2	8	73	6	0	210	0	014013	2	5	2	2	8	74	3	1	481	0	014013	2	5	2	2	8	75	10	1	285	0	014013	2	5	2	2	8	76	1	1	657	0	014013	2	5	2	2	8	77	4	1	325	0	014013	2	5	2	2	8	78	8	1	495	0	014013	2	5	2	2	8	79	5	0	250	0	014013	2	5	2	2	8	80	2	1	448	0	014013	2	5	2	2	9	81	7	0	333	0	014013	2	5	2	2	9	82	5	0	262	0	014013	2	5	2	2	9	83	4	1	386	0	014013	2	5	2	2	9	84	10	1	274	0	014013	2	5	2	2	9	85	6	0	302	0	014013	2	5	2	2	9	86	8	0	313	0	014013	2	5	2	2	9	87	1	1	276	0	014013	2	5	2	2	9	88	3	1	368	0	014013	2	5	2	2	9	89	2	1	489	0	014013	2	5	2	2	9	90	9	0	276	0	014013	2	5	2	2	10	91	4	1	1144	0	014013	2	5	2	2	10	92	7	0	937	0	014013	2	5	2	2	10	93	3	1	347	0	014013	2	5	2	2	10	94	2	1	461	0	014013	2	5	2	2	10	95	1	1	409	0	014013	2	5	2	2	10	96	9	0	375	0	014013	2	5	2	2	10	97	8	0	40	0	014013	2	5	2	2	10	98	5	0	477	0	014013	2	5	2	2	10	99	10	1	609	0	014013	2	5	2	2	10	100	6	0	544	0	014013	2	5	2	2	11	101	5	0	585	0	014013	2	5	2	2	11	102	7	0	377	0	014013	2	5	2	2	11	103	4	1	304	0	014013	2	5	2	2	11	104	6	0	379	0	014013	2	5	2	2	11	105	9	0	771	0	014013	2	5	2	2	11	106	10	1	395	0	014013	2	5	2	2	11	107	1	1	426	0	014013	2	5	2	2	11	108	8	0	617	0	014013	2	5	2	2	11	109	3	1	1262	0	014013	2	5	2	2	11	110	2	1	1219	0	014013	2	5	2	2	12	111	9	0	1122	0	014013	2	5	2	2	12	112	8	0	276	0	014013	2	5	2	2	12	113	2	1	424	0	014013	2	5	2	2	12	114	10	1	687	0	014013	2	5	2	2	12	115	4	1	497	0	014013	2	5	2	2	12	116	7	0	733	0	014013	2	5	2	2	12	117	6	0	278	0	014013	2	5	2	2	12	118	3	1	466	0	014013	2	5	2	2	12	119	5	0	287	0	014013	2	5	2	2	12	120	1	1	251	0	014013	2	5	2	2	13	121	10	1	927	0	014013	2	5	2	2	13	122	1	1	313	0	014013	2	5	2	2	13	123	5	0	523	0	014013	2	5	2	2	13	124	2	1	534	0	014013	2	5	2	2	13	125	9	0	336	0	014013	2	5	2	2	13	126	8	0	857	0	014013	2	5	2	2	13	127	7	0	382	0	014013	2	5	2	2	13	128	6	0	1037	0	014013	2	5	2	2	13	129	3	1	371	0	014013	2	5	2	2	13	130	4	1	652	0	014014	2	6	1	1	1	1	7	0	6713	3	388714014	2	6	1	1	1	2	5	0	2274	1	194214014	2	6	1	1	1	3	2	0	1858	1	176314014	2	6	1	1	1	4	8	0	2014	1	91914014	2	6	1	1	1	5	3	0	837	1	62514014	2	6	1	1	1	6	1	1	1381	3	677314014	2	6	1	1	1	7	4	0	2445	3	134714014	2	6	1	1	1	8	6	1	7482	2	116314014	2	6	1	1	2	9	8	0	1188	3	96814014	2	6	1	1	2	10	4	1	2434	1	320614014	2	6	1	1	2	11	6	1	1288	3	407014014	2	6	1	1	2	12	1	1	1639	3	49114014	2	6	1	1	2	13	2	0	1404	1	95414014	2	6	1	1	2	14	7	0	1001	1	117214014	2	6	1	1	2	15	5	1	5997	3	108314014	2	6	1	1	2	16	3	0	3228	2	85714014	2	6	1	1	3	17	7	1	10796	2	114414014	2	6	1	1	3	18	6	1	820	1	350814014	2	6	1	1	3	19	5	1	978	3	542614014	2	6	1	1	3	20	3	1	1417	2	72114014	2	6	1	1	3	21	4	1	801	3	42014014	2	6	1	1	3	22	2	0	6975	1	117914014	2	6	1	1	3	23	1	1	936	1	212514014	2	6	1	1	3	24	8	0	1479	2	362914014	2	6	1	1	4	25	7	1	742	3	50214014	2	6	1	1	4	26	2	1	1162	2	138414014	2	6	1	1	4	27	1	1	773	3	41914014	2	6	1	1	4	28	6	1	2614	3	147714014	2	6	1	1	4	29	8	1	813	3	59414014	2	6	1	1	4	30	4	1	401	3	45214014	2	6	1	1	4	31	5	1	421	3	61414014	2	6	1	1	4	32	3	0	7503	2	224314014	2	6	1	1	5	33	6	0	3172	1	120314014	2	6	1	1	5	34	5	1	7894	2	109714014	2	6	1	1	5	35	2	0	7910	3	71514014	2	6	1	1	5	36	4	1	1059	2	320314014	2	6	1	1	5	37	7	1	1015	3	64314014	2	6	1	1	5	38	8	0	837	1	45614014	2	6	1	1	5	39	1	1	773	3	37114014	2	6	1	1	5	40	3	0	1363	2	451414014	2	6	1	1	6	41	8	1	1083	1	124114014	2	6	1	1	6	42	7	0	951	2	257814014	2	6	1	1	6	43	5	1	768	3	47014014	2	6	1	1	6	44	6	1	761	3	42814014	2	6	1	1	6	45	2	1	857	3	38514014	2	6	1	1	6	46	4	1	350	3	41414014	2	6	1	1	6	47	3	0	815	3	775714014	2	6	1	1	6	48	1	1	3487	2	74214014	2	6	1	2	1	1	6	1	5709	0	014014	2	6	1	2	1	2	5	1	1559	0	014014	2	6	1	2	1	3	2	0	1150	0	014014	2	6	1	2	1	4	3	1	2117	0	014014	2	6	1	2	1	5	1	1	517	0	014014	2	6	1	2	1	6	7	0	339	0	014014	2	6	1	2	1	7	10	0	1400	0	014014	2	6	1	2	1	8	4	0	11569	0	014014	2	6	1	2	1	9	9	0	1691	0	014014	2	6	1	2	1	10	8	0	2461	0	014014	2	6	1	2	2	11	9	1	1002	0	014014	2	6	1	2	2	12	6	1	593	0	014014	2	6	1	2	2	13	4	1	448	0	014014	2	6	1	2	2	14	1	1	642	0	014014	2	6	1	2	2	15	7	0	2571	0	014014	2	6	1	2	2	16	10	1	3142	0	014014	2	6	1	2	2	17	3	0	819	0	014014	2	6	1	2	2	18	8	0	392	0	014014	2	6	1	2	2	19	5	0	1175	0	014014	2	6	1	2	2	20	2	0	1288	0	014014	2	6	1	2	3	21	8	0	626	0	014014	2	6	1	2	3	22	3	1	1175	0	014014	2	6	1	2	3	23	5	0	360	0	014014	2	6	1	2	3	24	6	1	2607	0	014014	2	6	1	2	3	25	7	0	994	0	014014	2	6	1	2	3	26	4	1	496	0	014014	2	6	1	2	3	27	2	1	578	0	014014	2	6	1	2	3	28	10	0	1407	0	014014	2	6	1	2	3	29	1	1	1440	0	014014	2	6	1	2	3	30	9	0	1200	0	014014	2	6	1	2	4	31	10	1	6430	0	014014	2	6	1	2	4	32	2	0	2193	0	014014	2	6	1	2	4	33	4	1	640	0	014014	2	6	1	2	4	34	3	1	87	0	014014	2	6	1	2	4	35	1	0	1033	0	014014	2	6	1	2	4	36	8	1	288	0	014014	2	6	1	2	4	37	9	0	5481	0	014014	2	6	1	2	4	38	5	0	971	0	014014	2	6	1	2	4	39	6	0	836	0	014014	2	6	1	2	4	40	7	1	3147	0	014014	2	6	1	2	5	41	6	1	432	0	014014	2	6	1	2	5	42	8	0	695	0	014014	2	6	1	2	5	43	9	0	2396	0	014014	2	6	1	2	5	44	7	1	579	0	014014	2	6	1	2	5	45	1	0	368	0	014014	2	6	1	2	5	46	5	1	3137	0	014014	2	6	1	2	5	47	4	1	462	0	014014	2	6	1	2	5	48	2	0	2163	0	014014	2	6	1	2	5	49	3	0	542	0	014014	2	6	1	2	5	50	10	1	529	0	014014	2	6	1	2	6	51	6	1	523	0	014014	2	6	1	2	6	52	1	0	346	0	014014	2	6	1	2	6	53	4	1	2798	0	014014	2	6	1	2	6	54	5	0	718	0	014014	2	6	1	2	6	55	7	0	613	0	014014	2	6	1	2	6	56	2	0	510	0	014014	2	6	1	2	6	57	3	1	765	0	014014	2	6	1	2	6	58	9	1	479	0	014014	2	6	1	2	6	59	10	1	830	0	014014	2	6	1	2	6	60	8	1	605	0	014014	2	6	1	2	7	61	5	1	391	0	014014	2	6	1	2	7	62	1	0	4314	0	014014	2	6	1	2	7	63	10	1	444	0	014014	2	6	1	2	7	64	7	0	267	0	014014	2	6	1	2	7	65	4	1	470	0	014014	2	6	1	2	7	66	3	1	1717	0	014014	2	6	1	2	7	67	8	0	541	0	014014	2	6	1	2	7	68	6	1	417	0	014014	2	6	1	2	7	69	9	0	789	0	014014	2	6	1	2	7	70	2	0	482	0	014014	2	6	1	2	8	71	5	0	665	0	014014	2	6	1	2	8	72	2	0	1189	0	014014	2	6	1	2	8	73	4	1	572	0	014014	2	6	1	2	8	74	9	0	358	0	014014	2	6	1	2	8	75	7	0	484	0	014014	2	6	1	2	8	76	6	0	1742	0	014014	2	6	1	2	8	77	3	0	371	0	014014	2	6	1	2	8	78	8	1	284	0	014014	2	6	1	2	8	79	1	0	334	0	014014	2	6	1	2	8	80	10	1	1151	0	014014	2	6	1	2	9	81	7	1	999	0	014014	2	6	1	2	9	82	9	0	333	0	014014	2	6	1	2	9	83	6	1	2479	0	014014	2	6	1	2	9	84	10	0	1342	0	014014	2	6	1	2	9	85	3	0	1475	0	014014	2	6	1	2	9	86	1	1	779	0	014014	2	6	1	2	9	87	8	0	320	0	014014	2	6	1	2	9	88	5	1	2462	0	014014	2	6	1	2	9	89	2	0	787	0	014014	2	6	1	2	9	90	4	0	591	0	014014	2	6	1	2	10	91	1	0	2406	0	014014	2	6	1	2	10	92	2	1	297	0	014014	2	6	1	2	10	93	9	1	1948	0	014014	2	6	1	2	10	94	3	1	466	0	014014	2	6	1	2	10	95	8	0	238	0	014014	2	6	1	2	10	96	6	0	292	0	014014	2	6	1	2	10	97	10	1	1150	0	014014	2	6	1	2	10	98	7	1	1390	0	014014	2	6	1	2	10	99	4	1	332	0	014014	2	6	1	2	10	100	5	1	4590	0	014014	2	6	1	2	11	101	3	1	351	0	014014	2	6	1	2	11	102	2	0	749	0	014014	2	6	1	2	11	103	9	0	2458	0	014014	2	6	1	2	11	104	4	1	752	0	014014	2	6	1	2	11	105	8	0	1998	0	014014	2	6	1	2	11	106	1	1	2078	0	014014	2	6	1	2	11	107	6	1	341	0	014014	2	6	1	2	11	108	5	0	617	0	014014	2	6	1	2	11	109	7	0	515	0	014014	2	6	1	2	11	110	10	1	131	0	014014	2	6	1	2	12	111	1	1	387	0	014014	2	6	1	2	12	112	4	1	360	0	014014	2	6	1	2	12	113	10	0	495	0	014014	2	6	1	2	12	114	5	1	488	0	014014	2	6	1	2	12	115	6	1	425	0	014014	2	6	1	2	12	116	2	0	894	0	014014	2	6	1	2	12	117	3	1	656	0	014014	2	6	1	2	12	118	9	0	281	0	014014	2	6	1	2	12	119	7	0	304	0	014014	2	6	1	2	12	120	8	0	348	0	014014	2	6	1	2	13	121	5	0	2224	0	014014	2	6	1	2	13	122	3	1	1725	0	014014	2	6	1	2	13	123	9	0	1128	0	014014	2	6	1	2	13	124	8	0	457	0	014014	2	6	1	2	13	125	2	0	301	0	014014	2	6	1	2	13	126	4	1	354	0	014014	2	6	1	2	13	127	10	0	296	0	014014	2	6	1	2	13	128	6	1	348	0	014014	2	6	1	2	13	129	1	0	769	0	014014	2	6	1	2	13	130	7	0	747	0	014015	2	7	2	1	1	1	1	0	6891	3	235514015	2	7	2	1	1	2	3	0	2003	3	187314015	2	7	2	1	1	3	8	0	3321	3	94414015	2	7	2	1	1	4	4	0	1380	3	190014015	2	7	2	1	1	5	6	0	969	3	111114015	2	7	2	1	1	6	2	0	2326	2	86814015	2	7	2	1	1	7	7	0	1609	3	115114015	2	7	2	1	1	8	5	0	1527	3	143614015	2	7	2	1	2	9	2	1	1995	3	243114015	2	7	2	1	2	10	8	1	575	3	81314015	2	7	2	1	2	11	4	0	1326	2	68414015	2	7	2	1	2	12	6	0	2830	2	66614015	2	7	2	1	2	13	3	1	966	3	80314015	2	7	2	1	2	14	5	1	555	3	206214015	2	7	2	1	2	15	7	0	723	2	107814015	2	7	2	1	2	16	1	1	708	3	88514015	2	7	2	1	3	17	6	1	2103	3	82414015	2	7	2	1	3	18	3	1	1300	3	55614015	2	7	2	1	3	19	1	1	1675	2	39914015	2	7	2	1	3	20	2	0	1638	2	145014015	2	7	2	1	3	21	5	1	467	2	119514015	2	7	2	1	3	22	7	0	819	3	90714015	2	7	2	1	3	23	4	1	904	3	55114015	2	7	2	1	3	24	8	0	5086	2	92614015	2	7	2	1	4	25	2	1	1112	2	198714015	2	7	2	1	4	26	5	1	2312	2	128414015	2	7	2	1	4	27	8	0	3021	2	83914015	2	7	2	1	4	28	4	1	742	3	103814015	2	7	2	1	4	29	6	1	646	3	55514015	2	7	2	1	4	30	7	1	1794	2	69314015	2	7	2	1	4	31	3	0	5287	2	99114015	2	7	2	1	4	32	1	1	990	2	46214015	2	7	2	1	5	33	4	0	2267	1	183614015	2	7	2	1	5	34	1	1	2403	2	105714015	2	7	2	1	5	35	3	1	3334	3	82914015	2	7	2	1	5	36	5	0	801	2	182814015	2	7	2	1	5	37	2	0	665	3	136114015	2	7	2	1	5	38	6	1	689	3	162214015	2	7	2	1	5	39	7	0	4011	3	133814015	2	7	2	1	5	40	8	1	2510	3	138614015	2	7	2	1	6	41	5	1	359	3	42614015	2	7	2	1	6	42	1	1	614	3	102014015	2	7	2	1	6	43	4	0	567	2	290914015	2	7	2	1	6	44	3	0	5725	1	300514015	2	7	2	1	6	45	7	0	2296	3	212614015	2	7	2	1	6	46	2	0	3224	1	67414015	2	7	2	1	6	47	8	0	1681	3	46814015	2	7	2	1	6	48	6	1	561	3	42714015	2	7	2	2	1	1	8	0	5385	0	014015	2	7	2	2	1	2	3	1	608	0	014015	2	7	2	2	1	3	6	0	1393	0	014015	2	7	2	2	1	4	2	0	617	0	014015	2	7	2	2	1	5	5	0	1546	0	014015	2	7	2	2	1	6	4	1	671	0	014015	2	7	2	2	1	7	7	1	444	0	014015	2	7	2	2	1	8	1	1	762	0	014015	2	7	2	2	1	9	9	0	521	0	014015	2	7	2	2	1	10	10	0	1712	0	014015	2	7	2	2	2	11	9	1	639	0	014015	2	7	2	2	2	12	6	0	2126	0	014015	2	7	2	2	2	13	10	1	513	0	014015	2	7	2	2	2	14	5	1	1327	0	014015	2	7	2	2	2	15	4	0	505	0	014015	2	7	2	2	2	16	3	0	638	0	014015	2	7	2	2	2	17	8	0	4948	0	014015	2	7	2	2	2	18	7	0	571	0	014015	2	7	2	2	2	19	1	1	356	0	014015	2	7	2	2	2	20	2	1	723	0	014015	2	7	2	2	3	21	3	1	386	0	014015	2	7	2	2	3	22	2	0	734	0	014015	2	7	2	2	3	23	5	0	448	0	014015	2	7	2	2	3	24	1	1	913	0	014015	2	7	2	2	3	25	4	0	616	0	014015	2	7	2	2	3	26	8	0	434	0	014015	2	7	2	2	3	27	9	1	329	0	014015	2	7	2	2	3	28	10	0	570	0	014015	2	7	2	2	3	29	6	1	340	0	014015	2	7	2	2	3	30	7	0	536	0	014015	2	7	2	2	4	31	1	1	994	0	014015	2	7	2	2	4	32	10	1	496	0	014015	2	7	2	2	4	33	5	0	562	0	014015	2	7	2	2	4	34	6	0	569	0	014015	2	7	2	2	4	35	2	1	418	0	014015	2	7	2	2	4	36	8	1	2431	0	014015	2	7	2	2	4	37	3	0	487	0	014015	2	7	2	2	4	38	7	1	337	0	014015	2	7	2	2	4	39	9	0	753	0	014015	2	7	2	2	4	40	4	1	2393	0	014015	2	7	2	2	5	41	2	1	457	0	014015	2	7	2	2	5	42	3	0	426	0	014015	2	7	2	2	5	43	1	1	1054	0	014015	2	7	2	2	5	44	5	0	1464	0	014015	2	7	2	2	5	45	10	0	2028	0	014015	2	7	2	2	5	46	9	1	585	0	014015	2	7	2	2	5	47	8	1	390	0	014015	2	7	2	2	5	48	4	1	362	0	014015	2	7	2	2	5	49	6	0	320	0	014015	2	7	2	2	5	50	7	1	623	0	014015	2	7	2	2	6	51	5	0	292	0	014015	2	7	2	2	6	52	4	1	509	0	014015	2	7	2	2	6	53	1	1	2097	0	014015	2	7	2	2	6	54	3	1	1462	0	014015	2	7	2	2	6	55	8	0	275	0	014015	2	7	2	2	6	56	2	0	690	0	014015	2	7	2	2	6	57	6	1	2051	0	014015	2	7	2	2	6	58	10	0	2125	0	014015	2	7	2	2	6	59	7	0	576	0	014015	2	7	2	2	6	60	9	1	402	0	014015	2	7	2	2	7	61	3	0	393	0	014015	2	7	2	2	7	62	5	1	1336	0	014015	2	7	2	2	7	63	10	1	377	0	014015	2	7	2	2	7	64	1	0	661	0	014015	2	7	2	2	7	65	8	0	298	0	014015	2	7	2	2	7	66	7	1	429	0	014015	2	7	2	2	7	67	9	0	506	0	014015	2	7	2	2	7	68	2	1	1030	0	014015	2	7	2	2	7	69	4	1	358	0	014015	2	7	2	2	7	70	6	1	468	0	014015	2	7	2	2	8	71	7	0	320	0	014015	2	7	2	2	8	72	9	1	343	0	014015	2	7	2	2	8	73	10	0	563	0	014015	2	7	2	2	8	74	4	0	338	0	014015	2	7	2	2	8	75	8	1	310	0	014015	2	7	2	2	8	76	3	0	667	0	014015	2	7	2	2	8	77	6	1	270	0	014015	2	7	2	2	8	78	1	0	699	0	014015	2	7	2	2	8	79	5	0	303	0	014015	2	7	2	2	8	80	2	1	315	0	014015	2	7	2	2	9	81	7	1	690	0	014015	2	7	2	2	9	82	10	1	339	0	014015	2	7	2	2	9	83	6	0	264	0	014015	2	7	2	2	9	84	3	1	1876	0	014015	2	7	2	2	9	85	4	0	579	0	014015	2	7	2	2	9	86	2	1	624	0	014015	2	7	2	2	9	87	9	0	636	0	014015	2	7	2	2	9	88	8	1	699	0	014015	2	7	2	2	9	89	5	0	1119	0	014015	2	7	2	2	9	90	1	1	374	0	014015	2	7	2	2	10	91	10	0	400	0	014015	2	7	2	2	10	92	4	1	318	0	014015	2	7	2	2	10	93	9	1	357	0	014015	2	7	2	2	10	94	1	1	292	0	014015	2	7	2	2	10	95	5	0	350	0	014015	2	7	2	2	10	96	3	1	596	0	014015	2	7	2	2	10	97	8	1	1315	0	014015	2	7	2	2	10	98	2	0	483	0	014015	2	7	2	2	10	99	6	0	338	0	014015	2	7	2	2	10	100	7	0	405	0	014015	2	7	2	2	11	101	9	1	495	0	014015	2	7	2	2	11	102	2	1	241	0	014015	2	7	2	2	11	103	1	1	1255	0	014015	2	7	2	2	11	104	6	0	337	0	014015	2	7	2	2	11	105	3	0	427	0	014015	2	7	2	2	11	106	10	0	439	0	014015	2	7	2	2	11	107	7	1	365	0	014015	2	7	2	2	11	108	8	0	439	0	014015	2	7	2	2	11	109	4	0	630	0	014015	2	7	2	2	11	110	5	0	387	0	014015	2	7	2	2	12	111	7	1	414	0	014015	2	7	2	2	12	112	2	0	344	0	014015	2	7	2	2	12	113	6	1	764	0	014015	2	7	2	2	12	114	3	0	326	0	014015	2	7	2	2	12	115	8	0	255	0	014015	2	7	2	2	12	116	1	1	249	0	014015	2	7	2	2	12	117	5	0	379	0	014015	2	7	2	2	12	118	4	1	359	0	014015	2	7	2	2	12	119	10	0	389	0	014015	2	7	2	2	12	120	9	1	321	0	014015	2	7	2	2	13	121	4	0	408	0	014015	2	7	2	2	13	122	1	1	354	0	014015	2	7	2	2	13	123	5	0	1128	0	014015	2	7	2	2	13	124	7	0	1074	0	014015	2	7	2	2	13	125	9	1	362	0	014015	2	7	2	2	13	126	10	0	256	0	014015	2	7	2	2	13	127	6	0	394	0	014015	2	7	2	2	13	128	3	1	297	0	014015	2	7	2	2	13	129	8	1	1138	0	014015	2	7	2	2	13	130	2	1	254	0	014016	2	8	1	1	1	1	2	0	2586	3	147014016	2	8	1	1	1	2	8	1	3109	2	118514016	2	8	1	1	1	3	7	1	1662	3	206314016	2	8	1	1	1	4	3	0	1380	3	308414016	2	8	1	1	1	5	6	1	1711	2	145114016	2	8	1	1	1	6	4	1	4476	1	185714016	2	8	1	1	1	7	1	1	382	3	49414016	2	8	1	1	1	8	5	0	1024	3	195214016	2	8	1	1	2	9	2	1	984	2	116814016	2	8	1	1	2	10	5	0	410	1	440714016	2	8	1	1	2	11	7	1	339	3	103514016	2	8	1	1	2	12	1	1	794	3	106114016	2	8	1	1	2	13	8	0	577	3	88714016	2	8	1	1	2	14	4	1	1361	2	35114016	2	8	1	1	2	15	3	0	1542	3	126314016	2	8	1	1	2	16	6	1	2187	2	126014016	2	8	1	1	3	17	4	1	385	3	58514016	2	8	1	1	3	18	3	0	3940	3	31814016	2	8	1	1	3	19	8	1	838	3	94514016	2	8	1	1	3	20	5	1	293	3	36314016	2	8	1	1	3	21	6	0	329	3	35014016	2	8	1	1	3	22	7	0	285	2	82714016	2	8	1	1	3	23	1	1	264	3	36814016	2	8	1	1	3	24	2	0	945	2	109714016	2	8	1	1	4	25	1	1	310	3	38214016	2	8	1	1	4	26	2	1	426	3	31514016	2	8	1	1	4	27	4	0	865	1	30514016	2	8	1	1	4	28	8	1	38	3	108814016	2	8	1	1	4	29	6	1	362	3	26114016	2	8	1	1	4	30	5	1	706	3	28214016	2	8	1	1	4	31	7	0	376	2	31714016	2	8	1	1	4	32	3	0	988	2	19714016	2	8	1	1	5	33	7	0	372	3	23414016	2	8	1	1	5	34	2	1	441	3	28214016	2	8	1	1	5	35	3	1	298	3	21514016	2	8	1	1	5	36	6	1	313	3	45214016	2	8	1	1	5	37	1	1	469	3	31814016	2	8	1	1	5	38	8	1	964	2	40914016	2	8	1	1	5	39	5	1	603	2	41414016	2	8	1	1	5	40	4	1	400	3	41114016	2	8	1	1	6	41	8	1	356	3	31014016	2	8	1	1	6	42	2	1	2182	3	19114016	2	8	1	1	6	43	5	0	635	3	88614016	2	8	1	1	6	44	7	0	119	3	36214016	2	8	1	1	6	45	3	1	561	1	114014016	2	8	1	1	6	46	1	1	81	3	52314016	2	8	1	1	6	47	4	1	370	3	27114016	2	8	1	1	6	48	6	0	2547	2	18114016	2	8	1	2	1	1	1	1	4591	0	014016	2	8	1	2	1	2	2	1	688	0	014016	2	8	1	2	1	3	6	0	250	0	014016	2	8	1	2	1	4	5	0	876	0	014016	2	8	1	2	1	5	10	0	586	0	014016	2	8	1	2	1	6	4	0	287	0	014016	2	8	1	2	1	7	8	1	785	0	014016	2	8	1	2	1	8	7	0	284	0	014016	2	8	1	2	1	9	9	1	435	0	014016	2	8	1	2	1	10	3	1	330	0	014016	2	8	1	2	2	11	7	0	260	0	014016	2	8	1	2	2	12	8	0	464	0	014016	2	8	1	2	2	13	2	1	316	0	014016	2	8	1	2	2	14	3	1	403	0	014016	2	8	1	2	2	15	4	1	602	0	014016	2	8	1	2	2	16	6	0	256	0	014016	2	8	1	2	2	17	1	1	266	0	014016	2	8	1	2	2	18	9	0	302	0	014016	2	8	1	2	2	19	10	0	227	0	014016	2	8	1	2	2	20	5	0	254	0	014016	2	8	1	2	3	21	7	0	752	0	014016	2	8	1	2	3	22	5	0	39	0	014016	2	8	1	2	3	23	9	1	390	0	014016	2	8	1	2	3	24	3	1	273	0	014016	2	8	1	2	3	25	4	1	392	0	014016	2	8	1	2	3	26	8	0	40	0	014016	2	8	1	2	3	27	10	0	478	0	014016	2	8	1	2	3	28	1	1	1365	0	014016	2	8	1	2	3	29	6	0	223	0	014016	2	8	1	2	3	30	2	1	363	0	014016	2	8	1	2	4	31	9	1	370	0	014016	2	8	1	2	4	32	1	0	507	0	014016	2	8	1	2	4	33	2	1	303	0	014016	2	8	1	2	4	34	10	0	60	0	014016	2	8	1	2	4	35	7	0	272	0	014016	2	8	1	2	4	36	8	0	259	0	014016	2	8	1	2	4	37	5	1	296	0	014016	2	8	1	2	4	38	6	0	562	0	014016	2	8	1	2	4	39	4	0	281	0	014016	2	8	1	2	4	40	3	1	567	0	014016	2	8	1	2	5	41	8	0	377	0	014016	2	8	1	2	5	42	6	0	50	0	014016	2	8	1	2	5	43	10	0	236	0	014016	2	8	1	2	5	44	7	0	282	0	014016	2	8	1	2	5	45	4	0	377	0	014016	2	8	1	2	5	46	3	1	267	0	014016	2	8	1	2	5	47	9	1	255	0	014016	2	8	1	2	5	48	5	1	432	0	014016	2	8	1	2	5	49	2	1	455	0	014016	2	8	1	2	5	50	1	1	113	0	014016	2	8	1	2	6	51	3	1	360	0	014016	2	8	1	2	6	52	1	1	190	0	014016	2	8	1	2	6	53	8	0	234	0	014016	2	8	1	2	6	54	4	0	401	0	014016	2	8	1	2	6	55	10	0	376	0	014016	2	8	1	2	6	56	9	1	209	0	014016	2	8	1	2	6	57	2	0	979	0	014016	2	8	1	2	6	58	7	0	439	0	014016	2	8	1	2	6	59	5	0	166	0	014016	2	8	1	2	6	60	6	0	311	0	014016	2	8	1	2	7	61	8	0	267	0	014016	2	8	1	2	7	62	9	1	264	0	014016	2	8	1	2	7	63	4	1	316	0	014016	2	8	1	2	7	64	5	0	138	0	014016	2	8	1	2	7	65	2	1	350	0	014016	2	8	1	2	7	66	1	1	811	0	014016	2	8	1	2	7	67	7	0	3524	0	014016	2	8	1	2	7	68	10	1	679	0	014016	2	8	1	2	7	69	6	0	4541	0	014016	2	8	1	2	7	70	3	0	20	0	014016	2	8	1	2	8	71	8	0	16	0	014016	2	8	1	2	8	72	4	1	370	0	014016	2	8	1	2	8	73	6	1	339	0	014016	2	8	1	2	8	74	2	0	63	0	014016	2	8	1	2	8	75	7	1	315	0	014016	2	8	1	2	8	76	5	1	1506	0	014016	2	8	1	2	8	77	3	0	262	0	014016	2	8	1	2	8	78	1	0	291	0	014016	2	8	1	2	8	79	9	0	484	0	014016	2	8	1	2	8	80	10	1	99	0	014016	2	8	1	2	9	81	8	0	224	0	014016	2	8	1	2	9	82	2	0	211	0	014016	2	8	1	2	9	83	3	0	69	0	014016	2	8	1	2	9	84	10	1	225	0	014016	2	8	1	2	9	85	5	1	396	0	014016	2	8	1	2	9	86	1	0	243	0	014016	2	8	1	2	9	87	4	0	162	0	014016	2	8	1	2	9	88	9	0	497	0	014016	2	8	1	2	9	89	6	1	339	0	014016	2	8	1	2	9	90	7	1	255	0	014016	2	8	1	2	10	91	8	1	312	0	014016	2	8	1	2	10	92	1	0	359	0	014016	2	8	1	2	10	93	10	1	301	0	014016	2	8	1	2	10	94	2	0	210	0	014016	2	8	1	2	10	95	6	1	1283	0	014016	2	8	1	2	10	96	4	1	1714	0	014016	2	8	1	2	10	97	7	1	682	0	014016	2	8	1	2	10	98	9	0	353	0	014016	2	8	1	2	10	99	3	0	256	0	014016	2	8	1	2	10	100	5	1	249	0	014016	2	8	1	2	11	101	1	0	178	0	014016	2	8	1	2	11	102	7	1	316	0	014016	2	8	1	2	11	103	10	1	283	0	014016	2	8	1	2	11	104	6	1	306	0	014016	2	8	1	2	11	105	8	0	302	0	014016	2	8	1	2	11	106	3	0	306	0	014016	2	8	1	2	11	107	5	1	1046	0	014016	2	8	1	2	11	108	2	0	695	0	014016	2	8	1	2	11	109	4	1	409	0	014016	2	8	1	2	11	110	9	0	227	0	014016	2	8	1	2	12	111	8	0	431	0	014016	2	8	1	2	12	112	9	0	206	0	014016	2	8	1	2	12	113	1	0	303	0	014016	2	8	1	2	12	114	2	0	340	0	014016	2	8	1	2	12	115	3	0	288	0	014016	2	8	1	2	12	116	7	1	817	0	014016	2	8	1	2	12	117	4	1	301	0	014016	2	8	1	2	12	118	10	1	410	0	014016	2	8	1	2	12	119	6	1	331	0	014016	2	8	1	2	12	120	5	1	260	0	014016	2	8	1	2	13	121	2	0	385	0	014016	2	8	1	2	13	122	9	0	645	0	014016	2	8	1	2	13	123	6	1	847	0	014016	2	8	1	2	13	124	4	1	344	0	014016	2	8	1	2	13	125	5	1	1844	0	014016	2	8	1	2	13	126	10	1	455	0	014016	2	8	1	2	13	127	8	1	1080	0	014016	2	8	1	2	13	128	3	0	295	0	014016	2	8	1	2	13	129	7	1	529	0	014016	2	8	1	2	13	130	1	0	459	0	014017	2	1	1	1	1	1	2	0	2516	1	122314017	2	1	1	1	1	2	5	0	1270	1	82714017	2	1	1	1	1	3	4	1	1696	2	77214017	2	1	1	1	1	4	7	0	37	1	56314017	2	1	1	1	1	5	6	0	691	1	46214017	2	1	1	1	1	6	1	0	834	1	60814017	2	1	1	1	1	7	3	1	551	3	71214017	2	1	1	1	1	8	8	1	1571	3	36414017	2	1	1	1	2	9	2	1	916	3	29514017	2	1	1	1	2	10	3	0	1106	2	64514017	2	1	1	1	2	11	6	1	266	2	51014017	2	1	1	1	2	12	8	1	1017	2	76814017	2	1	1	1	2	13	4	1	1048	3	30214017	2	1	1	1	2	14	7	0	5641	3	60714017	2	1	1	1	2	15	1	1	757	3	45414017	2	1	1	1	2	16	5	1	211	2	113814017	2	1	1	1	3	17	8	0	2572	1	74914017	2	1	1	1	3	18	3	1	446	2	93114017	2	1	1	1	3	19	2	1	861	3	81714017	2	1	1	1	3	20	6	0	584	2	100014017	2	1	1	1	3	21	5	1	903	3	210614017	2	1	1	1	3	22	4	1	1086	1	99414017	2	1	1	1	3	23	7	0	1241	1	319014017	2	1	1	1	3	24	1	1	390	3	141314017	2	1	1	1	4	25	7	1	1844	2	56214017	2	1	1	1	4	26	6	0	722	3	206114017	2	1	1	1	4	27	3	1	306	3	40514017	2	1	1	1	4	28	4	1	675	3	100714017	2	1	1	1	4	29	8	0	1487	3	99514017	2	1	1	1	4	30	2	1	1138	3	50814017	2	1	1	1	4	31	5	1	335	3	38514017	2	1	1	1	4	32	1	1	569	3	33814017	2	1	1	1	5	33	6	0	2499	2	69514017	2	1	1	1	5	34	7	0	594	1	64914017	2	1	1	1	5	35	3	1	150	3	124014017	2	1	1	1	5	36	8	1	1502	3	15314017	2	1	1	1	5	37	5	1	434	2	43214017	2	1	1	1	5	38	4	1	925	3	28714017	2	1	1	1	5	39	1	1	259	3	28014017	2	1	1	1	5	40	2	0	532	3	30214017	2	1	1	1	6	41	6	1	281	3	38914017	2	1	1	1	6	42	4	1	501	3	28014017	2	1	1	1	6	43	3	0	379	2	102714017	2	1	1	1	6	44	8	1	505	3	76414017	2	1	1	1	6	45	1	1	725	3	39914017	2	1	1	1	6	46	7	0	422	1	29314017	2	1	1	1	6	47	5	1	304	1	201214017	2	1	1	1	6	48	2	1	386	3	28914017	2	1	1	2	1	1	8	1	2108	0	014017	2	1	1	2	1	2	5	0	1862	0	014017	2	1	1	2	1	3	6	0	331	0	014017	2	1	1	2	1	4	2	1	356	0	014017	2	1	1	2	1	5	10	0	262	0	014017	2	1	1	2	1	6	3	0	346	0	014017	2	1	1	2	1	7	7	1	227	0	014017	2	1	1	2	1	8	1	1	240	0	014017	2	1	1	2	1	9	4	1	238	0	014017	2	1	1	2	1	10	9	0	796	0	014017	2	1	1	2	2	11	3	0	275	0	014017	2	1	1	2	2	12	2	1	287	0	014017	2	1	1	2	2	13	6	0	203	0	014017	2	1	1	2	2	14	8	0	290	0	014017	2	1	1	2	2	15	5	0	237	0	014017	2	1	1	2	2	16	1	1	275	0	014017	2	1	1	2	2	17	4	1	327	0	014017	2	1	1	2	2	18	7	1	297	0	014017	2	1	1	2	2	19	10	0	268	0	014017	2	1	1	2	2	20	9	1	313	0	014017	2	1	1	2	3	21	4	1	387	0	014017	2	1	1	2	3	22	7	1	290	0	014017	2	1	1	2	3	23	5	0	214	0	014017	2	1	1	2	3	24	10	0	260	0	014017	2	1	1	2	3	25	9	1	273	0	014017	2	1	1	2	3	26	6	0	261	0	014017	2	1	1	2	3	27	3	0	322	0	014017	2	1	1	2	3	28	1	1	724	0	014017	2	1	1	2	3	29	8	0	318	0	014017	2	1	1	2	3	30	2	1	240	0	014017	2	1	1	2	4	31	3	0	158	0	014017	2	1	1	2	4	32	6	0	87	0	014017	2	1	1	2	4	33	8	0	355	0	014017	2	1	1	2	4	34	1	1	468	0	014017	2	1	1	2	4	35	9	1	377	0	014017	2	1	1	2	4	36	2	1	232	0	014017	2	1	1	2	4	37	5	0	286	0	014017	2	1	1	2	4	38	10	0	266	0	014017	2	1	1	2	4	39	7	1	614	0	014017	2	1	1	2	4	40	4	0	269	0	014017	2	1	1	2	5	41	1	1	241	0	014017	2	1	1	2	5	42	3	0	302	0	014017	2	1	1	2	5	43	7	0	241	0	014017	2	1	1	2	5	44	10	0	487	0	014017	2	1	1	2	5	45	6	0	419	0	014017	2	1	1	2	5	46	9	1	266	0	014017	2	1	1	2	5	47	2	1	270	0	014017	2	1	1	2	5	48	8	0	394	0	014017	2	1	1	2	5	49	4	1	297	0	014017	2	1	1	2	5	50	5	0	300	0	014017	2	1	1	2	6	51	4	1	343	0	014017	2	1	1	2	6	52	2	1	313	0	014017	2	1	1	2	6	53	7	1	371	0	014017	2	1	1	2	6	54	8	0	284	0	014017	2	1	1	2	6	55	9	1	312	0	014017	2	1	1	2	6	56	1	1	97	0	014017	2	1	1	2	6	57	6	0	260	0	014017	2	1	1	2	6	58	3	0	249	0	014017	2	1	1	2	6	59	10	0	382	0	014017	2	1	1	2	6	60	5	0	78	0	014017	2	1	1	2	7	61	6	0	689	0	014017	2	1	1	2	7	62	8	0	1420	0	014017	2	1	1	2	7	63	5	0	2507	0	014017	2	1	1	2	7	64	4	1	2550	0	014017	2	1	1	2	7	65	3	1	488	0	014017	2	1	1	2	7	66	9	1	460	0	014017	2	1	1	2	7	67	1	1	448	0	014017	2	1	1	2	7	68	7	0	380	0	014017	2	1	1	2	7	69	2	1	452	0	014017	2	1	1	2	7	70	10	0	1057	0	014017	2	1	1	2	8	71	9	0	1663	0	014017	2	1	1	2	8	72	10	0	419	0	014017	2	1	1	2	8	73	1	1	370	0	014017	2	1	1	2	8	74	7	0	1265	0	014017	2	1	1	2	8	75	2	1	886	0	014017	2	1	1	2	8	76	6	0	378	0	014017	2	1	1	2	8	77	8	0	386	0	014017	2	1	1	2	8	78	5	0	321	0	014017	2	1	1	2	8	79	4	1	612	0	014017	2	1	1	2	8	80	3	0	345	0	014017	2	1	1	2	9	81	6	0	403	0	014017	2	1	1	2	9	82	1	1	682	0	014017	2	1	1	2	9	83	7	0	310	0	014017	2	1	1	2	9	84	3	0	1393	0	014017	2	1	1	2	9	85	5	0	272	0	014017	2	1	1	2	9	86	4	0	324	0	014017	2	1	1	2	9	87	2	1	238	0	014017	2	1	1	2	9	88	8	1	260	0	014017	2	1	1	2	9	89	10	0	240	0	014017	2	1	1	2	9	90	9	0	294	0	014017	2	1	1	2	10	91	3	1	249	0	014017	2	1	1	2	10	92	8	0	214	0	014017	2	1	1	2	10	93	1	1	196	0	014017	2	1	1	2	10	94	2	1	227	0	014017	2	1	1	2	10	95	7	0	545	0	014017	2	1	1	2	10	96	10	0	370	0	014017	2	1	1	2	10	97	4	0	323	0	014017	2	1	1	2	10	98	5	0	221	0	014017	2	1	1	2	10	99	6	0	204	0	014017	2	1	1	2	10	100	9	0	306	0	014017	2	1	1	2	11	101	7	1	389	0	014017	2	1	1	2	11	102	4	1	365	0	014017	2	1	1	2	11	103	6	0	285	0	014017	2	1	1	2	11	104	2	1	417	0	014017	2	1	1	2	11	105	5	0	303	0	014017	2	1	1	2	11	106	10	0	259	0	014017	2	1	1	2	11	107	3	0	279	0	014017	2	1	1	2	11	108	9	0	435	0	014017	2	1	1	2	11	109	8	1	360	0	014017	2	1	1	2	11	110	1	1	9	0	014017	2	1	1	2	12	111	6	0	576	0	014017	2	1	1	2	12	112	4	0	664	0	014017	2	1	1	2	12	113	5	0	299	0	014017	2	1	1	2	12	114	3	1	431	0	014017	2	1	1	2	12	115	10	0	196	0	014017	2	1	1	2	12	116	7	0	1179	0	014017	2	1	1	2	12	117	1	1	259	0	014017	2	1	1	2	12	118	2	1	273	0	014017	2	1	1	2	12	119	9	1	325	0	014017	2	1	1	2	12	120	8	0	215	0	014017	2	1	1	2	13	121	2	1	333	0	014017	2	1	1	2	13	122	7	0	223	0	014017	2	1	1	2	13	123	6	0	261	0	014017	2	1	1	2	13	124	5	0	242	0	014017	2	1	1	2	13	125	8	1	280	0	014017	2	1	1	2	13	126	1	1	315	0	014017	2	1	1	2	13	127	9	1	237	0	014017	2	1	1	2	13	128	10	0	259	0	014017	2	1	1	2	13	129	4	0	191	0	014017	2	1	1	2	13	130	3	0	1135	0	014018	2	2	2	1	1	1	2	0	5273	3	190314018	2	2	2	1	1	2	1	0	1975	2	135914018	2	2	2	1	1	3	4	1	1166	3	110814018	2	2	2	1	1	4	7	1	1324	3	131414018	2	2	2	1	1	5	6	0	2488	2	132714018	2	2	2	1	1	6	3	0	3656	2	101014018	2	2	2	1	1	7	5	0	8894	2	229914018	2	2	2	1	1	8	8	1	952	3	100314018	2	2	2	1	2	9	6	1	5973	2	158114018	2	2	2	1	2	10	8	1	4225	1	108314018	2	2	2	1	2	11	3	0	1910	2	326514018	2	2	2	1	2	12	7	0	886	3	150014018	2	2	2	1	2	13	2	0	4425	2	101014018	2	2	2	1	2	14	5	1	965	3	214614018	2	2	2	1	2	15	1	1	3431	2	99514018	2	2	2	1	2	16	4	0	4563	2	121814018	2	2	2	1	3	17	1	1	2326	3	80514018	2	2	2	1	3	18	3	1	1031	3	103414018	2	2	2	1	3	19	4	1	113	3	131514018	2	2	2	1	3	20	6	1	5027	2	138214018	2	2	2	1	3	21	8	1	1442	3	100514018	2	2	2	1	3	22	2	0	7894	1	199414018	2	2	2	1	3	23	5	1	1194	3	127814018	2	2	2	1	3	24	7	1	2140	3	92514018	2	2	2	1	4	25	4	1	1119	3	118714018	2	2	2	1	4	26	5	1	807	3	94814018	2	2	2	1	4	27	2	0	2553	2	102914018	2	2	2	1	4	28	8	0	4724	3	332314018	2	2	2	1	4	29	1	1	615	3	90714018	2	2	2	1	4	30	6	1	4216	3	117814018	2	2	2	1	4	31	3	1	166	3	135614018	2	2	2	1	4	32	7	0	1579	2	100414018	2	2	2	1	5	33	5	1	9949	3	98914018	2	2	2	1	5	34	2	1	2281	3	94914018	2	2	2	1	5	35	8	1	836	3	139114018	2	2	2	1	5	36	7	1	343	3	363014018	2	2	2	1	5	37	6	0	1063	3	104014018	2	2	2	1	5	38	4	1	751	3	97714018	2	2	2	1	5	39	3	1	2718	2	98614018	2	2	2	1	5	40	1	1	927	3	97214018	2	2	2	1	6	41	3	1	5982	3	104914018	2	2	2	1	6	42	6	1	7642	1	95514018	2	2	2	1	6	43	1	1	122	3	112514018	2	2	2	1	6	44	5	1	1111	3	89814018	2	2	2	1	6	45	8	1	287	3	122014018	2	2	2	1	6	46	4	1	1200	3	145914018	2	2	2	1	6	47	2	1	664	2	104914018	2	2	2	1	6	48	7	1	1778	2	103514018	2	2	2	2	1	1	3	0	8616	0	014018	2	2	2	2	1	2	1	1	656	0	014018	2	2	2	2	1	3	2	1	610	0	014018	2	2	2	2	1	4	5	0	1388	0	014018	2	2	2	2	1	5	7	0	648	0	014018	2	2	2	2	1	6	8	0	2266	0	014018	2	2	2	2	1	7	9	1	583	0	014018	2	2	2	2	1	8	6	0	691	0	014018	2	2	2	2	1	9	10	0	1877	0	014018	2	2	2	2	1	10	4	1	645	0	014018	2	2	2	2	2	11	10	1	8661	0	014018	2	2	2	2	2	12	2	1	557	0	014018	2	2	2	2	2	13	8	0	5076	0	014018	2	2	2	2	2	14	4	0	4117	0	014018	2	2	2	2	2	15	3	0	3126	0	014018	2	2	2	2	2	16	1	1	792	0	014018	2	2	2	2	2	17	7	0	680	0	014018	2	2	2	2	2	18	9	0	1535	0	014018	2	2	2	2	2	19	5	0	3120	0	014018	2	2	2	2	2	20	6	0	6784	0	0