"date","subj","cbal","keyb","phase","block","trial","stim","vtft","ftpks","pk1acc","totpks","pos1rt","neg1rt"
2007-01-16,1,1,"left",1,1,1,"S0020",3,0,"+",1,1760,10291
2007-01-16,1,1,"left",1,1,2,"S0100",2,1,"*",3,961,2253
2007-01-16,1,1,"left",1,1,3,"S0001",3,1,"*",2,776,-1
2007-01-16,1,1,"left",1,1,4,"S2000",2,0,"+",1,1822,6026
2007-01-16,1,1,"left",1,1,5,"S1000",3,0,"+",1,3384,1248
2007-01-16,1,1,"left",1,1,6,"S0010",3,0,"+",1,5821,1228
2007-01-16,1,1,"left",1,1,7,"S0200",3,0,"*",2,-1,2437
2007-01-16,1,1,"left",1,1,8,"S0002",2,0,"*",2,-1,1310
2007-01-16,1,1,"left",1,1,9,"S0001",3,0,"*",2,1125,-1
2007-01-16,1,1,"left",1,1,10,"S1000",3,0,"+",1,7543,1084
2007-01-16,1,1,"left",1,1,11,"S0002",2,0,"*",2,-1,1064
2007-01-16,1,1,"left",1,1,12,"S0010",3,0,"*",3,1022,-1
2007-01-16,1,1,"left",1,1,13,"S2000",2,0,"*",1,-1,3668
2007-01-16,1,1,"left",1,1,14,"S0100",2,0,"+",1,6148,1329
2007-01-16,1,1,"left",1,1,15,"S0020",3,0,"*",4,-1,1268
2007-01-16,1,1,"left",1,1,16,"S0200",2,0,"+",1,6642,7503
2007-01-16,1,1,"left",1,1,17,"S0001",2,0,"*",1,4856,-1
2007-01-16,1,1,"left",1,1,18,"S0200",3,1,"*",4,-1,1001
2007-01-16,1,1,"left",1,1,19,"S0002",2,0,"*",1,-1,4631
2007-01-16,1,1,"left",1,1,20,"S0100",3,0,"*",3,2457,-1
2007-01-16,1,1,"left",1,1,21,"S0010",2,0,"+",1,5472,1165
2007-01-16,1,1,"left",1,1,22,"S2000",2,0,"*",3,-1,1104
2007-01-16,1,1,"left",1,1,23,"S1000",3,0,"+",1,5861,2867
2007-01-16,1,1,"left",1,1,24,"S0020",2,0,"*",1,-1,2170
2007-01-16,1,1,"left",1,1,25,"S0002",3,0,"+",1,4016,6723
2007-01-16,1,1,"left",1,1,26,"S1000",2,0,"+",1,6148,2949
2007-01-16,1,1,"left",1,1,27,"S0200",3,0,"*",2,-1,2806
2007-01-16,1,1,"left",1,1,28,"S2000",2,0,"*",2,-1,1596
2007-01-16,1,1,"left",1,1,29,"S0100",2,1,"*",2,1001,-1
2007-01-16,1,1,"left",1,1,30,"S0020",2,0,"*",1,-1,2026
2007-01-16,1,1,"left",1,1,31,"S0001",3,0,"*",2,1083,-1
2007-01-16,1,1,"left",1,1,32,"S0010",3,0,"+",1,7584,3380
2007-01-16,1,1,"left",1,1,33,"S0020",3,0,"*",1,-1,3995
2007-01-16,1,1,"left",1,1,34,"S0100",2,0,"*",1,2435,-1
2007-01-16,1,1,"left",1,1,35,"S1000",2,0,"*",1,3072,-1
2007-01-16,1,1,"left",1,1,36,"S2000",3,0,"*",1,-1,3482
2007-01-16,1,1,"left",1,1,37,"S0001",3,0,"*",1,3523,-1
2007-01-16,1,1,"left",1,1,38,"S0200",3,0,"*",1,-1,3522
2007-01-16,1,1,"left",1,1,39,"S0002",2,0,"*",1,-1,4651
2007-01-16,1,1,"left",1,1,40,"S0010",3,0,"*",2,2518,-1
2007-01-16,1,1,"left",1,1,41,"S0001",2,0,"*",1,3051,-1
2007-01-16,1,1,"left",1,1,42,"S0200",3,0,"*",2,-1,2641
2007-01-16,1,1,"left",1,1,43,"S0002",2,0,"*",1,-1,3420
2007-01-16,1,1,"left",1,1,44,"S0010",3,0,"*",2,1635,-1
2007-01-16,1,1,"left",1,1,45,"S0100",2,0,"*",1,3974,-1
2007-01-16,1,1,"left",1,1,46,"S2000",2,0,"+",1,2825,5245
2007-01-16,1,1,"left",1,1,47,"S0020",3,0,"*",3,-1,2128
2007-01-16,1,1,"left",1,1,48,"S1000",2,0,"*",2,1533,-1
2007-01-16,1,1,"left",1,1,49,"S0002",2,0,"*",1,-1,3563
2007-01-16,1,1,"left",1,1,50,"S1000",2,0,"*",1,3255,-1
2007-01-16,1,1,"left",1,1,51,"S0010",2,0,"+",1,5060,2415
2007-01-16,1,1,"left",1,1,52,"S0020",3,0,"*",5,-1,1615
2007-01-16,1,1,"left",1,1,53,"S0001",3,0,"*",1,3644,-1
2007-01-16,1,1,"left",1,1,54,"S0100",2,0,"+",1,6126,3747
2007-01-16,1,1,"left",1,1,55,"S2000",3,1,"*",3,2619,999
2007-01-16,1,1,"left",1,1,56,"S0200",2,0,"+",1,1491,5121
2007-01-16,1,1,"left",1,1,57,"S0100",2,1,"*",3,876,-1
2007-01-16,1,1,"left",1,1,58,"S0010",3,0,"*",3,1388,3665
2007-01-16,1,1,"left",1,1,59,"S2000",2,0,"*",1,-1,3542
2007-01-16,1,1,"left",1,1,60,"S0001",2,0,"*",2,1491,-1
2007-01-16,1,1,"left",1,1,61,"S0020",3,0,"*",3,-1,1266
2007-01-16,1,1,"left",1,1,62,"S0200",3,1,"*",4,-1,958
2007-01-16,1,1,"left",1,1,63,"S1000",2,0,"*",1,2230,-1
2007-01-16,1,1,"left",1,1,64,"S0002",2,0,"*",1,-1,2455
2007-01-16,1,1,"left",1,2,1,"S0002",2,0,"*",1,-1,2026
2007-01-16,1,1,"left",1,2,2,"S2000",3,0,"*",4,-1,1471
2007-01-16,1,1,"left",1,2,3,"S1000",3,0,"*",3,1819,-1
2007-01-16,1,1,"left",1,2,4,"S0200",3,0,"*",2,-1,1737
2007-01-16,1,1,"left",1,2,5,"S0010",2,0,"*",1,2577,-1
2007-01-16,1,1,"left",1,2,6,"S0100",3,0,"*",3,1593,-1
2007-01-16,1,1,"left",1,2,7,"S0020",3,0,"*",3,-1,1163
2007-01-16,1,1,"left",1,2,8,"S0001",3,0,"*",2,2681,-1
2007-01-16,1,1,"left",1,2,9,"S0100",3,0,"*",2,1758,-1
2007-01-16,1,1,"left",1,2,10,"S0020",3,0,"*",2,-1,2987
2007-01-16,1,1,"left",1,2,11,"S0010",2,0,"*",1,4097,-1
2007-01-16,1,1,"left",1,2,12,"S2000",2,0,"*",1,-1,2045
2007-01-16,1,1,"left",1,2,13,"S0001",2,0,"*",2,1921,-1
2007-01-16,1,1,"left",1,2,14,"S0002",2,0,"*",2,-1,1676
2007-01-16,1,1,"left",1,2,15,"S1000",2,0,"*",2,1061,-1
2007-01-16,1,1,"left",1,2,16,"S0200",3,0,"*",4,-1,1081
2007-01-16,1,1,"left",1,2,17,"S0002",3,0,"*",1,-1,3378
2007-01-16,1,1,"left",1,2,18,"S0010",3,0,"*",1,3213,-1
2007-01-16,1,1,"left",1,2,19,"S0001",2,0,"*",1,2414,-1
2007-01-16,1,1,"left",1,2,20,"S0200",3,0,"*",1,-1,3172
2007-01-16,1,1,"left",1,2,21,"S1000",2,0,"*",1,2947,-1
2007-01-16,1,1,"left",1,2,22,"S0020",2,0,"*",1,-1,3089
2007-01-16,1,1,"left",1,2,23,"S2000",3,0,"*",2,-1,2414
2007-01-16,1,1,"left",1,2,24,"S0100",2,0,"*",1,4013,-1
2007-01-16,1,1,"left",1,2,25,"S0010",3,0,"*",2,1572,-1
2007-01-16,1,1,"left",1,2,26,"S0200",3,0,"*",2,-1,2537
2007-01-16,1,1,"left",1,2,27,"S2000",2,0,"*",1,-1,3501
2007-01-16,1,1,"left",1,2,28,"S0100",2,0,"*",1,2557,-1
2007-01-16,1,1,"left",1,2,29,"S0001",2,0,"*",1,2784,-1
2007-01-16,1,1,"left",1,2,30,"S0002",3,0,"*",1,-1,3666
2007-01-16,1,1,"left",1,2,31,"S0020",3,0,"*",3,-1,1820
2007-01-16,1,1,"left",1,2,32,"S1000",3,0,"*",2,2456,-1
2007-01-16,1,1,"left",1,2,33,"S0200",2,0,"*",2,-1,1962
2007-01-16,1,1,"left",1,2,34,"S0010",2,0,"*",1,2373,-1
2007-01-16,1,1,"left",1,2,35,"S1000",2,0,"*",1,2086,-1
2007-01-16,1,1,"left",1,2,36,"S0002",3,0,"*",3,-1,1717
2007-01-16,1,1,"left",1,2,37,"S0001",2,0,"*",1,4403,-1
2007-01-16,1,1,"left",1,2,38,"S0100",3,0,"*",3,2025,-1
2007-01-16,1,1,"left",1,2,39,"S2000",3,0,"*",1,-1,3070
2007-01-16,1,1,"left",1,2,40,"S0020",3,0,"*",2,-1,2272
2007-01-16,1,1,"left",1,2,41,"S0001",3,0,"*",1,3296,-1
2007-01-16,1,1,"left",1,2,42,"S0002",3,0,"*",2,-1,2251
2007-01-16,1,1,"left",1,2,43,"S2000",3,0,"*",2,-1,1574
2007-01-16,1,1,"left",1,2,44,"S0100",2,1,"*",2,896,-1
2007-01-16,1,1,"left",1,2,45,"S0020",2,0,"*",2,-1,1718
2007-01-16,1,1,"left",1,2,46,"S0200",2,0,"*",2,-1,1143
2007-01-16,1,1,"left",1,2,47,"S1000",3,0,"*",2,2742,-1
2007-01-16,1,1,"left",1,2,48,"S0010",2,0,"*",2,1349,-1
2007-01-16,1,1,"left",1,2,49,"S0020",3,0,"*",3,-1,2418
2007-01-16,1,1,"left",1,2,50,"S0010",3,0,"*",4,1411,-1
2007-01-16,1,1,"left",1,2,51,"S2000",3,0,"*",2,-1,2825
2007-01-16,1,1,"left",1,2,52,"S0200",3,0,"*",1,-1,3789
2007-01-16,1,1,"left",1,2,53,"S1000",3,0,"*",3,1573,-1
2007-01-16,1,1,"left",1,2,54,"S0002",2,1,"*",4,-1,754
2007-01-16,1,1,"left",1,2,55,"S0001",2,1,"*",4,773,-1
2007-01-16,1,1,"left",1,2,56,"S0100",2,1,"*",5,896,-1
2007-01-16,1,1,"left",1,2,57,"S2000",3,1,"*",4,-1,875
2007-01-16,1,1,"left",1,2,58,"S0100",3,1,"*",3,938,-1
2007-01-16,1,1,"left",1,2,59,"S0200",2,1,"*",2,-1,939
2007-01-16,1,1,"left",1,2,60,"S0020",3,0,"*",3,-1,1696
2007-01-16,1,1,"left",1,2,61,"S1000",2,1,"*",5,897,-1
2007-01-16,1,1,"left",1,2,62,"S0001",3,0,"*",3,1204,-1
2007-01-16,1,1,"left",1,2,63,"S0002",2,1,"*",2,-1,938
2007-01-16,1,1,"left",1,2,64,"S0010",3,1,"*",3,938,-1
2007-01-16,1,1,"left",2,1,1,"S3420",2,1,"*",2,1005,-1
2007-01-16,1,1,"left",2,1,2,"S7860",3,1,"*",4,-1,841
2007-01-16,1,1,"left",2,1,3,"S3420",3,0,"*",2,2111,-1
2007-01-16,1,1,"left",2,1,4,"S3420",3,0,"*",3,1374,-1
2007-01-16,1,1,"left",2,1,5,"S7860",3,0,"*",2,-1,1578
2007-01-16,1,1,"left",2,1,6,"S3420",2,0,"*",2,1476,-1
2007-01-16,1,1,"left",2,1,7,"S7860",2,2,"*",3,-1,636
2007-01-16,1,1,"left",2,1,8,"S7860",2,1,"*",2,-1,881
2007-01-16,1,1,"left",2,1,9,"S3420",2,0,"*",1,3180,-1
2007-01-16,1,1,"left",2,1,10,"S3420",3,1,"*",5,862,-1
2007-01-16,1,1,"left",2,1,11,"S7860",2,0,"*",2,-1,1539
2007-01-16,1,1,"left",2,1,12,"S7860",2,0,"*",3,-1,1313
2007-01-16,1,1,"left",2,1,13,"S3420",2,0,"*",1,2381,-1
2007-01-16,1,1,"left",2,1,14,"S7860",2,0,"*",2,-1,1211
2007-01-16,1,1,"left",2,1,15,"S7860",3,0,"*",4,-1,1539
2007-01-16,1,1,"left",2,1,16,"S3420",2,0,"*",2,1847,-1
2007-01-16,1,1,"left",2,1,17,"S3420",3,1,"*",4,842,-1
2007-01-16,1,1,"left",2,1,18,"S7860",2,1,"*",3,-1,903
2007-01-16,1,1,"left",2,1,19,"S3420",2,0,"*",2,1847,-1
2007-01-16,1,1,"left",2,1,20,"S7860",2,0,"*",2,-1,1149
2007-01-16,1,1,"left",2,1,21,"S7860",2,0,"*",3,-1,1068
2007-01-16,1,1,"left",2,1,22,"S3420",3,1,"*",5,841,-1
2007-01-16,1,1,"left",2,1,23,"S3420",2,0,"*",3,1087,-1
2007-01-16,1,1,"left",2,1,24,"S7860",2,1,"*",3,-1,965
2007-01-16,1,1,"left",2,1,25,"S3420",3,0,"*",4,1416,-1
2007-01-16,1,1,"left",2,1,26,"S7860",2,1,"*",3,-1,821
2007-01-16,1,1,"left",2,1,27,"S3420",2,0,"*",2,1416,-1
2007-01-16,1,1,"left",2,1,28,"S7860",3,0,"*",4,-1,1170
2007-01-16,1,1,"left",2,1,29,"S3420",3,0,"*",4,1396,-1
2007-01-16,1,1,"left",2,1,30,"S3420",3,0,"*",3,1560,-1
2007-01-16,1,1,"left",2,1,31,"S7860",3,0,"*",5,-1,1847
2007-01-16,1,1,"left",2,1,32,"S7860",3,1,"*",4,-1,842
2007-01-16,1,1,"left",3,1,1,"S7860",2,1,"*",3,-1,924
2007-01-16,1,1,"left",3,1,2,"S7860",3,1,"*",4,-1,821
2007-01-16,1,1,"left",3,1,3,"S3420",2,1,"*",3,923,-1
2007-01-16,1,1,"left",3,1,4,"S3420",3,1,"*",4,986,-1
2007-01-16,1,1,"left",3,1,5,"S7860",2,1,"*",2,-1,1005
2007-01-16,1,1,"left",3,1,6,"S7860",3,1,"*",3,-1,945
2007-01-16,1,1,"left",3,1,7,"S3420",3,0,"*",3,1847,-1
2007-01-16,1,1,"left",3,1,8,"S7860",2,0,"*",2,-1,1683
2007-01-16,1,1,"left",3,1,9,"S3420",3,0,"*",3,1929,-1
2007-01-16,1,1,"left",3,1,10,"S3420",3,0,"*",1,5702,-1
2007-01-16,1,1,"left",3,1,11,"S7860",3,0,"*",2,-1,2256
2007-01-16,1,1,"left",3,1,12,"S7860",3,0,"*",3,-1,1395
2007-01-16,1,1,"left",3,1,13,"S3420",2,0,"*",2,1764,-1
2007-01-16,1,1,"left",3,1,14,"S3420",3,0,"*",5,1129,-1
2007-01-16,1,1,"left",3,1,15,"S7860",2,0,"*",2,-1,1416
2007-01-16,1,1,"left",3,1,16,"S3420",2,0,"*",2,1211,-1
2007-01-16,1,1,"left",3,1,17,"S7860",3,0,"*",1,-1,8860
2007-01-16,1,1,"left",3,1,18,"S7860",2,1,"*",6,-1,965
2007-01-16,1,1,"left",3,1,19,"S3420",2,0,"*",2,1949,-1
2007-01-16,1,1,"left",3,1,20,"S3420",2,1,"*",2,924,-1
2007-01-16,1,1,"left",3,2,1,"S7860",2,0,"R",1,-1,1149
2007-01-16,1,1,"left",3,2,2,"S7860",2,1,"*",4,-1,883
2007-01-16,1,1,"left",3,2,3,"S3820",2,0,"L",1,2134,-1
2007-01-16,1,1,"left",3,2,4,"S3420",3,1,"*",7,904,-1
2007-01-16,1,1,"left",3,2,5,"S3420",3,0,"*",2,1211,-1
2007-01-16,1,1,"left",3,2,6,"S3820",2,0,"L",1,1437,-1
2007-01-16,1,1,"left",3,2,7,"S3420",2,0,"*",3,1047,-1
2007-01-16,1,1,"left",3,2,8,"S3420",2,0,"L",1,801,-1
2007-01-16,1,1,"left",3,2,9,"S3420",3,0,"*",4,1641,-1
2007-01-16,1,1,"left",3,2,10,"S3420",3,0,"*",3,1026,-1
2007-01-16,1,1,"left",3,2,11,"S7460",2,0,"R",1,-1,924
2007-01-16,1,1,"left",3,2,12,"S3420",3,0,"*",6,1109,-1
2007-01-16,1,1,"left",3,2,13,"S7860",3,0,"*",3,-1,1150
2007-01-16,1,1,"left",3,2,14,"S3420",3,1,"*",4,904,-1
2007-01-16,1,1,"left",3,2,15,"S7820",3,0,"R",1,-1,1744
2007-01-16,1,1,"left",3,2,16,"S7860",3,0,"*",4,-1,1252
2007-01-16,1,1,"left",3,2,17,"S3460",3,0,"L",1,841,-1
2007-01-16,1,1,"left",3,2,18,"S3420",2,0,"*",3,1211,-1
2007-01-16,1,1,"left",3,2,19,"S3860",2,0,"R",1,-1,781
2007-01-16,1,1,"left",3,2,20,"S7860",3,1,"*",5,-1,841
2007-01-16,1,1,"left",3,2,21,"S3420",2,0,"L",1,862,-1
2007-01-16,1,1,"left",3,2,22,"S7860",2,1,"*",5,-1,924
2007-01-16,1,1,"left",3,2,23,"S7460",3,0,"R",1,-1,821
2007-01-16,1,1,"left",3,2,24,"S7860",2,1,"*",2,-1,801
2007-01-16,1,1,"left",3,2,25,"S7420",3,0,"L",1,882,-1
2007-01-16,1,1,"left",3,2,26,"S3420",2,1,"*",4,903,-1
2007-01-16,1,1,"left",3,2,27,"S7860",3,1,"*",7,-1,904
2007-01-16,1,1,"left",3,2,28,"S7860",2,1,"*",3,-1,862
2007-01-16,1,1,"left",3,2,29,"S7860",3,0,"R",1,-1,719
2007-01-16,1,1,"left",3,2,30,"S3420",3,0,"*",2,1375,-1
2007-01-16,1,1,"left",3,2,31,"S7820",2,0,"R",1,-1,821
2007-01-16,1,1,"left",3,2,32,"S7860",2,1,"*",4,-1,739
2007-01-16,1,1,"left",3,2,33,"S7420",2,0,"L",1,821,-1
2007-01-16,1,1,"left",3,2,34,"S7860",2,1,"*",5,-1,842
2007-01-16,1,1,"left",3,2,35,"S7860",3,1,"*",5,-1,801
2007-01-16,1,1,"left",3,2,36,"S3860",2,0,"R",1,-1,822
2007-01-16,1,1,"left",3,2,37,"S3420",2,0,"*",4,1170,-1
2007-01-16,1,1,"left",3,2,38,"S3420",2,1,"*",4,883,-1
2007-01-16,1,1,"left",3,2,39,"S7860",3,1,"*",8,-1,841
2007-01-16,1,1,"left",3,2,40,"S3460",2,0,"L",1,801,-1
2007-01-16,2,1,"right",1,1,1,"S0200",3,0,"+",1,14208,5821
2007-01-16,2,1,"right",1,1,2,"S0002",3,0,"+",1,4101,2458
2007-01-16,2,1,"right",1,1,3,"S1000",3,1,"*",6,-1,736
2007-01-16,2,1,"right",1,1,4,"S2000",3,0,"+",1,18026,653
2007-01-16,2,1,"right",1,1,5,"S0010",2,0,"*",1,-1,8507
2007-01-16,2,1,"right",1,1,6,"S0020",2,0,"+",1,21244,6231
2007-01-16,2,1,"right",1,1,7,"S0001",2,0,"*",2,-1,1966
2007-01-16,2,1,"right",1,1,8,"S0100",3,0,"+",1,3196,24852
2007-01-16,2,1,"right",1,1,9,"S0200",3,0,"+",1,18309,755
2007-01-16,2,1,"right",1,1,10,"S0002",2,0,"+",1,15747,4672
2007-01-16,2,1,"right",1,1,11,"S0010",2,0,"*",1,-1,2354
2007-01-16,2,1,"right",1,1,12,"S0100",2,0,"+",2,673,1104
2007-01-16,2,1,"right",1,1,13,"S0020",2,1,"*",3,673,3401
2007-01-16,2,1,"right",1,1,14,"S2000",2,0,"+",1,4877,529
2007-01-16,2,1,"right",1,1,15,"S1000",2,0,"*",3,-1,1165
2007-01-16,2,1,"right",1,1,16,"S0001",3,0,"+",1,1862,5389
2007-01-16,2,1,"right",1,1,17,"S0200",2,0,"+",1,4796,592
2007-01-16,2,1,"right",1,1,18,"S0100",2,0,"+",1,712,3666
2007-01-16,2,1,"right",1,1,19,"S0002",3,1,"*",2,590,1471
2007-01-16,2,1,"right",1,1,20,"S0010",2,1,"*",4,-1,774
2007-01-16,2,1,"right",1,1,21,"S0020",3,0,"+",4,1903,1184
2007-01-16,2,1,"right",1,1,22,"S0001",2,0,"*",3,-1,1594
2007-01-16,2,1,"right",1,1,23,"S2000",3,1,"*",2,632,1288
2007-01-16,2,1,"right",1,1,24,"S1000",2,1,"*",4,-1,878
2007-01-16,2,1,"right",1,1,25,"S0100",3,0,"+",1,2312,5082
2007-01-16,2,1,"right",1,1,26,"S2000",2,1,"*",5,714,2068
2007-01-16,2,1,"right",1,1,27,"S0200",3,1,"*",8,673,-1
2007-01-16,2,1,"right",1,1,28,"S1000",2,0,"*",1,-1,2600
2007-01-16,2,1,"right",1,1,29,"S0020",3,0,"+",1,5470,2148
2007-01-16,2,1,"right",1,1,30,"S0010",2,0,"+",1,2395,4179
2007-01-16,2,1,"right",1,1,31,"S0001",3,1,"*",6,-1,775
2007-01-16,2,1,"right",1,1,32,"S0002",3,0,"*",5,1922,-1
2007-01-16,2,1,"right",1,1,33,"S2000",3,0,"+",1,4179,918
2007-01-16,2,1,"right",1,1,34,"S0100",2,0,"*",2,-1,1123
2007-01-16,2,1,"right",1,1,35,"S0010",2,0,"+",1,855,2558
2007-01-16,2,1,"right",1,1,36,"S0002",3,0,"+",1,3911,2537
2007-01-16,2,1,"right",1,1,37,"S0020",2,0,"+",1,2271,897
2007-01-16,2,1,"right",1,1,38,"S0001",2,0,"*",1,-1,5326
2007-01-16,2,1,"right",1,1,39,"S1000",2,0,"*",3,-1,1471
2007-01-16,2,1,"right",1,1,40,"S0200",2,0,"*",1,3131,-1
2007-01-16,2,1,"right",1,1,41,"S0001",2,1,"*",2,-1,692
2007-01-16,2,1,"right",1,1,42,"S1000",3,0,"*",2,-1,2968
2007-01-16,2,1,"right",1,1,43,"S0002",2,0,"*",1,3152,-1
2007-01-16,2,1,"right",1,1,44,"S2000",2,0,"*",1,3173,-1
2007-01-16,2,1,"right",1,1,45,"S0100",3,0,"*",7,-1,1122
2007-01-16,2,1,"right",1,1,46,"S0020",3,0,"+",1,4898,2909
2007-01-16,2,1,"right",1,1,47,"S0200",3,0,"*",1,3521,-1
2007-01-16,2,1,"right",1,1,48,"S0010",3,0,"*",3,-1,2475
2007-01-16,2,1,"right",1,1,49,"S0001",2,0,"*",1,-1,2988
2007-01-16,2,1,"right",1,1,50,"S2000",3,0,"*",2,2968,-1
2007-01-16,2,1,"right",1,1,51,"S0100",3,0,"*",4,-1,1942
2007-01-16,2,1,"right",1,1,52,"S0020",2,0,"*",1,2085,-1
2007-01-16,2,1,"right",1,1,53,"S0010",2,0,"*",2,-1,1697
2007-01-16,2,1,"right",1,1,54,"S0002",2,0,"*",1,2560,-1
2007-01-16,2,1,"right",1,1,55,"S1000",3,0,"*",3,-1,2558
2007-01-16,2,1,"right",1,1,56,"S0200",2,1,"*",6,814,-1
2007-01-16,2,1,"right",1,1,57,"S0002",3,0,"+",1,6843,917
2007-01-16,2,1,"right",1,1,58,"S0001",2,0,"*",4,-1,1286
2007-01-16,2,1,"right",1,1,59,"S0020",3,1,"*",9,895,-1
2007-01-16,2,1,"right",1,1,60,"S0100",2,0,"*",5,-1,1082
2007-01-16,2,1,"right",1,1,61,"S0010",3,0,"*",1,-1,3296
2007-01-16,2,1,"right",1,1,62,"S0200",2,0,"*",1,3666,-1
2007-01-16,2,1,"right",1,1,63,"S1000",2,0,"*",1,-1,3584
2007-01-16,2,1,"right",1,1,64,"S2000",3,0,"*",3,2168,-1
2007-01-16,2,1,"right",1,2,1,"S0200",3,0,"*",4,1081,-1
2007-01-16,2,1,"right",1,2,2,"S0010",3,0,"*",1,-1,4302
2007-01-16,2,1,"right",1,2,3,"S2000",2,0,"+",1,9756,2004
2007-01-16,2,1,"right",1,2,4,"S0002",2,1,"*",2,650,-1
2007-01-16,2,1,"right",1,2,5,"S0001",3,0,"*",1,-1,5286
2007-01-16,2,1,"right",1,2,6,"S0020",3,0,"*",1,4158,-1
2007-01-16,2,1,"right",1,2,7,"S0100",2,1,"*",2,-1,425
2007-01-16,2,1,"right",1,2,8,"S1000",2,0,"*",1,-1,2968
2007-01-16,2,1,"right",1,2,9,"S2000",3,0,"*",4,1677,-1
2007-01-16,2,1,"right",1,2,10,"S0100",2,1,"*",3,-1,568
2007-01-16,2,1,"right",1,2,11,"S0200",2,0,"*",1,8363,-1
2007-01-16,2,1,"right",1,2,12,"S0001",2,2,"*",7,-1,425
2007-01-16,2,1,"right",1,2,13,"S0002",3,1,"*",2,549,-1
2007-01-16,2,1,"right",1,2,14,"S1000",3,0,"*",4,-1,1204
2007-01-16,2,1,"right",1,2,15,"S0020",3,0,"*",1,3071,-1
2007-01-16,2,1,"right",1,2,16,"S0010",3,0,"*",3,-1,1472
2007-01-16,2,1,"right",1,2,17,"S0020",3,0,"*",4,1779,-1
2007-01-16,2,1,"right",1,2,18,"S0002",3,0,"*",5,1615,-1
2007-01-16,2,1,"right",1,2,19,"S0010",3,0,"*",7,-1,1188
2007-01-16,2,1,"right",1,2,20,"S0100",2,0,"*",1,-1,2559
2007-01-16,2,1,"right",1,2,21,"S2000",2,0,"*",1,9572,-1
2007-01-16,2,1,"right",1,2,22,"S0001",3,0,"*",6,-1,1471
2007-01-16,2,1,"right",1,2,23,"S1000",2,0,"*",1,-1,3685
2007-01-16,2,1,"right",1,2,24,"S0200",2,0,"*",1,5082,-1
2007-01-16,2,1,"right",1,2,25,"S0100",2,0,"*",1,-1,4404
2007-01-16,2,1,"right",1,2,26,"S1000",2,0,"*",1,-1,3687
2007-01-16,2,1,"right",1,2,27,"S0002",2,0,"*",1,6925,-1
2007-01-16,2,1,"right",1,2,28,"S0020",2,1,"*",6,938,-1
2007-01-16,2,1,"right",1,2,29,"S0010",2,0,"*",2,-1,1718
2007-01-16,2,1,"right",1,2,30,"S0200",3,0,"*",2,2558,-1
2007-01-16,2,1,"right",1,2,31,"S2000",3,0,"*",1,11417,-1
2007-01-16,2,1,"right",1,2,32,"S0001",2,0,"*",2,-1,1963
2007-01-16,2,1,"right",1,2,33,"S0010",3,0,"*",2,-1,2825
2007-01-16,2,1,"right",1,2,34,"S0200",2,0,"*",1,3237,-1
2007-01-16,2,1,"right",1,2,35,"S1000",3,0,"*",3,-1,2311
2007-01-16,2,1,"right",1,2,36,"S0001",2,0,"*",4,-1,1410
2007-01-16,2,1,"right",1,2,37,"S0002",2,0,"*",2,1678,-1
2007-01-16,2,1,"right",1,2,38,"S0020",3,0,"*",4,1656,-1
2007-01-16,2,1,"right",1,2,39,"S0100",3,0,"*",2,-1,2804
2007-01-16,2,1,"right",1,2,40,"S2000",3,0,"*",1,3503,-1
2007-01-16,2,1,"right",1,2,41,"S1000",2,0,"*",1,-1,3543
2007-01-16,2,1,"right",1,2,42,"S0020",2,1,"*",5,714,-1
2007-01-16,2,1,"right",1,2,43,"S0002",3,0,"*",7,1082,-1
2007-01-16,2,1,"right",1,2,44,"S0001",2,0,"*",1,-1,19172
2007-01-16,2,1,"right",1,2,45,"S0100",3,0,"*",3,-1,1841
2007-01-16,2,1,"right",1,2,46,"S2000",3,0,"*",4,1882,-1
2007-01-16,2,1,"right",1,2,47,"S0200",3,0,"*",3,2519,-1
2007-01-16,2,1,"right",1,2,48,"S0010",3,1,"*",8,-1,878
2007-01-16,2,1,"right",1,2,49,"S0001",2,0,"*",3,-1,1390
2007-01-16,2,1,"right",1,2,50,"S0002",3,0,"*",1,8424,-1
2007-01-16,2,1,"right",1,2,51,"S0100",2,0,"*",1,-1,2088
2007-01-16,2,1,"right",1,2,52,"S2000",2,0,"*",1,2394,-1
2007-01-16,2,1,"right",1,2,53,"S0020",3,0,"*",1,3093,-1
2007-01-16,2,1,"right",1,2,54,"S1000",2,0,"*",1,-1,3011
2007-01-16,2,1,"right",1,2,55,"S0200",2,0,"*",1,2765,-1
2007-01-16,2,1,"right",1,2,56,"S0010",2,0,"*",2,-1,1616
2007-01-16,2,1,"right",1,2,57,"S0002",3,0,"*",3,2071,-1
2007-01-16,2,1,"right",1,2,58,"S0020",2,0,"*",1,3873,-1
2007-01-16,2,1,"right",1,2,59,"S0001",3,0,"*",11,-1,1205
2007-01-16,2,1,"right",1,2,60,"S0100",2,0,"*",6,-1,1020
2007-01-16,2,1,"right",1,2,61,"S0200",2,1,"*",8,755,-1
2007-01-16,2,1,"right",1,2,62,"S1000",3,0,"*",8,-1,1431
2007-01-16,2,1,"right",1,2,63,"S0010",3,0,"*",6,-1,1309
2007-01-16,2,1,"right",1,2,64,"S2000",3,0,"*",2,2887,-1
2007-01-16,2,1,"right",2,1,1,"S7860",2,0,"*",1,5210,-1
2007-01-16,2,1,"right",2,1,2,"S3420",3,0,"*",4,-1,2236
2007-01-16,2,1,"right",2,1,3,"S7860",2,0,"*",1,3815,-1
2007-01-16,2,1,"right",2,1,4,"S3420",2,0,"*",1,-1,2358
2007-01-16,2,1,"right",2,1,5,"S3420",2,1,"*",4,-1,842
2007-01-16,2,1,"right",2,1,6,"S7860",2,0,"*",1,4246,-1
2007-01-16,2,1,"right",2,1,7,"S3420",3,0,"*",2,-1,2851
2007-01-16,2,1,"right",2,1,8,"S7860",3,0,"*",1,4122,-1
2007-01-16,2,1,"right",2,1,9,"S3420",3,0,"*",2,-1,2994
2007-01-16,2,1,"right",2,1,10,"S7860",3,0,"*",1,3487,-1
2007-01-16,2,1,"right",2,1,11,"S3420",3,0,"*",1,-1,3774
2007-01-16,2,1,"right",2,1,12,"S3420",2,0,"*",1,-1,3569
2007-01-16,2,1,"right",2,1,13,"S7860",2,0,"*",1,2606,-1
2007-01-16,2,1,"right",2,1,14,"S3420",3,0,"*",1,-1,3547
2007-01-16,2,1,"right",2,1,15,"S7860",3,0,"*",1,3999,-1
2007-01-16,2,1,"right",2,1,16,"S7860",2,0,"*",1,2544,-1
2007-01-16,2,1,"right",2,1,17,"S3420",3,0,"*",2,-1,2687
2007-01-16,2,1,"right",2,1,18,"S7860",2,0,"*",1,7527,-1
2007-01-16,2,1,"right",2,1,19,"S3420",2,0,"*",1,-1,2173
2007-01-16,2,1,"right",2,1,20,"S7860",3,0,"*",3,1845,-1
2007-01-16,2,1,"right",2,1,21,"S3420",2,0,"*",1,-1,2482
2007-01-16,2,1,"right",2,1,22,"S7860",2,0,"*",4,1128,-1
2007-01-16,2,1,"right",2,1,23,"S3420",3,0,"*",3,-1,2071
2007-01-16,2,1,"right",2,1,24,"S7860",3,0,"*",3,2257,-1
2007-01-16,2,1,"right",2,1,25,"S7860",3,0,"*",1,4759,-1
2007-01-16,2,1,"right",2,1,26,"S3420",3,0,"*",5,-1,2134
2007-01-16,2,1,"right",2,1,27,"S7860",3,0,"*",3,2626,-1
2007-01-16,2,1,"right",2,1,28,"S3420",2,0,"*",1,-1,2667
2007-01-16,2,1,"right",2,1,29,"S7860",3,0,"*",6,1827,-1
2007-01-16,2,1,"right",2,1,30,"S3420",3,0,"*",1,-1,4779
2007-01-16,2,1,"right",2,1,31,"S7860",3,0,"*",6,1662,-1
2007-01-16,2,1,"right",2,1,32,"S3420",3,0,"*",2,-1,2934
2007-01-16,2,1,"right",3,1,1,"S3420",2,1,"*",6,-1,903
2007-01-16,2,1,"right",3,1,2,"S7860",3,0,"*",6,1211,-1
2007-01-16,2,1,"right",3,1,3,"S7860",2,0,"*",3,1437,-1
2007-01-16,2,1,"right",3,1,4,"S3420",2,0,"*",3,-1,1641
2007-01-16,2,1,"right",3,1,5,"S7860",2,0,"*",3,1601,-1
2007-01-16,2,1,"right",3,1,6,"S3420",3,0,"*",2,-1,3016
2007-01-16,2,1,"right",3,1,7,"S7860",3,0,"*",2,2811,-1
2007-01-16,2,1,"right",3,1,8,"S3420",2,0,"*",1,-1,2852
2007-01-16,2,1,"right",3,1,9,"S3420",2,0,"*",1,-1,2031
2007-01-16,2,1,"right",3,1,10,"S7860",2,0,"*",2,1599,-1
2007-01-16,2,1,"right",3,1,11,"S7860",3,0,"*",6,1334,-1
2007-01-16,2,1,"right",3,1,12,"S3420",3,0,"*",6,-1,1744
2007-01-16,2,1,"right",3,1,13,"S7860",3,0,"*",3,1580,-1
2007-01-16,2,1,"right",3,1,14,"S7860",3,0,"*",3,1642,-1
2007-01-16,2,1,"right",3,1,15,"S3420",3,0,"*",1,-1,3200
2007-01-16,2,1,"right",3,1,16,"S3420",3,0,"+",1,1723,11597
2007-01-16,2,1,"right",3,1,17,"S7860",2,0,"*",1,2504,-1
2007-01-16,2,1,"right",3,1,18,"S3420",2,0,"*",2,-1,1601
2007-01-16,2,1,"right",3,1,19,"S3420",2,0,"*",1,-1,2441
2007-01-16,2,1,"right",3,1,20,"S7860",2,0,"*",2,1887,-1
2007-01-16,2,1,"right",3,2,1,"S7860",2,0,"*",3,1498,-1
2007-01-16,2,1,"right",3,2,2,"S7420",3,0,"R",1,-1,842
2007-01-16,2,1,"right",3,2,3,"S3420",3,0,"*",4,-1,2051
2007-01-16,2,1,"right",3,2,4,"S3860",2,0,"L",1,1456,-1
2007-01-16,2,1,"right",3,2,5,"S3420",3,0,"*",1,-1,6747
2007-01-16,2,1,"right",3,2,6,"S7820",3,0,"L",1,3652,-1
2007-01-16,2,1,"right",3,2,7,"S3420",3,1,"*",5,-1,965
2007-01-16,2,1,"right",3,2,8,"S3420",3,0,"R",1,-1,1949
2007-01-16,2,1,"right",3,2,9,"S7860",2,0,"*",1,3898,-1
2007-01-16,2,1,"right",3,2,10,"S3820",2,0,"L",1,3919,-1
2007-01-16,2,1,"right",3,2,11,"S3420",2,0,"*",1,-1,4678
2007-01-16,2,1,"right",3,2,12,"S3420",2,0,"R",1,-1,1909
2007-01-16,2,1,"right",3,2,13,"S3420",2,0,"*",1,-1,3733
2007-01-16,2,1,"right",3,2,14,"S7860",2,0,"*",1,3570,-1
2007-01-16,2,1,"right",3,2,15,"S7420",2,0,"R",1,-1,2565
2007-01-16,2,1,"right",3,2,16,"S3420",3,0,"*",1,-1,3733
2007-01-16,2,1,"right",3,2,17,"S7860",3,0,"*",4,2215,-1
2007-01-16,2,1,"right",3,2,18,"S7860",2,0,"L",1,1620,-1
2007-01-16,2,1,"right",3,2,19,"S7860",3,0,"*",6,1764,-1
2007-01-16,2,1,"right",3,2,20,"S7860",2,1,"*",4,1005,-1
2007-01-16,2,1,"right",3,2,21,"S3420",3,0,"*",1,-1,5722
2007-01-16,2,1,"right",3,2,22,"S7860",2,0,"L",1,2298,-1
2007-01-16,2,1,"right",3,2,23,"S3420",2,0,"*",1,-1,2502
2007-01-16,2,1,"right",3,2,24,"S7860",3,0,"*",6,1600,-1
2007-01-16,2,1,"right",3,2,25,"S7860",3,0,"*",8,1272,-1
2007-01-16,2,1,"right",3,2,26,"S3420",2,0,"*",4,-1,1312
2007-01-16,2,1,"right",3,2,27,"S3860",2,0,"L",1,5764,-1
2007-01-16,2,1,"right",3,2,28,"S3420",2,0,"*",1,-1,2809
2007-01-16,2,1,"right",3,2,29,"S3460",2,0,"R",1,-1,2216
2007-01-16,2,1,"right",3,2,30,"S3420",3,0,"*",6,-1,1456
2007-01-16,2,1,"right",3,2,31,"S7460",2,0,"R",1,-1,5867
2007-01-16,2,1,"right",3,2,32,"S7860",3,0,"*",3,1907,-1
2007-01-16,2,1,"right",3,2,33,"S7820",2,0,"L",1,5087,-1
2007-01-16,2,1,"right",3,2,34,"S3420",3,0,"*",4,-1,2276
2007-01-16,2,1,"right",3,2,35,"S7460",2,0,"L",1,2010,-1
2007-01-16,2,1,"right",3,2,36,"S7860",3,0,"*",5,2276,-1
2007-01-16,2,1,"right",3,2,37,"S3460",2,0,"R",1,-1,2133
2007-01-16,2,1,"right",3,2,38,"S7860",3,0,"*",7,1640,-1
2007-01-16,2,1,"right",3,2,39,"S7860",3,0,"*",2,2851,-1
2007-01-16,2,1,"right",3,2,40,"S3820",3,0,"R",1,-1,2138
2007-01-17,3,2,"left",1,1,1,"S1000",2,0,"*",1,38541,-1
2007-01-17,3,2,"left",1,1,2,"S2000",3,0,"+",1,3022,198913
2007-01-17,3,2,"left",1,1,3,"S0100",2,0,"+",1,4211,622
2007-01-17,3,2,"left",1,1,4,"S0002",3,1,"*",2,1423,787
2007-01-17,3,2,"left",1,1,5,"S0010",2,0,"+",1,3372,562
2007-01-17,3,2,"left",1,1,6,"S0200",3,0,"*",3,2591,1360
2007-01-17,3,2,"left",1,1,7,"S0001",3,0,"+",1,6878,726
2007-01-17,3,2,"left",1,1,8,"S0020",2,0,"+",1,1608,2510
2007-01-17,3,2,"left",1,1,9,"S0001",3,0,"+",1,3720,1361
2007-01-17,3,2,"left",1,1,10,"S0002",3,0,"+",1,622,6200
2007-01-17,3,2,"left",1,1,11,"S0100",2,1,"*",2,704,-1
2007-01-17,3,2,"left",1,1,12,"S0020",2,0,"*",2,-1,1544
2007-01-17,3,2,"left",1,1,13,"S2000",2,0,"+",1,746,5893
2007-01-17,3,2,"left",1,1,14,"S1000",2,0,"+",1,2755,601
2007-01-17,3,2,"left",1,1,15,"S0200",2,0,"+",1,683,3472
2007-01-17,3,2,"left",1,1,16,"S0010",2,0,"+",1,2488,643
2007-01-17,3,2,"left",1,1,17,"S2000",2,0,"+",1,663,2078
2007-01-17,3,2,"left",1,1,18,"S0020",2,1,"*",3,1833,828
2007-01-17,3,2,"left",1,1,19,"S1000",2,1,"*",4,767,2674
2007-01-17,3,2,"left",1,1,20,"S0010",3,1,"*",3,644,2265
2007-01-17,3,2,"left",1,1,21,"S0200",3,1,"*",5,3803,746
2007-01-17,3,2,"left",1,1,22,"S0002",3,1,"*",4,-1,972
2007-01-17,3,2,"left",1,1,23,"S0100",2,0,"*",3,1074,-1
2007-01-17,3,2,"left",1,1,24,"S0001",2,0,"+",1,7165,2325
2007-01-17,3,2,"left",1,1,25,"S0200",3,0,"*",1,-1,7308
2007-01-17,3,2,"left",1,1,26,"S1000",3,0,"*",3,1136,-1
2007-01-17,3,2,"left",1,1,27,"S0100",2,0,"*",1,4191,-1
2007-01-17,3,2,"left",1,1,28,"S2000",3,0,"+",1,5668,7616
2007-01-17,3,2,"left",1,1,29,"S0010",3,0,"+",1,8580,2571
2007-01-17,3,2,"left",1,1,30,"S0020",3,0,"+",1,6880,10571
2007-01-17,3,2,"left",1,1,31,"S0001",2,0,"+",1,5360,2325
2007-01-17,3,2,"left",1,1,32,"S0002",2,0,"+",1,7452,8662
2007-01-17,3,2,"left",1,1,33,"S2000",3,0,"+",1,6326,9239
2007-01-17,3,2,"left",1,1,34,"S0001",3,0,"+",1,6099,3721
2007-01-17,3,2,"left",1,1,35,"S0002",3,0,"+",1,7739,9257
2007-01-17,3,2,"left",1,1,36,"S0010",3,0,"*",1,5176,-1
2007-01-17,3,2,"left",1,1,37,"S1000",3,0,"*",1,4091,-1
2007-01-17,3,2,"left",1,1,38,"S0020",3,0,"+",1,4191,6878
2007-01-17,3,2,"left",1,1,39,"S0100",3,0,"+",1,5750,5012
2007-01-17,3,2,"left",1,1,40,"S0200",2,0,"+",1,1279,2100
2007-01-17,3,2,"left",1,1,41,"S2000",2,0,"+",1,1136,5524
2007-01-17,3,2,"left",1,1,42,"S0010",3,0,"+",1,7393,1876
2007-01-17,3,2,"left",1,1,43,"S0200",2,0,"*",2,-1,1299
2007-01-17,3,2,"left",1,1,44,"S0001",2,0,"+",1,6019,1261
2007-01-17,3,2,"left",1,1,45,"S0002",3,0,"+",1,811,5486
2007-01-17,3,2,"left",1,1,46,"S0100",2,0,"+",1,4807,972
2007-01-17,3,2,"left",1,1,47,"S1000",2,0,"*",3,1098,3169
2007-01-17,3,2,"left",1,1,48,"S0020",2,0,"+",1,705,5750
2007-01-17,3,2,"left",1,1,49,"S1000",3,0,"+",2,2387,828
2007-01-17,3,2,"left",1,1,50,"S0200",3,0,"+",1,890,6222
2007-01-17,3,2,"left",1,1,51,"S0001",3,0,"+",1,7903,1033
2007-01-17,3,2,"left",1,1,52,"S2000",3,0,"+",1,8438,9976
2007-01-17,3,2,"left",1,1,53,"S0002",2,0,"+",1,1446,13115
2007-01-17,3,2,"left",1,1,54,"S0010",2,0,"*",1,3436,-1
2007-01-17,3,2,"left",1,1,55,"S0100",3,0,"*",1,13279,-1
2007-01-17,3,2,"left",1,1,56,"S0020",3,0,"+",1,6491,7393
2007-01-17,3,2,"left",1,1,57,"S0100",2,0,"*",1,7107,-1
2007-01-17,3,2,"left",1,1,58,"S0020",3,0,"*",1,-1,9178
2007-01-17,3,2,"left",1,1,59,"S0200",3,0,"+",1,4851,6389
2007-01-17,3,2,"left",1,1,60,"S0010",3,0,"*",1,5856,-1
2007-01-17,3,2,"left",1,1,61,"S0002",2,0,"+",1,4606,5672
2007-01-17,3,2,"left",1,1,62,"S1000",3,0,"+",1,4070,3044
2007-01-17,3,2,"left",1,1,63,"S2000",2,0,"+",1,3457,6636
2007-01-17,3,2,"left",1,1,64,"S0001",3,0,"*",1,13854,-1
2007-01-17,3,2,"left",1,2,1,"S0001",3,0,"+",1,4503,3683
2007-01-17,3,2,"left",1,2,2,"S1000",2,0,"+",1,4686,851
2007-01-17,3,2,"left",1,2,3,"S0200",2,0,"+",1,2718,5588
2007-01-17,3,2,"left",1,2,4,"S0100",2,1,"*",5,913,3333
2007-01-17,3,2,"left",1,2,5,"S2000",3,0,"+",1,911,7884
2007-01-17,3,2,"left",1,2,6,"S0010",2,0,"*",2,1795,5568
2007-01-17,3,2,"left",1,2,7,"S0002",3,0,"*",3,-1,2574
2007-01-17,3,2,"left",1,2,8,"S0020",2,0,"+",1,3046,4174
2007-01-17,3,2,"left",1,2,9,"S0100",3,0,"+",1,6327,4543
2007-01-17,3,2,"left",1,2,10,"S0001",2,0,"+",1,11577,10736
2007-01-17,3,2,"left",1,2,11,"S0002",2,0,"+",1,44428,45125
2007-01-17,3,2,"left",1,2,12,"S0200",2,0,"+",1,3785,4544
2007-01-17,3,2,"left",1,2,13,"S1000",2,1,"*",5,687,-1
2007-01-17,3,2,"left",1,2,14,"S2000",3,0,"+",1,976,7580
2007-01-17,3,2,"left",1,2,15,"S0010",3,0,"+",1,8522,5056
2007-01-17,3,2,"left",1,2,16,"S0020",3,0,"+",1,689,4667
2007-01-17,3,2,"left",1,2,17,"S0020",2,0,"*",1,-1,2533
2007-01-17,3,2,"left",1,2,18,"S0010",2,0,"*",3,1386,-1
2007-01-17,3,2,"left",1,2,19,"S0002",2,2,"*",6,-1,770
2007-01-17,3,2,"left",1,2,20,"S1000",2,0,"*",6,1119,-1
2007-01-17,3,2,"left",1,2,21,"S0001",2,1,"*",6,750,-1
2007-01-17,3,2,"left",1,2,22,"S2000",2,0,"*",4,-1,1468
2007-01-17,3,2,"left",1,2,23,"S0200",3,2,"*",11,-1,730
2007-01-17,3,2,"left",1,2,24,"S0100",3,2,"*",12,729,-1
2007-01-17,3,2,"left",1,2,25,"S1000",2,0,"*",1,3518,-1
2007-01-17,3,2,"left",1,2,26,"S0020",3,0,"*",1,-1,3417
2007-01-17,3,2,"left",1,2,27,"S0001",3,0,"*",1,4032,-1
2007-01-17,3,2,"left",1,2,28,"S0200",2,0,"*",2,-1,1940
2007-01-17,3,2,"left",1,2,29,"S0100",2,0,"*",1,3879,-1
2007-01-17,3,2,"left",1,2,30,"S0010",3,0,"*",1,4360,-1
2007-01-17,3,2,"left",1,2,31,"S0002",3,0,"*",7,-1,1040
2007-01-17,3,2,"left",1,2,32,"S2000",2,1,"*",6,-1,1000
2007-01-17,3,2,"left",1,2,33,"S0001",2,0,"*",2,1694,-1
2007-01-17,3,2,"left",1,2,34,"S1000",3,0,"*",3,2043,-1
2007-01-17,3,2,"left",1,2,35,"S0020",3,0,"+",1,689,4688
2007-01-17,3,2,"left",1,2,36,"S0100",3,0,"*",9,1263,-1
2007-01-17,3,2,"left",1,2,37,"S0002",2,0,"*",1,-1,4238
2007-01-17,3,2,"left",1,2,38,"S0200",3,0,"*",1,-1,4544
2007-01-17,3,2,"left",1,2,39,"S0010",2,0,"*",1,7252,-1
2007-01-17,3,2,"left",1,2,40,"S2000",2,0,"*",1,-1,6042
2007-01-17,3,2,"left",1,2,41,"S0200",2,0,"*",1,-1,5774
2007-01-17,3,2,"left",1,2,42,"S0001",2,0,"*",1,6595,-1
2007-01-17,3,2,"left",1,2,43,"S0020",2,0,"*",1,-1,4996
2007-01-17,3,2,"left",1,2,44,"S0010",2,0,"*",1,6040,-1
2007-01-17,3,2,"left",1,2,45,"S0002",2,0,"*",1,-1,5756
2007-01-17,3,2,"left",1,2,46,"S0100",3,0,"*",1,5221,-1
2007-01-17,3,2,"left",1,2,47,"S2000",2,0,"*",1,-1,2432
2007-01-17,3,2,"left",1,2,48,"S1000",2,0,"*",1,2883,-1
2007-01-17,3,2,"left",1,2,49,"S0100",3,1,"*",6,547,-1
2007-01-17,3,2,"left",1,2,50,"S0020",2,0,"*",2,-1,1182
2007-01-17,3,2,"left",1,2,51,"S0002",2,0,"*",2,-1,1756
2007-01-17,3,2,"left",1,2,52,"S1000",2,0,"*",2,1510,-1
2007-01-17,3,2,"left",1,2,53,"S0010",3,0,"*",1,4215,-1
2007-01-17,3,2,"left",1,2,54,"S0200",2,0,"*",1,-1,2434
2007-01-17,3,2,"left",1,2,55,"S0001",2,0,"*",1,2104,-1
2007-01-17,3,2,"left",1,2,56,"S2000",2,0,"*",1,-1,3910
2007-01-17,3,2,"left",1,2,57,"S0020",2,0,"*",1,-1,4239
2007-01-17,3,2,"left",1,2,58,"S0001",2,0,"*",1,4177,-1
2007-01-17,3,2,"left",1,2,59,"S2000",2,1,"*",3,-1,711
2007-01-17,3,2,"left",1,2,60,"S1000",3,0,"*",3,1347,-1
2007-01-17,3,2,"left",1,2,61,"S0100",2,0,"*",1,3377,-1
2007-01-17,3,2,"left",1,2,62,"S0200",2,0,"*",1,-1,2250
2007-01-17,3,2,"left",1,2,63,"S0010",3,0,"*",3,1326,-1
2007-01-17,3,2,"left",1,2,64,"S0002",3,0,"*",3,-1,1408
2007-01-17,3,2,"left",2,1,1,"S2340",2,1,"*",3,978,-1
2007-01-17,3,2,"left",2,1,2,"S6780",3,1,"*",4,-1,815
2007-01-17,3,2,"left",2,1,3,"S2340",3,0,"*",1,3604,-1
2007-01-17,3,2,"left",2,1,4,"S2340",3,1,"*",6,835,-1
2007-01-17,3,2,"left",2,1,5,"S6780",2,1,"*",3,-1,958
2007-01-17,3,2,"left",2,1,6,"S2340",2,1,"*",7,855,-1
2007-01-17,3,2,"left",2,1,7,"S2340",2,1,"*",5,917,-1
2007-01-17,3,2,"left",2,1,8,"S6780",2,0,"*",1,-1,3894
2007-01-17,3,2,"left",2,1,9,"S6780",2,1,"*",7,-1,879
2007-01-17,3,2,"left",2,1,10,"S2340",2,0,"*",2,1635,-1
2007-01-17,3,2,"left",2,1,11,"S6780",2,1,"*",5,-1,876
2007-01-17,3,2,"left",2,1,12,"S2340",2,0,"*",2,1327,-1
2007-01-17,3,2,"left",2,1,13,"S6780",3,0,"*",1,-1,4179
2007-01-17,3,2,"left",2,1,14,"S2340",3,0,"*",4,1040,-1
2007-01-17,3,2,"left",2,1,15,"S6780",2,2,"*",8,-1,774
2007-01-17,3,2,"left",2,1,16,"S6780",3,1,"*",10,-1,1019
2007-01-17,3,2,"left",2,1,17,"S2340",3,1,"*",6,1020,-1
2007-01-17,3,2,"left",2,1,18,"S6780",3,1,"*",9,-1,835
2007-01-17,3,2,"left",2,1,19,"S6780",2,0,"*",4,-1,1163
2007-01-17,3,2,"left",2,1,20,"S2340",2,2,"*",4,692,-1
2007-01-17,3,2,"left",2,1,21,"S2340",3,1,"*",6,938,-1
2007-01-17,3,2,"left",2,1,22,"S6780",2,0,"*",1,-1,2168
2007-01-17,3,2,"left",2,1,23,"S6780",3,2,"*",9,-1,610
2007-01-17,3,2,"left",2,1,24,"S2340",3,0,"*",6,1430,-1
2007-01-17,3,2,"left",2,1,25,"S6780",3,1,"*",7,-1,979
2007-01-17,3,2,"left",2,1,26,"S6780",3,3,"*",11,-1,651
2007-01-17,3,2,"left",2,1,27,"S2340",3,2,"*",12,815,-1
2007-01-17,3,2,"left",2,1,28,"S2340",3,0,"*",1,8566,-1
2007-01-17,3,2,"left",2,1,29,"S6780",2,0,"*",1,-1,4426
2007-01-17,3,2,"left",2,1,30,"S6780",2,0,"*",1,-1,4691
2007-01-17,3,2,"left",2,1,31,"S2340",3,1,"*",2,672,-1
2007-01-17,3,2,"left",2,1,32,"S2340",2,0,"*",1,4384,-1
2007-01-17,3,2,"left",3,1,1,"S2340",2,0,"*",1,8588,-1
2007-01-17,3,2,"left",3,1,2,"S6780",3,0,"*",1,-1,5184
2007-01-17,3,2,"left",3,1,3,"S6780",3,0,"*",1,-1,3338
2007-01-17,3,2,"left",3,1,4,"S2340",3,0,"*",2,2354,-1
2007-01-17,3,2,"left",3,1,5,"S2340",3,0,"*",3,1409,-1
2007-01-17,3,2,"left",3,1,6,"S6780",3,0,"*",1,-1,7008
2007-01-17,3,2,"left",3,1,7,"S2340",2,0,"*",1,7953,-1
2007-01-17,3,2,"left",3,1,8,"S6780",2,1,"*",5,-1,1020
2007-01-17,3,2,"left",3,1,9,"S6780",2,0,"*",1,-1,4507
2007-01-17,3,2,"left",3,1,10,"S2340",3,0,"*",1,4101,-1
2007-01-17,3,2,"left",3,1,11,"S6780",3,0,"*",5,-1,1158
2007-01-17,3,2,"left",3,1,12,"S2340",3,0,"*",4,1518,-1
2007-01-17,3,2,"left",3,1,13,"S2340",2,0,"*",3,1117,-1
2007-01-17,3,2,"left",3,1,14,"S6780",2,1,"*",6,-1,838
2007-01-17,3,2,"left",3,1,15,"S2340",2,0,"*",3,1255,-1
2007-01-17,3,2,"left",3,1,16,"S6780",2,0,"*",4,-1,1070
2007-01-17,3,2,"left",3,1,17,"S6780",2,0,"*",1,-1,9161
2007-01-17,3,2,"left",3,1,18,"S2340",2,0,"*",1,5389,-1
2007-01-17,3,2,"left",3,1,19,"S6780",2,0,"*",1,-1,3358
2007-01-17,3,2,"left",3,1,20,"S2340",3,0,"*",1,6290,-1
2007-01-17,3,2,"left",3,2,1,"S2340",2,0,"*",2,1779,-1
2007-01-17,3,2,"left",3,2,2,"S2740",2,0,"L",1,3050,-1
2007-01-17,3,2,"left",3,2,3,"S2340",2,0,"*",1,2127,-1
2007-01-17,3,2,"left",3,2,4,"S6780",2,0,"R",1,-1,1533
2007-01-17,3,2,"left",3,2,5,"S2340",2,0,"*",2,1635,-1
2007-01-17,3,2,"left",3,2,6,"S6740",3,0,"R",1,-1,1511
2007-01-17,3,2,"left",3,2,7,"S6780",2,0,"*",1,-1,2722
2007-01-17,3,2,"left",3,2,8,"S6340",2,0,"L",1,774,-1
2007-01-17,3,2,"left",3,2,9,"S2340",3,0,"*",4,1369,-1
2007-01-17,3,2,"left",3,2,10,"S2340",2,0,"*",1,3748,-1
2007-01-17,3,2,"left",3,2,11,"S2780",2,0,"R",1,-1,1865
2007-01-17,3,2,"left",3,2,12,"S2340",2,1,"*",2,1019,-1
2007-01-17,3,2,"left",3,2,13,"S6780",2,0,"*",2,-1,1413
2007-01-17,3,2,"left",3,2,14,"S6380",3,0,"R",1,-1,2131
2007-01-17,3,2,"left",3,2,15,"S2340",2,0,"*",2,2005,-1
2007-01-17,3,2,"left",3,2,16,"S2340",3,0,"L",1,2537,-1
2007-01-17,3,2,"left",3,2,17,"S6780",3,0,"*",2,-1,1738
2007-01-17,3,2,"left",3,2,18,"S2740",3,0,"L",1,1347,-1
2007-01-17,3,2,"left",3,2,19,"S6780",3,1,"*",8,-1,692
2007-01-17,3,2,"left",3,2,20,"S6780",2,0,"*",2,-1,1430
2007-01-17,3,2,"left",3,2,21,"S2380",3,0,"L",1,3174,-1
2007-01-17,3,2,"left",3,2,22,"S6780",3,0,"*",1,-1,7459
2007-01-17,3,2,"left",3,2,23,"S6780",2,2,"*",6,-1,630
2007-01-17,3,2,"left",3,2,24,"S6780",2,0,"R",1,-1,795
2007-01-17,3,2,"left",3,2,25,"S6780",2,0,"*",3,-1,1122
2007-01-17,3,2,"left",3,2,26,"S2780",2,0,"R",1,-1,877
2007-01-17,3,2,"left",3,2,27,"S2340",2,0,"*",1,2149,-1
2007-01-17,3,2,"left",3,2,28,"S2340",3,0,"L",1,8671,-1
2007-01-17,3,2,"left",3,2,29,"S6780",2,0,"*",1,-1,2785
2007-01-17,3,2,"left",3,2,30,"S6740",3,0,"R",1,-1,3933
2007-01-17,3,2,"left",3,2,31,"S2340",3,0,"*",1,3706,-1
2007-01-17,3,2,"left",3,2,32,"S6780",3,1,"*",3,-1,774
2007-01-17,3,2,"left",3,2,33,"S6340",2,0,"L",1,2662,-1
2007-01-17,3,2,"left",3,2,34,"S6780",3,0,"*",1,-1,3214
2007-01-17,3,2,"left",3,2,35,"S2380",3,0,"L",1,3214,-1
2007-01-17,3,2,"left",3,2,36,"S2340",2,0,"*",1,3030,-1
2007-01-17,3,2,"left",3,2,37,"S2340",2,0,"*",1,2866,-1
2007-01-17,3,2,"left",3,2,38,"S6780",3,0,"*",3,-1,2476
2007-01-17,3,2,"left",3,2,39,"S6380",2,0,"R",1,-1,3378
2007-01-17,3,2,"left",3,2,40,"S2340",2,0,"*",1,2147,-1
2007-01-17,4,2,"right",1,1,1,"S0020",3,0,"*",1,53070,-1
2007-01-17,4,2,"right",1,1,2,"S0010",3,0,"+",1,4061,8285
2007-01-17,4,2,"right",1,1,3,"S0100",2,0,"*",1,-1,55573
2007-01-17,4,2,"right",1,1,4,"S0200",2,0,"+",1,8179,1207
2007-01-17,4,2,"right",1,1,5,"S0002",2,0,"*",2,1105,2397
2007-01-17,4,2,"right",1,1,6,"S1000",2,0,"*",1,-1,3033
2007-01-17,4,2,"right",1,1,7,"S2000",2,0,"+",1,2642,1760
2007-01-17,4,2,"right",1,1,8,"S0001",3,0,"*",2,2273,1555
2007-01-17,4,2,"right",1,1,9,"S0001",2,0,"+",1,1925,2663
2007-01-17,4,2,"right",1,1,10,"S0002",3,0,"+",2,1761,1084
2007-01-17,4,2,"right",1,1,11,"S0010",3,0,"+",1,5944,6703
2007-01-17,4,2,"right",1,1,12,"S2000",2,1,"*",2,899,1596
2007-01-17,4,2,"right",1,1,13,"S0020",3,0,"+",2,1986,1432
2007-01-17,4,2,"right",1,1,14,"S0100",2,1,"*",2,1453,777
2007-01-17,4,2,"right",1,1,15,"S1000",3,0,"+",2,1536,2151
2007-01-17,4,2,"right",1,1,16,"S0200",2,0,"+",1,3484,2356
2007-01-17,4,2,"right",1,1,17,"S0010",2,0,"+",1,2150,3380
2007-01-17,4,2,"right",1,1,18,"S0020",2,0,"*",3,1473,2416
2007-01-17,4,2,"right",1,1,19,"S0001",3,0,"+",1,9861,11153
2007-01-17,4,2,"right",1,1,20,"S0200",3,0,"+",1,4877,3359
2007-01-17,4,2,"right",1,1,21,"S1000",2,0,"+",1,4488,5677
2007-01-17,4,2,"right",1,1,22,"S2000",3,0,"*",1,3503,-1
2007-01-17,4,2,"right",1,1,23,"S0002",3,0,"+",1,3565,2765
2007-01-17,4,2,"right",1,1,24,"S0100",2,0,"*",3,2519,1740
2007-01-17,4,2,"right",1,1,25,"S0100",3,0,"*",1,-1,4488
2007-01-17,4,2,"right",1,1,26,"S0002",3,1,"*",5,796,2191
2007-01-17,4,2,"right",1,1,27,"S0001",3,0,"+",1,6374,6908
2007-01-17,4,2,"right",1,1,28,"S0020",3,0,"*",1,5144,-1
2007-01-17,4,2,"right",1,1,29,"S0200",3,0,"+",1,5000,3154
2007-01-17,4,2,"right",1,1,30,"S1000",2,0,"+",1,2724,3277
2007-01-17,4,2,"right",1,1,31,"S2000",3,0,"*",1,3380,-1
2007-01-17,4,2,"right",1,1,32,"S0010",3,0,"+",1,19479,19807
2007-01-17,4,2,"right",1,1,33,"S0002",3,0,"*",1,4344,-1
2007-01-17,4,2,"right",1,1,34,"S0010",2,0,"*",1,-1,5841
2007-01-17,4,2,"right",1,1,35,"S2000",3,0,"*",1,4200,-1
2007-01-17,4,2,"right",1,1,36,"S0020",3,0,"*",1,5389,-1
2007-01-17,4,2,"right",1,1,37,"S0001",2,0,"+",1,4611,6026
2007-01-17,4,2,"right",1,1,38,"S0100",3,0,"*",1,-1,5676
2007-01-17,4,2,"right",1,1,39,"S0200",3,0,"+",1,5986,4181
2007-01-17,4,2,"right",1,1,40,"S1000",2,0,"+",3,837,1020
2007-01-17,4,2,"right",1,1,41,"S0001",3,0,"+",1,5780,9429
2007-01-17,4,2,"right",1,1,42,"S0020",2,0,"*",1,6374,-1
2007-01-17,4,2,"right",1,1,43,"S0100",3,0,"*",1,-1,4283
2007-01-17,4,2,"right",1,1,44,"S1000",3,0,"+",1,3543,5554
2007-01-17,4,2,"right",1,1,45,"S2000",2,0,"+",1,5656,5267
2007-01-17,4,2,"right",1,1,46,"S0200",3,0,"*",1,4241,-1
2007-01-17,4,2,"right",1,1,47,"S0010",3,0,"*",1,-1,4610
2007-01-17,4,2,"right",1,1,48,"S0002",2,0,"*",1,5246,-1
2007-01-17,4,2,"right",1,1,49,"S0020",3,0,"+",1,4200,3810
2007-01-17,4,2,"right",1,1,50,"S0001",2,0,"+",1,4631,5082
2007-01-17,4,2,"right",1,1,51,"S0200",2,0,"+",1,6231,5677
2007-01-17,4,2,"right",1,1,52,"S1000",3,0,"+",1,5758,6825
2007-01-17,4,2,"right",1,1,53,"S0010",3,0,"+",1,21099,21878
2007-01-17,4,2,"right",1,1,54,"S2000",3,0,"*",1,5451,-1
2007-01-17,4,2,"right",1,1,55,"S0100",3,0,"*",1,-1,4344
2007-01-17,4,2,"right",1,1,56,"S0002",2,0,"+",1,4159,3831
2007-01-17,4,2,"right",1,1,57,"S0010",2,0,"+",1,5021,5451
2007-01-17,4,2,"right",1,1,58,"S0002",3,0,"*",1,7378,-1
2007-01-17,4,2,"right",1,1,59,"S0200",3,0,"+",1,5943,5163
2007-01-17,4,2,"right",1,1,60,"S0001",2,0,"*",1,-1,6065
2007-01-17,4,2,"right",1,1,61,"S0100",3,0,"*",1,-1,4876
2007-01-17,4,2,"right",1,1,62,"S2000",2,0,"*",1,4794,-1
2007-01-17,4,2,"right",1,1,63,"S1000",2,0,"+",1,6518,6908
2007-01-17,4,2,"right",1,1,64,"S0020",2,0,"*",1,8096,-1
2007-01-17,4,2,"right",1,2,1,"S0001",2,0,"+",1,16729,17140
2007-01-17,4,2,"right",1,2,2,"S2000",2,0,"+",1,8570,7975
2007-01-17,4,2,"right",1,2,3,"S0100",3,0,"+",1,4753,5532
2007-01-17,4,2,"right",1,2,4,"S0002",2,0,"*",1,6496,-1
2007-01-17,4,2,"right",1,2,5,"S0010",3,0,"*",1,-1,5040
2007-01-17,4,2,"right",1,2,6,"S0200",2,0,"+",1,5203,4506
2007-01-17,4,2,"right",1,2,7,"S1000",2,0,"*",1,-1,4916
2007-01-17,4,2,"right",1,2,8,"S0020",3,0,"*",1,5285,-1
2007-01-17,4,2,"right",1,2,9,"S0020",3,0,"*",1,3890,-1
2007-01-17,4,2,"right",1,2,10,"S0001",3,0,"*",1,-1,4055
2007-01-17,4,2,"right",1,2,11,"S0002",3,0,"*",1,3665,-1
2007-01-17,4,2,"right",1,2,12,"S0100",2,0,"+",1,5654,6228
2007-01-17,4,2,"right",1,2,13,"S0010",3,0,"+",1,7295,9264
2007-01-17,4,2,"right",1,2,14,"S2000",2,0,"+",1,5203,4895
2007-01-17,4,2,"right",1,2,15,"S0200",3,0,"*",1,3726,-1
2007-01-17,4,2,"right",1,2,16,"S1000",3,0,"*",1,-1,4095
2007-01-17,4,2,"right",1,2,17,"S0020",2,0,"*",1,3973,-1
2007-01-17,4,2,"right",1,2,18,"S0200",2,0,"*",1,4198,-1
2007-01-17,4,2,"right",1,2,19,"S0010",2,0,"*",1,-1,5121
2007-01-17,4,2,"right",1,2,20,"S0002",2,0,"*",1,3706,-1
2007-01-17,4,2,"right",1,2,21,"S1000",2,0,"+",1,5675,6290
2007-01-17,4,2,"right",1,2,22,"S0001",3,0,"*",1,-1,5696
2007-01-17,4,2,"right",1,2,23,"S2000",3,0,"+",1,7090,6557
2007-01-17,4,2,"right",1,2,24,"S0100",3,0,"*",1,-1,5347
2007-01-17,4,2,"right",1,2,25,"S0001",3,0,"*",1,-1,5224
2007-01-17,4,2,"right",1,2,26,"S0020",3,0,"+",1,6413,5716
2007-01-17,4,2,"right",1,2,27,"S0200",2,0,"+",1,4691,3624
2007-01-17,4,2,"right",1,2,28,"S1000",3,0,"+",1,4793,5346
2007-01-17,4,2,"right",1,2,29,"S0002",3,0,"+",1,10125,8812
2007-01-17,4,2,"right",1,2,30,"S0010",3,0,"+",1,7705,8176
2007-01-17,4,2,"right",1,2,31,"S2000",3,0,"*",1,5511,-1
2007-01-17,4,2,"right",1,2,32,"S0100",2,0,"*",1,-1,4321
2007-01-17,4,2,"right",1,2,33,"S0020",3,0,"*",1,6290,-1
2007-01-17,4,2,"right",1,2,34,"S2000",2,0,"+",1,5921,5408
2007-01-17,4,2,"right",1,2,35,"S0001",3,0,"*",1,-1,8648
2007-01-17,4,2,"right",1,2,36,"S0200",3,0,"*",1,4568,-1
2007-01-17,4,2,"right",1,2,37,"S1000",3,0,"*",1,-1,6187
2007-01-17,4,2,"right",1,2,38,"S0002",2,0,"*",1,5921,-1
2007-01-17,4,2,"right",1,2,39,"S0010",3,0,"+",1,5449,5942
2007-01-17,4,2,"right",1,2,40,"S0100",3,0,"*",1,-1,4793
2007-01-17,4,2,"right",1,2,41,"S2000",3,0,"*",1,4382,-1
2007-01-17,4,2,"right",1,2,42,"S0002",3,0,"*",1,5183,-1
2007-01-17,4,2,"right",1,2,43,"S0010",3,0,"*",1,-1,4956
2007-01-17,4,2,"right",1,2,44,"S1000",2,0,"+",1,5941,11253
2007-01-17,4,2,"right",1,2,45,"S0200",2,0,"*",1,7418,-1
2007-01-17,4,2,"right",1,2,46,"S0020",3,0,"+",1,38816,38365
2007-01-17,4,2,"right",1,2,47,"S0001",2,0,"*",1,-1,12689
2007-01-17,4,2,"right",1,2,48,"S0100",2,0,"*",1,-1,4322
2007-01-17,4,2,"right",1,2,49,"S0200",3,0,"*",1,7663,-1
2007-01-17,4,2,"right",1,2,50,"S1000",2,0,"*",1,-1,4177
2007-01-17,4,2,"right",1,2,51,"S2000",2,0,"+",1,4300,3890
2007-01-17,4,2,"right",1,2,52,"S0010",3,0,"*",1,-1,4546
2007-01-17,4,2,"right",1,2,53,"S0002",2,0,"*",1,3397,-1
2007-01-17,4,2,"right",1,2,54,"S0020",2,0,"*",1,6433,-1
2007-01-17,4,2,"right",1,2,55,"S0001",2,0,"*",1,-1,7254
2007-01-17,4,2,"right",1,2,56,"S0100",3,0,"*",1,-1,14370
2007-01-17,4,2,"right",1,2,57,"S2000",3,0,"*",1,5059,-1
2007-01-17,4,2,"right",1,2,58,"S0002",3,0,"*",1,5695,-1
2007-01-17,4,2,"right",1,2,59,"S0001",3,0,"*",1,-1,5245
2007-01-17,4,2,"right",1,2,60,"S0200",3,0,"*",1,5244,-1
2007-01-17,4,2,"right",1,2,61,"S1000",3,0,"*",1,-1,5204
2007-01-17,4,2,"right",1,2,62,"S0020",2,0,"*",1,7459,-1
2007-01-17,4,2,"right",1,2,63,"S0100",3,0,"*",1,-1,4650
2007-01-17,4,2,"right",1,2,64,"S0010",2,0,"*",1,-1,4628
2007-01-17,4,2,"right",1,3,1,"S0100",2,0,"*",1,-1,4875
2007-01-17,4,2,"right",1,3,2,"S0010",3,0,"*",1,-1,5594
2007-01-17,4,2,"right",1,3,3,"S0002",3,0,"*",1,4773,-1
2007-01-17,4,2,"right",1,3,4,"S0020",2,0,"*",1,6271,-1
2007-01-17,4,2,"right",1,3,5,"S0001",3,0,"*",1,-1,6393
2007-01-17,4,2,"right",1,3,6,"S2000",3,0,"*",1,6722,-1
2007-01-17,4,2,"right",1,3,7,"S0200",3,0,"*",1,3276,-1
2007-01-17,4,2,"right",1,3,8,"S1000",2,0,"*",1,-1,3933
2007-01-17,4,2,"right",1,3,9,"S2000",3,0,"*",1,4055,-1
2007-01-17,4,2,"right",1,3,10,"S0010",3,0,"*",1,-1,3359
2007-01-17,4,2,"right",1,3,11,"S1000",3,0,"*",1,-1,6045
2007-01-17,4,2,"right",1,3,12,"S0020",3,0,"*",1,6106,-1
2007-01-17,4,2,"right",1,3,13,"S0100",2,0,"*",1,-1,5551
2007-01-17,4,2,"right",1,3,14,"S0002",3,0,"*",1,5102,-1
2007-01-17,4,2,"right",1,3,15,"S0200",3,0,"*",1,5101,-1
2007-01-17,4,2,"right",1,3,16,"S0001",2,0,"*",1,-1,7789
2007-01-17,4,2,"right",1,3,17,"S0200",2,0,"*",1,4055,-1
2007-01-17,4,2,"right",1,3,18,"S0001",3,0,"*",1,-1,4424
2007-01-17,4,2,"right",1,3,19,"S2000",3,0,"*",4,1494,-1
2007-01-17,4,2,"right",1,3,20,"S0010",2,0,"*",4,-1,1328
2007-01-17,4,2,"right",1,3,21,"S0020",3,0,"*",3,1410,-1
2007-01-17,4,2,"right",1,3,22,"S0002",3,0,"*",2,1450,-1
2007-01-17,4,2,"right",1,3,23,"S1000",3,0,"*",5,-1,1061
2007-01-17,4,2,"right",1,3,24,"S0100",3,0,"*",1,-1,4076
2007-01-17,4,2,"right",1,3,25,"S2000",2,1,"*",2,978,-1
2007-01-17,4,2,"right",1,3,26,"S0002",3,1,"*",5,733,-1
2007-01-17,4,2,"right",1,3,27,"S0001",2,0,"*",2,-1,1862
2007-01-17,4,2,"right",1,3,28,"S0020",2,0,"*",1,5348,-1
2007-01-17,4,2,"right",1,3,29,"S0100",3,0,"*",1,-1,3523
2007-01-17,4,2,"right",1,3,30,"S1000",3,0,"*",1,-1,5532
2007-01-17,4,2,"right",1,3,31,"S0200",3,0,"*",1,3809,-1
2007-01-17,4,2,"right",1,3,32,"S0010",3,0,"*",1,-1,6763
2007-01-17,4,2,"right",1,3,33,"S0001",2,0,"*",1,-1,4423
2007-01-17,4,2,"right",1,3,34,"S0200",3,0,"*",1,5162,-1
2007-01-17,4,2,"right",1,3,35,"S0002",3,0,"*",1,4711,-1
2007-01-17,4,2,"right",1,3,36,"S0010",3,0,"*",2,-1,3008
2007-01-17,4,2,"right",1,3,37,"S0020",3,0,"*",1,5819,-1
2007-01-17,4,2,"right",1,3,38,"S0100",3,0,"*",1,-1,4650
2007-01-17,4,2,"right",1,3,39,"S1000",3,0,"*",1,-1,5367
2007-01-17,4,2,"right",1,3,40,"S2000",2,0,"*",1,4752,-1
2007-01-17,4,2,"right",1,3,41,"S0001",3,0,"*",1,-1,3871
2007-01-17,4,2,"right",1,3,42,"S0010",3,0,"*",1,-1,8342
2007-01-17,4,2,"right",1,3,43,"S0002",3,0,"*",1,4485,-1
2007-01-17,4,2,"right",1,3,44,"S2000",3,0,"*",3,1390,-1
2007-01-17,4,2,"right",1,3,45,"S0100",2,0,"*",1,-1,2087
2007-01-17,4,2,"right",1,3,46,"S0200",3,0,"*",1,3337,-1
2007-01-17,4,2,"right",1,3,47,"S1000",2,0,"*",3,-1,1512
2007-01-17,4,2,"right",1,3,48,"S0020",3,0,"*",1,4916,-1
2007-01-17,4,2,"right",1,3,49,"S0100",2,0,"*",1,-1,7234
2007-01-17,4,2,"right",1,3,50,"S0002",3,0,"*",1,5818,-1
2007-01-17,4,2,"right",1,3,51,"S0020",2,0,"*",1,7133,-1
2007-01-17,4,2,"right",1,3,52,"S0001",2,0,"*",1,-1,3748
2007-01-17,4,2,"right",1,3,53,"S0200",2,0,"*",1,4281,-1
2007-01-17,4,2,"right",1,3,54,"S0010",3,0,"*",1,-1,4445
2007-01-17,4,2,"right",1,3,55,"S2000",3,0,"*",2,3009,-1
2007-01-17,4,2,"right",1,3,56,"S1000",3,0,"*",2,-1,2991
2007-01-17,4,2,"right",1,3,57,"S0200",2,0,"*",1,2129,-1
2007-01-17,4,2,"right",1,3,58,"S1000",2,0,"*",1,-1,5394
2007-01-17,4,2,"right",1,3,59,"S0020",3,0,"*",1,4958,-1
2007-01-17,4,2,"right",1,3,60,"S0010",3,0,"*",1,-1,3953
2007-01-17,4,2,"right",1,3,61,"S0002",2,0,"*",1,3856,-1
2007-01-17,4,2,"right",1,3,62,"S2000",2,0,"*",1,2744,-1
2007-01-17,4,2,"right",1,3,63,"S0001",3,0,"*",2,-1,2867
2007-01-17,4,2,"right",1,3,64,"S0100",2,0,"*",1,-1,2190
2007-01-17,4,2,"right",2,1,1,"S6780",3,0,"*",2,1662,-1
2007-01-17,4,2,"right",2,1,2,"S6780",3,0,"*",2,3015,-1
2007-01-17,4,2,"right",2,1,3,"S2340",2,0,"*",3,-1,1189
2007-01-17,4,2,"right",2,1,4,"S2340",2,0,"*",3,-1,1436
2007-01-17,4,2,"right",2,1,5,"S6780",2,0,"*",1,3650,-1
2007-01-17,4,2,"right",2,1,6,"S6780",2,0,"*",2,1068,-1
2007-01-17,4,2,"right",2,1,7,"S2340",2,0,"*",1,-1,3344
2007-01-17,4,2,"right",2,1,8,"S6780",3,0,"*",2,2932,-1
2007-01-17,4,2,"right",2,1,9,"S2340",3,1,"*",6,-1,841
2007-01-17,4,2,"right",2,1,10,"S6780",3,0,"*",2,1497,-1
2007-01-17,4,2,"right",2,1,11,"S2340",3,2,"*",6,-1,759
2007-01-17,4,2,"right",2,1,12,"S2340",3,0,"*",2,-1,2606
2007-01-17,4,2,"right",2,1,13,"S6780",2,0,"*",1,3713,-1
2007-01-17,4,2,"right",2,1,14,"S2340",3,0,"*",1,-1,3056
2007-01-17,4,2,"right",2,1,15,"S6780",3,0,"*",1,4737,-1
2007-01-17,4,2,"right",2,1,16,"S2340",2,0,"*",2,-1,1356
2007-01-17,4,2,"right",2,1,17,"S6780",3,0,"*",1,3590,-1
2007-01-17,4,2,"right",2,1,18,"S2340",3,0,"*",6,-1,1129
2007-01-17,4,2,"right",2,1,19,"S2340",2,1,"*",3,-1,966
2007-01-17,4,2,"right",2,1,20,"S6780",3,2,"*",6,452,-1
2007-01-17,4,2,"right",2,1,21,"S6780",2,1,"*",3,821,-1
2007-01-17,4,2,"right",2,1,22,"S2340",2,0,"*",1,-1,4083
2007-01-17,4,2,"right",2,1,23,"S6780",3,0,"*",1,5210,-1
2007-01-17,4,2,"right",2,1,24,"S2340",3,0,"*",1,-1,4307
2007-01-17,4,2,"right",2,1,25,"S6780",3,0,"*",1,4739,-1
2007-01-17,4,2,"right",2,1,26,"S6780",2,0,"*",1,11097,-1
2007-01-17,4,2,"right",2,1,27,"S2340",3,0,"*",1,-1,4083
2007-01-17,4,2,"right",2,1,28,"S6780",2,0,"*",1,3631,-1
2007-01-17,4,2,"right",2,1,29,"S2340",3,0,"*",1,-1,3795
2007-01-17,4,2,"right",2,1,30,"S2340",2,0,"*",1,-1,3200
2007-01-17,4,2,"right",2,1,31,"S6780",3,0,"*",1,4738,-1
2007-01-17,4,2,"right",2,1,32,"S2340",3,0,"*",2,-1,2852
2007-01-17,4,2,"right",3,1,1,"S2340",2,1,"*",3,-1,1005
2007-01-17,4,2,"right",3,1,2,"S6780",3,0,"*",1,3943,-1
2007-01-17,4,2,"right",3,1,3,"S6780",2,0,"*",1,5271,-1
2007-01-17,4,2,"right",3,1,4,"S2340",3,0,"*",3,-1,2256
2007-01-17,4,2,"right",3,1,5,"S6780",2,0,"*",1,5188,-1
2007-01-17,4,2,"right",3,1,6,"S6780",2,0,"*",1,4983,-1
2007-01-17,4,2,"right",3,1,7,"S2340",3,0,"*",1,-1,4369
2007-01-17,4,2,"right",3,1,8,"S6780",2,0,"*",1,3713,-1
2007-01-17,4,2,"right",3,1,9,"S2340",2,0,"*",2,-1,1847
2007-01-17,4,2,"right",3,1,10,"S2340",3,0,"*",1,-1,3506
2007-01-17,4,2,"right",3,1,11,"S6780",3,0,"*",2,2092,-1
2007-01-17,4,2,"right",3,1,12,"S2340",2,0,"*",1,-1,4347
2007-01-17,4,2,"right",3,1,13,"S6780",3,0,"*",1,3097,-1
2007-01-17,4,2,"right",3,1,14,"S2340",2,0,"*",1,-1,3835
2007-01-17,4,2,"right",3,1,15,"S2340",3,0,"*",1,-1,5968
2007-01-17,4,2,"right",3,1,16,"S6780",2,0,"*",1,3611,-1
2007-01-17,4,2,"right",3,1,17,"S6780",2,0,"*",1,3548,-1
2007-01-17,4,2,"right",3,1,18,"S2340",2,0,"*",1,-1,4328
2007-01-17,4,2,"right",3,1,19,"S2340",2,0,"*",1,-1,3363
2007-01-17,4,2,"right",3,1,20,"S6780",3,0,"*",1,5086,-1
2007-01-17,4,2,"right",3,2,1,"S2340",2,0,"R",1,-1,3302
2007-01-17,4,2,"right",3,2,2,"S6780",3,0,"*",1,3591,-1
2007-01-17,4,2,"right",3,2,3,"S2340",3,0,"*",2,-1,2892
2007-01-17,4,2,"right",3,2,4,"S6340",3,0,"L",1,3118,-1
2007-01-17,4,2,"right",3,2,5,"S2340",2,0,"*",1,-1,3200
2007-01-17,4,2,"right",3,2,6,"S2340",2,0,"*",1,-1,2789
2007-01-17,4,2,"right",3,2,7,"S2380",3,0,"L",1,945,1744
2007-01-17,4,2,"right",3,2,8,"S2340",2,0,"*",2,-1,1888
2007-01-17,4,2,"right",3,2,9,"S6380",3,0,"L",1,2873,-1
2007-01-17,4,2,"right",3,2,10,"S6780",2,0,"*",3,1107,-1
2007-01-17,4,2,"right",3,2,11,"S6340",2,0,"R",1,-1,2770
2007-01-17,4,2,"right",3,2,12,"S6780",3,0,"*",1,4718,-1
2007-01-17,4,2,"right",3,2,13,"S6780",3,1,"*",7,758,-1
2007-01-17,4,2,"right",3,2,14,"S2740",2,0,"R",1,-1,2790
2007-01-17,4,2,"right",3,2,15,"S2340",2,0,"*",1,-1,2154
2007-01-17,4,2,"right",3,2,16,"S2780",3,0,"L",1,2482,-1
2007-01-17,4,2,"right",3,2,17,"S2340",3,0,"*",5,-1,1353
2007-01-17,4,2,"right",3,2,18,"S6780",3,0,"*",2,2338,-1
2007-01-17,4,2,"right",3,2,19,"S2340",2,0,"*",1,-1,4308
2007-01-17,4,2,"right",3,2,20,"S6380",3,0,"L",1,8163,-1
2007-01-17,4,2,"right",3,2,21,"S6780",2,0,"*",1,3445,-1
2007-01-17,4,2,"right",3,2,22,"S2780",3,0,"L",1,2709,-1
2007-01-17,4,2,"right",3,2,23,"S2340",3,0,"*",4,-1,2707
2007-01-17,4,2,"right",3,2,24,"S6780",2,0,"*",2,1722,-1
2007-01-17,4,2,"right",3,2,25,"S6740",2,0,"L",1,2359,-1
2007-01-17,4,2,"right",3,2,26,"S6780",3,0,"*",1,3159,-1
2007-01-17,4,2,"right",3,2,27,"S2340",2,0,"*",1,-1,2831
2007-01-17,4,2,"right",3,2,28,"S6780",2,0,"*",1,3692,-1
2007-01-17,4,2,"right",3,2,29,"S2380",3,0,"R",1,-1,3610
2007-01-17,4,2,"right",3,2,30,"S2340",2,1,"*",5,-1,883
2007-01-17,4,2,"right",3,2,31,"S6780",3,0,"L",1,1785,-1
2007-01-17,4,2,"right",3,2,32,"S2340",3,0,"*",4,-1,1190
2007-01-17,4,2,"right",3,2,33,"S6780",2,0,"L",1,1292,-1
2007-01-17,4,2,"right",3,2,34,"S6780",2,1,"*",3,841,-1
2007-01-17,4,2,"right",3,2,35,"S6740",2,0,"L",1,724,-1
2007-01-17,4,2,"right",3,2,36,"S6780",2,0,"*",1,3014,-1
2007-01-17,4,2,"right",3,2,37,"S2340",3,0,"*",2,-1,2809
2007-01-17,4,2,"right",3,2,38,"S2340",2,0,"R",1,-1,5190
2007-01-17,4,2,"right",3,2,39,"S6780",2,0,"*",2,1785,-1
2007-01-17,4,2,"right",3,2,40,"S2740",2,0,"R",1,-1,4678
2007-01-17,5,3,"left",1,1,1,"S2000",2,0,"*",1,-1,19868
2007-01-17,5,3,"left",1,1,2,"S0100",3,0,"*",3,1925,-1
2007-01-17,5,3,"left",1,1,3,"S0020",2,0,"+",1,1084,46795
2007-01-17,5,3,"left",1,1,4,"S0002",2,0,"*",1,-1,4653
2007-01-17,5,3,"left",1,1,5,"S0001",3,0,"+",1,3627,2314
2007-01-17,5,3,"left",1,1,6,"S0200",2,0,"+",1,1269,2192
2007-01-17,5,3,"left",1,1,7,"S0010",3,0,"*",2,2397,3135
2007-01-17,5,3,"left",1,1,8,"S1000",3,0,"+",2,2191,1432
2007-01-17,5,3,"left",1,1,9,"S0200",2,0,"*",2,2171,1432
2007-01-17,5,3,"left",1,1,10,"S0002",3,1,"*",4,1760,1002
2007-01-17,5,3,"left",1,1,11,"S0010",2,0,"+",1,5657,2212
2007-01-17,5,3,"left",1,1,12,"S1000",2,1,"*",2,715,-1
2007-01-17,5,3,"left",1,1,13,"S2000",2,0,"*",1,-1,15993
2007-01-17,5,3,"left",1,1,14,"S0001",2,0,"+",1,3749,2026
2007-01-17,5,3,"left",1,1,15,"S0100",2,1,"*",2,838,1658
2007-01-17,5,3,"left",1,1,16,"S0020",3,0,"*",5,3525,1843
2007-01-17,5,3,"left",1,1,17,"S0010",3,0,"+",1,4940,3299
2007-01-17,5,3,"left",1,1,18,"S0200",3,0,"+",1,4507,7563
2007-01-17,5,3,"left",1,1,19,"S0002",2,0,"*",3,-1,1677
2007-01-17,5,3,"left",1,1,20,"S1000",2,1,"*",5,939,-1
2007-01-17,5,3,"left",1,1,21,"S0020",3,0,"+",1,1124,3769
2007-01-17,5,3,"left",1,1,22,"S0001",2,0,"*",5,1288,-1
2007-01-17,5,3,"left",1,1,23,"S0100",3,0,"+",2,2785,1062
2007-01-17,5,3,"left",1,1,24,"S2000",2,2,"*",4,-1,570
2007-01-17,5,3,"left",1,1,25,"S0001",3,0,"*",1,3113,-1
2007-01-17,5,3,"left",1,1,26,"S0200",2,3,"*",10,-1,447
2007-01-17,5,3,"left",1,1,27,"S0020",2,0,"+",1,2150,4897
2007-01-17,5,3,"left",1,1,28,"S1000",3,0,"*",3,2436,-1
2007-01-17,5,3,"left",1,1,29,"S0010",3,0,"+",1,9410,6498
2007-01-17,5,3,"left",1,1,30,"S2000",2,0,"*",1,-1,2579
2007-01-17,5,3,"left",1,1,31,"S0100",3,2,"*",14,488,-1
2007-01-17,5,3,"left",1,1,32,"S0002",3,0,"*",1,-1,3033
2007-01-17,5,3,"left",1,1,33,"S0010",2,2,"*",8,549,-1
2007-01-17,5,3,"left",1,1,34,"S0200",3,1,"*",2,-1,775
2007-01-17,5,3,"left",1,1,35,"S2000",2,0,"*",2,-1,1083
2007-01-17,5,3,"left",1,1,36,"S0001",2,0,"*",2,1431,-1
2007-01-17,5,3,"left",1,1,37,"S0020",3,0,"+",1,652,5000
2007-01-17,5,3,"left",1,1,38,"S0100",2,2,"*",5,528,-1
2007-01-17,5,3,"left",1,1,39,"S1000",2,1,"*",3,857,-1
2007-01-17,5,3,"left",1,1,40,"S0002",2,0,"*",6,-1,1307
2007-01-17,5,3,"left",1,1,41,"S0002",3,1,"*",9,-1,939
2007-01-17,5,3,"left",1,1,42,"S0001",3,0,"*",6,1759,-1
2007-01-17,5,3,"left",1,1,43,"S0020",3,1,"*",11,-1,877
2007-01-17,5,3,"left",1,1,44,"S0010",3,2,"*",12,487,-1
2007-01-17,5,3,"left",1,1,45,"S2000",2,1,"*",6,-1,815
2007-01-17,5,3,"left",1,1,46,"S1000",2,3,"*",9,508,-1
2007-01-17,5,3,"left",1,1,47,"S0200",2,0,"*",2,-1,2005
2007-01-17,5,3,"left",1,1,48,"S0100",3,1,"*",7,651,-1
2007-01-17,5,3,"left",1,1,49,"S0001",2,0,"*",1,2169,-1
2007-01-17,5,3,"left",1,1,50,"S0002",3,1,"*",6,-1,569
2007-01-17,5,3,"left",1,1,51,"S2000",3,2,"*",10,-1,569
2007-01-17,5,3,"left",1,1,52,"S1000",2,3,"*",9,631,-1
2007-01-17,5,3,"left",1,1,53,"S0020",2,0,"*",1,-1,10884
2007-01-17,5,3,"left",1,1,54,"S0200",3,0,"*",1,-1,3603
2007-01-17,5,3,"left",1,1,55,"S0010",2,0,"*",1,4485,-1
2007-01-17,5,3,"left",1,1,56,"S0100",3,0,"*",1,5634,-1
2007-01-17,5,3,"left",1,1,57,"S0020",2,0,"*",1,-1,6126
2007-01-17,5,3,"left",1,1,58,"S0002",2,0,"*",1,-1,5573
2007-01-17,5,3,"left",1,1,59,"S0010",2,0,"*",1,2331,-1
2007-01-17,5,3,"left",1,1,60,"S0200",3,0,"*",2,-1,1102
2007-01-17,5,3,"left",1,1,61,"S0100",3,0,"*",1,3624,-1
2007-01-17,5,3,"left",1,1,62,"S0001",3,0,"*",1,5428,-1
2007-01-17,5,3,"left",1,1,63,"S2000",2,0,"*",2,-1,1265
2007-01-17,5,3,"left",1,1,64,"S1000",3,0,"*",1,3418,-1
2007-01-17,5,3,"left",2,1,1,"S5870",2,0,"*",1,-1,5620
2007-01-17,5,3,"left",2,1,2,"S1430",3,1,"*",3,551,-1
2007-01-17,5,3,"left",2,1,3,"S1430",3,0,"*",1,3566,-1
2007-01-17,5,3,"left",2,1,4,"S5870",2,0,"*",1,-1,2520
2007-01-17,5,3,"left",2,1,5,"S5870",3,0,"*",1,-1,3875
2007-01-17,5,3,"left",2,1,6,"S1430",3,1,"*",2,470,-1
2007-01-17,5,3,"left",2,1,7,"S5870",3,1,"*",2,-1,532
2007-01-17,5,3,"left",2,1,8,"S5870",3,0,"*",1,-1,4653
2007-01-17,5,3,"left",2,1,9,"S1430",2,0,"*",1,3710,-1
2007-01-17,5,3,"left",2,1,10,"S1430",3,0,"*",1,3690,-1
2007-01-17,5,3,"left",2,1,11,"S5870",2,1,"*",2,-1,553
2007-01-17,5,3,"left",2,1,12,"S5870",3,0,"*",1,-1,8346
2007-01-17,5,3,"left",2,1,13,"S1430",3,0,"*",3,1434,-1
2007-01-17,5,3,"left",2,1,14,"S1430",2,0,"*",1,4736,-1
2007-01-17,5,3,"left",2,1,15,"S5870",3,0,"*",1,-1,7527
2007-01-17,5,3,"left",2,1,16,"S1430",2,0,"*",1,3240,-1
2007-01-17,5,3,"left",2,1,17,"S1430",3,0,"*",1,4552,-1
2007-01-17,5,3,"left",2,1,18,"S5870",2,0,"*",1,-1,4737
2007-01-17,5,3,"left",2,1,19,"S1430",3,0,"*",2,2419,-1
2007-01-17,5,3,"left",2,1,20,"S1430",3,0,"*",5,1476,-1
2007-01-17,5,3,"left",2,1,21,"S5870",2,0,"*",1,-1,3937
2007-01-17,5,3,"left",2,1,22,"S5870",2,1,"*",5,-1,779
2007-01-17,5,3,"left",2,1,23,"S1430",2,0,"*",1,3629,-1
2007-01-17,5,3,"left",2,1,24,"S5870",2,0,"*",1,-1,4223
2007-01-17,5,3,"left",2,1,25,"S1430",3,1,"*",6,593,-1
2007-01-17,5,3,"left",2,1,26,"S1430",2,0,"*",4,1271,-1
2007-01-17,5,3,"left",2,1,27,"S5870",3,1,"*",5,-1,963
2007-01-17,5,3,"left",2,1,28,"S5870",3,0,"*",1,-1,3941
2007-01-17,5,3,"left",2,1,29,"S1430",2,0,"*",1,3772,-1
2007-01-17,5,3,"left",2,1,30,"S5870",2,0,"*",1,-1,2481
2007-01-17,5,3,"left",2,1,31,"S1430",2,0,"*",1,3404,-1
2007-01-17,5,3,"left",2,1,32,"S5870",3,0,"*",1,-1,3815
2007-01-17,5,3,"left",3,1,1,"S5870",2,0,"*",1,-1,3014
2007-01-17,5,3,"left",3,1,2,"S1430",3,1,"*",5,983,-1
2007-01-17,5,3,"left",3,1,3,"S1430",3,0,"*",3,2460,-1
2007-01-17,5,3,"left",3,1,4,"S5870",3,0,"*",1,-1,3239
2007-01-17,5,3,"left",3,1,5,"S1430",3,0,"*",1,5946,-1
2007-01-17,5,3,"left",3,1,6,"S1430",3,0,"*",1,3814,-1
2007-01-17,5,3,"left",3,1,7,"S5870",2,0,"*",1,-1,4491
2007-01-17,5,3,"left",3,1,8,"S5870",3,0,"*",2,-1,2174
2007-01-17,5,3,"left",3,1,9,"S1430",2,0,"*",1,3793,-1
2007-01-17,5,3,"left",3,1,10,"S5870",3,0,"*",1,-1,3895
2007-01-17,5,3,"left",3,1,11,"S1430",3,0,"*",1,4245,-1
2007-01-17,5,3,"left",3,1,12,"S1430",3,0,"*",1,4224,-1
2007-01-17,5,3,"left",3,1,13,"S5870",3,0,"*",1,-1,3608
2007-01-17,5,3,"left",3,1,14,"S1430",3,0,"*",1,3404,-1
2007-01-17,5,3,"left",3,1,15,"S5870",2,0,"*",1,-1,3691
2007-01-17,5,3,"left",3,1,16,"S1430",3,0,"*",1,3178,-1
2007-01-17,5,3,"left",3,1,17,"S5870",3,0,"*",1,-1,4921
2007-01-17,5,3,"left",3,1,18,"S1430",2,0,"*",1,6336,-1
2007-01-17,5,3,"left",3,1,19,"S5870",2,0,"*",1,-1,5024
2007-01-17,5,3,"left",3,1,20,"S5870",2,0,"*",2,-1,1291
2007-01-17,5,3,"left",3,2,1,"S1430",2,0,"L",1,3054,-1
2007-01-17,5,3,"left",3,2,2,"S5870",2,0,"*",1,-1,4018
2007-01-17,5,3,"left",3,2,3,"S1870",3,0,"R",1,-1,1742
2007-01-17,5,3,"left",3,2,4,"S5870",2,0,"*",1,-1,5495
2007-01-17,5,3,"left",3,2,5,"S1430",3,0,"*",1,3445,-1
2007-01-17,5,3,"left",3,2,6,"S5870",2,0,"*",1,-1,5311
2007-01-17,5,3,"left",3,2,7,"S1870",2,0,"R",1,-1,3917
2007-01-17,5,3,"left",3,2,8,"S5870",2,0,"*",1,-1,2337
2007-01-17,5,3,"left",3,2,9,"S1470",3,0,"R",1,-1,4265
2007-01-17,5,3,"left",3,2,10,"S1430",2,0,"*",3,1311,-1
2007-01-17,5,3,"left",3,2,11,"S5870",2,0,"*",1,-1,3506
2007-01-17,5,3,"left",3,2,12,"S5830",3,0,"R",1,-1,12386
2007-01-17,5,3,"left",3,2,13,"S1430",2,0,"*",1,3342,-1
2007-01-17,5,3,"left",3,2,14,"S1470",3,0,"L",1,3036,-1
2007-01-17,5,3,"left",3,2,15,"S5870",3,0,"*",3,-1,2030
2007-01-17,5,3,"left",3,2,16,"S5870",3,0,"R",1,-1,3344
2007-01-17,5,3,"left",3,2,17,"S5870",2,0,"*",1,-1,4327
2007-01-17,5,3,"left",3,2,18,"S1430",3,0,"*",1,4654,-1
2007-01-17,5,3,"left",3,2,19,"S1430",2,0,"*",1,3506,-1
2007-01-17,5,3,"left",3,2,20,"S1830",3,0,"L",1,635,-1
2007-01-17,5,3,"left",3,2,21,"S1430",2,0,"*",1,3936,-1
2007-01-17,5,3,"left",3,2,22,"S1830",2,0,"L",1,3322,-1
2007-01-17,5,3,"left",3,2,23,"S1430",2,0,"*",1,3363,-1
2007-01-17,5,3,"left",3,2,24,"S5430",2,0,"L",1,3096,-1
2007-01-17,5,3,"left",3,2,25,"S1430",2,0,"*",1,3526,-1
2007-01-17,5,3,"left",3,2,26,"S5430",3,0,"L",1,3322,-1
2007-01-17,5,3,"left",3,2,27,"S5870",3,0,"*",1,-1,3752
2007-01-17,5,3,"left",3,2,28,"S1430",3,0,"*",1,4553,-1
2007-01-17,5,3,"left",3,2,29,"S1430",3,0,"L",1,3733,-1
2007-01-17,5,3,"left",3,2,30,"S1430",3,0,"*",1,3239,-1
2007-01-17,5,3,"left",3,2,31,"S1430",2,0,"*",1,3485,-1
2007-01-17,5,3,"left",3,2,32,"S5870",3,0,"*",2,-1,2378
2007-01-17,5,3,"left",3,2,33,"S5470",2,0,"R",1,-1,1866
2007-01-17,5,3,"left",3,2,34,"S5870",2,0,"*",5,-1,1024
2007-01-17,5,3,"left",3,2,35,"S5830",2,0,"R",1,-1,1537
2007-01-17,5,3,"left",3,2,36,"S5870",2,0,"*",1,-1,3548
2007-01-17,5,3,"left",3,2,37,"S1430",3,0,"*",1,4080,-1
2007-01-17,5,3,"left",3,2,38,"S5470",2,0,"R",1,-1,3691
2007-01-17,5,3,"left",3,2,39,"S5870",3,0,"*",1,-1,3301
2007-01-17,5,3,"left",3,2,40,"S5870",3,0,"R",1,-1,3610
2007-01-17,6,3,"right",1,1,1,"S0020",3,0,"+",1,69501,1945
2007-01-17,6,3,"right",1,1,2,"S1000",3,0,"*",3,-1,1515
2007-01-17,6,3,"right",1,1,3,"S2000",2,0,"+",1,6149,919
2007-01-17,6,3,"right",1,1,4,"S0200",3,1,"*",6,899,3175
2007-01-17,6,3,"right",1,1,5,"S0010",3,0,"+",1,1247,5123
2007-01-17,6,3,"right",1,1,6,"S0100",3,0,"+",1,797,3278
2007-01-17,6,3,"right",1,1,7,"S0002",3,0,"*",2,2109,3544
2007-01-17,6,3,"right",1,1,8,"S0001",3,0,"+",1,1780,3400
2007-01-17,6,3,"right",1,1,9,"S0010",2,1,"*",3,2457,940
2007-01-17,6,3,"right",1,1,10,"S0200",3,1,"*",4,981,-1
2007-01-17,6,3,"right",1,1,11,"S0001",2,0,"+",1,4815,6271
2007-01-17,6,3,"right",1,1,12,"S0100",3,0,"+",1,960,4610
2007-01-17,6,3,"right",1,1,13,"S0020",2,0,"*",2,1657,2744
2007-01-17,6,3,"right",1,1,14,"S2000",2,0,"+",2,1596,817
2007-01-17,6,3,"right",1,1,15,"S1000",3,0,"*",2,3400,2190
2007-01-17,6,3,"right",1,1,16,"S0002",2,0,"*",2,1842,2949
2007-01-17,6,3,"right",1,1,17,"S2000",2,0,"+",2,1944,980
2007-01-17,6,3,"right",1,1,18,"S0010",2,0,"*",1,-1,2108
2007-01-17,6,3,"right",1,1,19,"S0020",3,0,"+",1,5123,1986
2007-01-17,6,3,"right",1,1,20,"S0100",3,0,"+",1,2088,4508
2007-01-17,6,3,"right",1,1,21,"S0001",3,0,"*",2,-1,2989
2007-01-17,6,3,"right",1,1,22,"S0002",3,0,"+",2,2765,1022
2007-01-17,6,3,"right",1,1,23,"S1000",2,0,"*",2,2765,1659
2007-01-17,6,3,"right",1,1,24,"S0200",2,0,"+",1,7380,3996
2007-01-17,6,3,"right",1,1,25,"S0001",2,0,"*",1,-1,2415
2007-01-17,6,3,"right",1,1,26,"S0100",2,0,"+",1,939,2642
2007-01-17,6,3,"right",1,1,27,"S2000",3,1,"*",2,980,2025
2007-01-17,6,3,"right",1,1,28,"S1000",2,0,"+",1,2703,3728
2007-01-17,6,3,"right",1,1,29,"S0020",2,0,"+",1,3605,858
2007-01-17,6,3,"right",1,1,30,"S0010",2,0,"+",1,2006,3830
2007-01-17,6,3,"right",1,1,31,"S0200",2,0,"+",1,10167,8691
2007-01-17,6,3,"right",1,1,32,"S0002",2,0,"*",1,3133,-1
2007-01-17,6,3,"right",1,1,33,"S0100",2,0,"*",1,-1,4486
2007-01-17,6,3,"right",1,1,34,"S2000",3,0,"*",1,3359,-1
2007-01-17,6,3,"right",1,1,35,"S0200",2,0,"+",1,3955,2376
2007-01-17,6,3,"right",1,1,36,"S0001",2,0,"*",1,-1,5779
2007-01-17,6,3,"right",1,1,37,"S0010",2,0,"+",1,5779,6743
2007-01-17,6,3,"right",1,1,38,"S0020",3,0,"+",2,1615,897
2007-01-17,6,3,"right",1,1,39,"S1000",3,0,"*",1,-1,5224
2007-01-17,6,3,"right",1,1,40,"S0002",2,0,"+",1,5450,4158
2007-01-17,6,3,"right",1,1,41,"S0020",2,0,"+",1,2558,1553
2007-01-17,6,3,"right",1,1,42,"S0100",3,0,"*",2,2846,2026
2007-01-17,6,3,"right",1,1,43,"S0200",3,1,"*",3,795,2210
2007-01-17,6,3,"right",1,1,44,"S0001",2,0,"*",1,-1,3912
2007-01-17,6,3,"right",1,1,45,"S0010",2,0,"+",1,3193,4854
2007-01-17,6,3,"right",1,1,46,"S0002",3,0,"+",1,3050,979
2007-01-17,6,3,"right",1,1,47,"S1000",2,0,"*",1,-1,3337
2007-01-17,6,3,"right",1,1,48,"S2000",2,0,"+",1,6578,5122
2007-01-17,6,3,"right",1,1,49,"S0200",3,0,"+",1,3624,1676
2007-01-17,6,3,"right",1,1,50,"S0100",3,0,"+",1,5715,6659
2007-01-17,6,3,"right",1,1,51,"S0002",2,0,"+",1,3768,1656
2007-01-17,6,3,"right",1,1,52,"S2000",3,0,"+",1,3050,2373
2007-01-17,6,3,"right",1,1,53,"S0001",2,0,"*",1,-1,3316
2007-01-17,6,3,"right",1,1,54,"S0010",3,0,"+",1,2496,5716
2007-01-17,6,3,"right",1,1,55,"S0020",2,0,"+",2,1901,1101
2007-01-17,6,3,"right",1,1,56,"S1000",2,0,"*",1,-1,5285
2007-01-17,6,3,"right",1,1,57,"S0100",3,0,"+",1,4793,8792
2007-01-17,6,3,"right",1,1,58,"S0002",2,0,"+",1,6413,5183
2007-01-17,6,3,"right",1,1,59,"S0200",3,0,"+",2,2187,1100
2007-01-17,6,3,"right",1,1,60,"S0001",3,0,"*",1,-1,8811
2007-01-17,6,3,"right",1,1,61,"S2000",3,0,"*",1,7151,-1
2007-01-17,6,3,"right",1,1,62,"S0010",3,0,"*",1,-1,7130
2007-01-17,6,3,"right",1,1,63,"S1000",2,0,"*",1,-1,8094
2007-01-17,6,3,"right",1,1,64,"S0020",2,0,"+",1,9162,7377
2007-01-17,6,3,"right",1,2,1,"S0001",2,0,"+",1,6803,7849
2007-01-17,6,3,"right",1,2,2,"S0010",3,0,"*",1,-1,7437
2007-01-17,6,3,"right",1,2,3,"S0002",3,0,"+",1,6516,5470
2007-01-17,6,3,"right",1,2,4,"S0020",3,0,"*",1,4998,-1
2007-01-17,6,3,"right",1,2,5,"S1000",2,0,"*",1,-1,6433
2007-01-17,6,3,"right",1,2,6,"S0100",2,0,"*",1,-1,7233
2007-01-17,6,3,"right",1,2,7,"S2000",2,0,"+",1,9059,7582
2007-01-17,6,3,"right",1,2,8,"S0200",3,0,"+",1,6003,5039
2007-01-17,6,3,"right",1,2,9,"S1000",2,0,"*",2,2086,1307
2007-01-17,6,3,"right",1,2,10,"S0002",3,0,"*",1,5818,-1
2007-01-17,6,3,"right",1,2,11,"S0100",2,0,"*",1,-1,5632
2007-01-17,6,3,"right",1,2,12,"S2000",2,0,"+",1,5962,5182
2007-01-17,6,3,"right",1,2,13,"S0200",2,0,"*",1,3891,-1
2007-01-17,6,3,"right",1,2,14,"S0010",2,0,"+",1,4240,5039
2007-01-17,6,3,"right",1,2,15,"S0001",2,0,"*",1,-1,3684
2007-01-17,6,3,"right",1,2,16,"S0020",2,0,"+",1,5899,5182
2007-01-17,6,3,"right",1,2,17,"S2000",3,0,"+",1,6331,5716
2007-01-17,6,3,"right",1,2,18,"S1000",2,0,"*",1,-1,4834
2007-01-17,6,3,"right",1,2,19,"S0020",2,0,"*",1,9451,-1
2007-01-17,6,3,"right",1,2,20,"S0001",3,0,"*",1,-1,5695
2007-01-17,6,3,"right",1,2,21,"S0100",3,0,"*",1,-1,6269
2007-01-17,6,3,"right",1,2,22,"S0200",3,0,"*",1,5510,-1
2007-01-17,6,3,"right",1,2,23,"S0010",2,0,"*",1,-1,3234
2007-01-17,6,3,"right",1,2,24,"S0002",3,0,"+",1,5982,5285
2007-01-17,6,3,"right",1,2,25,"S0002",2,1,"*",2,834,-1
2007-01-17,6,3,"right",1,2,26,"S0100",3,0,"*",1,-1,6454
2007-01-17,6,3,"right",1,2,27,"S0200",2,0,"*",1,4178,-1
2007-01-17,6,3,"right",1,2,28,"S0001",3,0,"+",1,5694,9160
2007-01-17,6,3,"right",1,2,29,"S2000",2,0,"+",1,5982,5059
2007-01-17,6,3,"right",1,2,30,"S0010",3,0,"*",2,3500,2761
2007-01-17,6,3,"right",1,2,31,"S1000",3,0,"*",2,2536,1777
2007-01-17,6,3,"right",1,2,32,"S0020",3,0,"*",1,7642,-1
2007-01-17,6,3,"right",1,2,33,"S0020",2,0,"*",1,3274,-1
2007-01-17,6,3,"right",1,2,34,"S0100",2,0,"*",1,-1,5428
2007-01-17,6,3,"right",1,2,35,"S0002",3,0,"*",2,2782,-1
2007-01-17,6,3,"right",1,2,36,"S1000",2,0,"*",1,-1,4895
2007-01-17,6,3,"right",1,2,37,"S2000",2,0,"*",1,3972,-1
2007-01-17,6,3,"right",1,2,38,"S0010",3,0,"+",1,8053,8894
2007-01-17,6,3,"right",1,2,39,"S0001",3,0,"*",2,3377,2700
2007-01-17,6,3,"right",1,2,40,"S0200",3,0,"*",2,2228,-1
2007-01-17,6,3,"right",1,2,41,"S1000",3,0,"+",1,3582,8853
2007-01-17,6,3,"right",1,2,42,"S0020",2,0,"*",2,2003,-1
2007-01-17,6,3,"right",1,2,43,"S0002",3,0,"*",1,6556,-1
2007-01-17,6,3,"right",1,2,44,"S0001",3,0,"*",1,-1,4402
2007-01-17,6,3,"right",1,2,45,"S0200",3,0,"*",1,5325,-1
2007-01-17,6,3,"right",1,2,46,"S0010",3,0,"*",1,-1,5818
2007-01-17,6,3,"right",1,2,47,"S2000",3,0,"*",1,4239,-1
2007-01-17,6,3,"right",1,2,48,"S0100",3,0,"*",1,-1,4629
2007-01-17,6,3,"right",1,2,49,"S0010",3,0,"*",1,-1,4875
2007-01-17,6,3,"right",1,2,50,"S0002",3,0,"*",1,4177,-1
2007-01-17,6,3,"right",1,2,51,"S0200",3,0,"*",1,6352,-1
2007-01-17,6,3,"right",1,2,52,"S1000",3,0,"+",1,4054,6618
2007-01-17,6,3,"right",1,2,53,"S0001",3,0,"*",1,-1,5510
2007-01-17,6,3,"right",1,2,54,"S0020",2,0,"*",1,3665,-1
2007-01-17,6,3,"right",1,2,55,"S2000",3,0,"*",1,5347,-1
2007-01-17,6,3,"right",1,2,56,"S0100",2,0,"*",1,-1,3398
2007-01-17,6,3,"right",1,2,57,"S0002",2,0,"*",1,3440,-1
2007-01-17,6,3,"right",1,2,58,"S1000",2,0,"*",2,3051,1963
2007-01-17,6,3,"right",1,2,59,"S0020",2,0,"*",1,3030,-1
2007-01-17,6,3,"right",1,2,60,"S0010",3,0,"*",1,-1,4012
2007-01-17,6,3,"right",1,2,61,"S2000",3,0,"*",1,3561,-1
2007-01-17,6,3,"right",1,2,62,"S0100",2,0,"*",1,-1,5348
2007-01-17,6,3,"right",1,2,63,"S0200",3,0,"*",1,4341,-1
2007-01-17,6,3,"right",1,2,64,"S0001",3,0,"*",1,-1,6270
2007-01-17,6,3,"right",2,1,1,"S1240",3,0,"*",1,-1,6562
2007-01-17,6,3,"right",2,1,2,"S5680",2,0,"*",1,3833,-1
2007-01-17,6,3,"right",2,1,3,"S1240",2,0,"*",1,-1,3320
2007-01-17,6,3,"right",2,1,4,"S5680",2,0,"*",1,2993,-1
2007-01-17,6,3,"right",2,1,5,"S1240",2,0,"*",1,-1,3115
2007-01-17,6,3,"right",2,1,6,"S1240",2,0,"*",1,-1,5372
2007-01-17,6,3,"right",2,1,7,"S5680",2,0,"*",1,3135,-1
2007-01-17,6,3,"right",2,1,8,"S5680",2,0,"*",1,2501,-1
2007-01-17,6,3,"right",2,1,9,"S1240",3,0,"*",2,-1,2623
2007-01-17,6,3,"right",2,1,10,"S5680",3,0,"*",1,4408,-1
2007-01-17,6,3,"right",2,1,11,"S1240",3,0,"*",2,-1,3012
2007-01-17,6,3,"right",2,1,12,"S5680",3,0,"*",2,2643,-1
2007-01-17,6,3,"right",2,1,13,"S1240",2,0,"*",1,-1,2788
2007-01-17,6,3,"right",2,1,14,"S5680",3,0,"*",2,2520,-1
2007-01-17,6,3,"right",2,1,15,"S1240",3,0,"*",1,-1,5291
2007-01-17,6,3,"right",2,1,16,"S5680",3,0,"*",2,1640,-1
2007-01-17,6,3,"right",2,1,17,"S1240",2,0,"*",2,-1,1598
2007-01-17,6,3,"right",2,1,18,"S1240",2,0,"*",2,-1,1926
2007-01-17,6,3,"right",2,1,19,"S5680",3,0,"*",5,1764,-1
2007-01-17,6,3,"right",2,1,20,"S5680",3,0,"*",5,2234,-1
2007-01-17,6,3,"right",2,1,21,"S1240",2,0,"*",1,-1,2213
2007-01-17,6,3,"right",2,1,22,"S1240",3,0,"*",2,-1,1906
2007-01-17,6,3,"right",2,1,23,"S5680",3,0,"*",2,2255,-1
2007-01-17,6,3,"right",2,1,24,"S5680",3,0,"*",2,2523,-1
2007-01-17,6,3,"right",2,1,25,"S1240",3,0,"*",2,-1,2646
2007-01-17,6,3,"right",2,1,26,"S5680",2,0,"*",1,2237,-1
2007-01-17,6,3,"right",2,1,27,"S5680",3,0,"*",1,3343,-1
2007-01-17,6,3,"right",2,1,28,"S1240",3,0,"*",1,-1,3323
2007-01-17,6,3,"right",2,1,29,"S1240",3,0,"*",2,-1,2563
2007-01-17,6,3,"right",2,1,30,"S5680",3,0,"*",1,3917,-1
2007-01-17,6,3,"right",2,1,31,"S5680",2,0,"*",1,2032,-1
2007-01-17,6,3,"right",2,1,32,"S1240",2,0,"*",1,-1,2072
2007-01-17,6,3,"right",3,1,1,"S1240",2,0,"*",1,-1,4164
2007-01-17,6,3,"right",3,1,2,"S5680",2,0,"*",1,2051,-1
2007-01-17,6,3,"right",3,1,3,"S1240",3,0,"*",2,-1,2030
2007-01-17,6,3,"right",3,1,4,"S5680",3,0,"*",1,4451,-1
2007-01-17,6,3,"right",3,1,5,"S1240",2,0,"*",1,-1,2585
2007-01-17,6,3,"right",3,1,6,"S5680",2,0,"*",1,2605,-1
2007-01-17,6,3,"right",3,1,7,"S1240",3,0,"*",2,-1,2154
2007-01-17,6,3,"right",3,1,8,"S5680",2,0,"*",1,2831,-1
2007-01-17,6,3,"right",3,1,9,"S5680",3,0,"*",2,1395,-1
2007-01-17,6,3,"right",3,1,10,"S1240",2,0,"*",1,-1,2462
2007-01-17,6,3,"right",3,1,11,"S1240",3,0,"*",2,-1,2851
2007-01-17,6,3,"right",3,1,12,"S5680",3,0,"*",2,2768,-1
2007-01-17,6,3,"right",3,1,13,"S1240",3,0,"*",1,-1,4820
2007-01-17,6,3,"right",3,1,14,"S5680",3,0,"*",1,3713,-1
2007-01-17,6,3,"right",3,1,15,"S5680",3,0,"*",2,1886,-1
2007-01-17,6,3,"right",3,1,16,"S1240",2,0,"*",1,-1,4021
2007-01-17,6,3,"right",3,1,17,"S5680",2,0,"*",1,2872,-1
2007-01-17,6,3,"right",3,1,18,"S1240",3,0,"*",2,-1,2584
2007-01-17,6,3,"right",3,1,19,"S5680",3,0,"*",1,3733,-1
2007-01-17,6,3,"right",3,1,20,"S1240",2,0,"*",1,-1,2503
2007-01-17,6,3,"right",3,2,1,"S1240",3,0,"*",3,-1,2502
2007-01-17,6,3,"right",3,2,2,"S1280",2,0,"R",1,-1,2421
2007-01-17,6,3,"right",3,2,3,"S5680",2,0,"*",2,1606,-1
2007-01-17,6,3,"right",3,2,4,"S1280",2,0,"R",1,-1,2380
2007-01-17,6,3,"right",3,2,5,"S5680",3,0,"*",2,2174,-1
2007-01-17,6,3,"right",3,2,6,"S1640",3,0,"R",1,-1,3036
2007-01-17,6,3,"right",3,2,7,"S5680",2,0,"*",2,1682,-1
2007-01-17,6,3,"right",3,2,8,"S5280",3,0,"L",1,6132,-1
2007-01-17,6,3,"right",3,2,9,"S1240",2,0,"*",1,-1,2051
2007-01-17,6,3,"right",3,2,10,"S1240",3,0,"*",2,-1,2707
2007-01-17,6,3,"right",3,2,11,"S5240",2,0,"R",1,-1,2708
2007-01-17,6,3,"right",3,2,12,"S1240",3,0,"*",2,-1,1948
2007-01-17,6,3,"right",3,2,13,"S1240",2,0,"*",1,-1,2893
2007-01-17,6,3,"right",3,2,14,"S1680",2,0,"L",1,2503,-1
2007-01-17,6,3,"right",3,2,15,"S5680",2,0,"*",1,2708,-1
2007-01-17,6,3,"right",3,2,16,"S1240",3,0,"*",9,-1,1415
2007-01-17,6,3,"right",3,2,17,"S5240",3,0,"R",1,-1,3630
2007-01-17,6,3,"right",3,2,18,"S1240",2,0,"*",1,-1,2379
2007-01-17,6,3,"right",3,2,19,"S1240",2,0,"R",1,-1,4616
2007-01-17,6,3,"right",3,2,20,"S5680",3,0,"*",2,2155,-1
2007-01-17,6,3,"right",3,2,21,"S1240",3,0,"*",2,-1,2748
2007-01-17,6,3,"right",3,2,22,"S1240",3,0,"*",5,-1,1909
2007-01-17,6,3,"right",3,2,23,"S5680",2,0,"*",1,2831,-1
2007-01-17,6,3,"right",3,2,24,"S1680",2,0,"L",1,2934,-1
2007-01-17,6,3,"right",3,2,25,"S5680",2,0,"*",3,1559,-1
2007-01-17,6,3,"right",3,2,26,"S5680",3,0,"L",1,3241,-1
2007-01-17,6,3,"right",3,2,27,"S5680",2,0,"*",1,3755,-1
2007-01-17,6,3,"right",3,2,28,"S5280",2,0,"R",1,-1,9106
2007-01-17,6,3,"right",3,2,29,"S5680",2,1,"*",5,903,-1
2007-01-17,6,3,"right",3,2,30,"S1240",3,0,"*",3,-1,2297
2007-01-17,6,3,"right",3,2,31,"S1240",2,0,"R",1,-1,2503
2007-01-17,6,3,"right",3,2,32,"S5680",2,1,"*",3,678,-1
2007-01-17,6,3,"right",3,2,33,"S5680",3,0,"L",1,821,-1
2007-01-17,6,3,"right",3,2,34,"S5680",3,0,"*",2,2933,-1
2007-01-17,6,3,"right",3,2,35,"S5640",2,0,"R",1,-1,3877
2007-01-17,6,3,"right",3,2,36,"S1240",3,1,"*",4,-1,985
2007-01-17,6,3,"right",3,2,37,"S1240",3,0,"*",2,-1,2114
2007-01-17,6,3,"right",3,2,38,"S1640",3,0,"L",1,5273,-1
2007-01-17,6,3,"right",3,2,39,"S5680",2,0,"*",2,1210,-1
2007-01-17,6,3,"right",3,2,40,"S5640",2,0,"R",1,-1,1847
2007-01-18,7,1,"left",1,1,1,"S0200",3,0,"+",1,1884,16201
2007-01-18,7,1,"left",1,1,2,"S1000",3,1,"*",7,735,3281
2007-01-18,7,1,"left",1,1,3,"S0100",3,0,"+",1,9413,674
2007-01-18,7,1,"left",1,1,4,"S0002",2,0,"+",1,550,3975
2007-01-18,7,1,"left",1,1,5,"S0020",2,2,"*",4,3443,695
2007-01-18,7,1,"left",1,1,6,"S0010",3,0,"*",2,1719,-1
2007-01-18,7,1,"left",1,1,7,"S0001",3,0,"+",1,6477,653
2007-01-18,7,1,"left",1,1,8,"S2000",2,0,"+",1,447,6353
2007-01-18,7,1,"left",1,1,9,"S0020",3,2,"*",3,-1,652
2007-01-18,7,1,"left",1,1,10,"S0001",2,0,"+",1,3155,755
2007-01-18,7,1,"left",1,1,11,"S1000",3,2,"*",3,469,5742
2007-01-18,7,1,"left",1,1,12,"S0002",2,1,"*",4,-1,734
2007-01-18,7,1,"left",1,1,13,"S0010",2,1,"*",4,488,-1
2007-01-18,7,1,"left",1,1,14,"S0200",2,1,"*",4,-1,796
2007-01-18,7,1,"left",1,1,15,"S0100",2,2,"*",5,612,-1
2007-01-18,7,1,"left",1,1,16,"S2000",2,0,"+",1,508,6066
2007-01-18,7,1,"left",1,1,17,"S1000",2,0,"+",1,5144,632
2007-01-18,7,1,"left",1,1,18,"S0001",3,0,"+",1,4754,570
2007-01-18,7,1,"left",1,1,19,"S0002",3,1,"*",7,-1,694
2007-01-18,7,1,"left",1,1,20,"S0020",3,0,"+",1,591,4672
2007-01-18,7,1,"left",1,1,21,"S0010",3,2,"*",6,591,-1
2007-01-18,7,1,"left",1,1,22,"S0200",3,1,"*",9,-1,652
2007-01-18,7,1,"left",1,1,23,"S0100",3,2,"*",8,570,-1
2007-01-18,7,1,"left",1,1,24,"S2000",3,0,"+",1,571,7400
2007-01-18,7,1,"left",1,1,25,"S0002",2,0,"+",1,529,5779
2007-01-18,7,1,"left",1,1,26,"S1000",3,1,"*",5,734,-1
2007-01-18,7,1,"left",1,1,27,"S2000",3,0,"+",1,837,6230
2007-01-18,7,1,"left",1,1,28,"S0020",2,1,"*",4,-1,858
2007-01-18,7,1,"left",1,1,29,"S0100",2,1,"*",3,734,-1
2007-01-18,7,1,"left",1,1,30,"S0001",2,0,"+",1,8116,795
2007-01-18,7,1,"left",1,1,31,"S0200",3,2,"*",11,-1,672
2007-01-18,7,1,"left",1,1,32,"S0010",3,0,"+",1,6433,671
2007-01-18,7,1,"left",1,1,33,"S0200",2,0,"*",1,-1,6496
2007-01-18,7,1,"left",1,1,34,"S0001",3,1,"*",4,794,-1
2007-01-18,7,1,"left",1,1,35,"S0002",2,0,"+",1,609,6146
2007-01-18,7,1,"left",1,1,36,"S1000",2,3,"*",8,548,-1
2007-01-18,7,1,"left",1,1,37,"S0010",3,0,"+",1,4445,774
2007-01-18,7,1,"left",1,1,38,"S0020",2,0,"+",1,731,5531
2007-01-18,7,1,"left",1,1,39,"S2000",2,1,"*",4,-1,815
2007-01-18,7,1,"left",1,1,40,"S0100",3,2,"*",8,568,-1
2007-01-18,7,1,"left",1,1,41,"S1000",3,1,"*",4,710,-1
2007-01-18,7,1,"left",1,1,42,"S2000",3,2,"*",10,-1,774
2007-01-18,7,1,"left",1,1,43,"S0010",2,1,"*",3,610,-1
2007-01-18,7,1,"left",1,1,44,"S0100",2,0,"*",1,2517,-1
2007-01-18,7,1,"left",1,1,45,"S0020",3,2,"*",10,-1,651
2007-01-18,7,1,"left",1,1,46,"S0002",3,0,"+",1,2475,9366
2007-01-18,7,1,"left",1,1,47,"S0001",2,2,"*",6,507,-1
2007-01-18,7,1,"left",1,1,48,"S0200",2,2,"*",7,-1,752
2007-01-18,7,1,"left",1,1,49,"S0020",3,0,"+",1,466,10659
2007-01-18,7,1,"left",1,1,50,"S0100",3,2,"*",9,671,-1
2007-01-18,7,1,"left",1,1,51,"S2000",2,2,"*",8,-1,814
2007-01-18,7,1,"left",1,1,52,"S0002",2,2,"*",6,-1,690
2007-01-18,7,1,"left",1,1,53,"S0010",2,2,"*",6,731,-1
2007-01-18,7,1,"left",1,1,54,"S0200",2,3,"*",6,-1,609
2007-01-18,7,1,"left",1,1,55,"S0001",2,1,"*",4,936,-1
2007-01-18,7,1,"left",1,1,56,"S1000",3,0,"*",5,1900,-1
2007-01-18,7,1,"left",1,1,57,"S0020",2,2,"*",5,-1,752
2007-01-18,7,1,"left",1,1,58,"S0002",3,1,"*",8,-1,630
2007-01-18,7,1,"left",1,1,59,"S0010",3,1,"*",8,835,-1
2007-01-18,7,1,"left",1,1,60,"S2000",2,1,"*",5,-1,733
2007-01-18,7,1,"left",1,1,61,"S0001",3,2,"*",10,773,-1
2007-01-18,7,1,"left",1,1,62,"S0200",3,2,"*",8,-1,692
2007-01-18,7,1,"left",1,1,63,"S1000",3,0,"*",1,3501,-1
2007-01-18,7,1,"left",1,1,64,"S0100",2,1,"*",2,752,-1
2007-01-18,7,1,"left",1,2,1,"S0200",3,0,"*",4,-1,1244
2007-01-18,7,1,"left",1,2,2,"S0010",3,1,"*",2,876,-1
2007-01-18,7,1,"left",1,2,3,"S0100",3,1,"*",4,732,-1
2007-01-18,7,1,"left",1,2,4,"S0020",3,1,"*",2,-1,630
2007-01-18,7,1,"left",1,2,5,"S2000",3,0,"*",1,-1,3215
2007-01-18,7,1,"left",1,2,6,"S0001",2,1,"*",5,937,-1
2007-01-18,7,1,"left",1,2,7,"S1000",2,1,"*",5,752,-1
2007-01-18,7,1,"left",1,2,8,"S0002",3,1,"*",8,-1,753
2007-01-18,7,1,"left",1,2,9,"S0001",3,1,"*",7,856,-1
2007-01-18,7,1,"left",1,2,10,"S0020",2,0,"*",1,-1,5758
2007-01-18,7,1,"left",1,2,11,"S0100",2,0,"*",2,1082,-1
2007-01-18,7,1,"left",1,2,12,"S2000",3,1,"*",3,-1,836
2007-01-18,7,1,"left",1,2,13,"S1000",2,1,"*",4,672,-1
2007-01-18,7,1,"left",1,2,14,"S0010",3,1,"*",5,775,-1
2007-01-18,7,1,"left",1,2,15,"S0200",2,0,"*",3,-1,1041
2007-01-18,7,1,"left",1,2,16,"S0002",2,0,"*",3,-1,1288
2007-01-18,7,1,"left",1,2,17,"S1000",3,1,"*",5,897,-1
2007-01-18,7,1,"left",1,2,18,"S0020",2,1,"*",6,-1,837
2007-01-18,7,1,"left",1,2,19,"S0002",3,1,"*",4,-1,816
2007-01-18,7,1,"left",1,2,20,"S0001",2,2,"*",5,816,-1
2007-01-18,7,1,"left",1,2,21,"S2000",3,0,"*",5,-1,1061
2007-01-18,7,1,"left",1,2,22,"S0010",2,2,"*",7,733,-1
2007-01-18,7,1,"left",1,2,23,"S0100",2,1,"*",3,816,-1
2007-01-18,7,1,"left",1,2,24,"S0200",3,1,"*",5,-1,836
2007-01-18,7,1,"left",1,2,25,"S0200",2,0,"*",2,-1,1575
2007-01-18,7,1,"left",1,2,26,"S0010",3,0,"*",5,1061,-1
2007-01-18,7,1,"left",1,2,27,"S0100",3,0,"*",3,1943,-1
2007-01-18,7,1,"left",1,2,28,"S0020",3,1,"*",5,-1,754
2007-01-18,7,1,"left",1,2,29,"S1000",2,0,"*",4,1062,-1
2007-01-18,7,1,"left",1,2,30,"S0002",3,1,"*",5,-1,754
2007-01-18,7,1,"left",1,2,31,"S0001",2,1,"*",4,692,-1
2007-01-18,7,1,"left",1,2,32,"S2000",3,1,"*",7,-1,795
2007-01-18,7,1,"left",1,2,33,"S2000",3,0,"*",6,-1,1102
2007-01-18,7,1,"left",1,2,34,"S0010",2,1,"*",5,754,-1
2007-01-18,7,1,"left",1,2,35,"S1000",2,1,"*",4,774,-1
2007-01-18,7,1,"left",1,2,36,"S0200",2,1,"*",5,-1,753
2007-01-18,7,1,"left",1,2,37,"S0001",2,1,"*",4,898,-1
2007-01-18,7,1,"left",1,2,38,"S0002",2,1,"*",4,-1,672
2007-01-18,7,1,"left",1,2,39,"S0100",2,1,"*",3,815,-1
2007-01-18,7,1,"left",1,2,40,"S0020",2,1,"*",4,-1,734
2007-01-18,7,1,"left",1,2,41,"S1000",2,1,"*",2,836,-1
2007-01-18,7,1,"left",1,2,42,"S0020",3,0,"*",5,-1,1493
2007-01-18,7,1,"left",1,2,43,"S0002",2,2,"*",6,-1,697
2007-01-18,7,1,"left",1,2,44,"S0010",2,1,"*",5,796,-1
2007-01-18,7,1,"left",1,2,45,"S0100",2,1,"*",5,652,-1
2007-01-18,7,1,"left",1,2,46,"S0200",3,1,"*",8,-1,897
2007-01-18,7,1,"left",1,2,47,"S2000",3,2,"*",9,-1,651
2007-01-18,7,1,"left",1,2,48,"S0001",3,1,"*",10,795,-1
2007-01-18,7,1,"left",1,2,49,"S0010",3,2,"*",5,671,-1
2007-01-18,7,1,"left",1,2,50,"S0002",2,1,"*",6,-1,815
2007-01-18,7,1,"left",1,2,51,"S2000",3,1,"*",4,-1,857
2007-01-18,7,1,"left",1,2,52,"S0100",3,1,"*",9,774,-1
2007-01-18,7,1,"left",1,2,53,"S1000",3,1,"*",9,794,-1
2007-01-18,7,1,"left",1,2,54,"S0020",2,1,"*",5,-1,959
2007-01-18,7,1,"left",1,2,55,"S0200",2,1,"*",4,-1,816
2007-01-18,7,1,"left",1,2,56,"S0001",3,3,"*",9,548,-1
2007-01-18,7,1,"left",1,2,57,"S2000",2,1,"*",6,-1,774
2007-01-18,7,1,"left",1,2,58,"S0001",2,0,"*",2,1472,-1
2007-01-18,7,1,"left",1,2,59,"S0100",2,2,"*",6,588,-1
2007-01-18,7,1,"left",1,2,60,"S0200",3,0,"*",7,-1,1369
2007-01-18,7,1,"left",1,2,61,"S0010",2,1,"*",3,919,-1
2007-01-18,7,1,"left",1,2,62,"S0020",2,1,"*",7,-1,776
2007-01-18,7,1,"left",1,2,63,"S1000",2,1,"*",7,816,-1
2007-01-18,7,1,"left",1,2,64,"S0002",2,0,"*",3,-1,1062
2007-01-18,7,1,"left",2,1,1,"S3420",3,0,"*",1,4059,-1
2007-01-18,7,1,"left",2,1,2,"S3420",2,1,"*",5,716,-1
2007-01-18,7,1,"left",2,1,3,"S7860",3,1,"*",8,-1,841
2007-01-18,7,1,"left",2,1,4,"S3420",3,1,"*",6,757,-1
2007-01-18,7,1,"left",2,1,5,"S7860",3,1,"*",8,-1,778
2007-01-18,7,1,"left",2,1,6,"S7860",3,1,"*",9,-1,862
2007-01-18,7,1,"left",2,1,7,"S3420",3,0,"*",1,4634,-1
2007-01-18,7,1,"left",2,1,8,"S3420",2,0,"*",3,1416,-1
2007-01-18,7,1,"left",2,1,9,"S7860",2,1,"*",6,-1,717
2007-01-18,7,1,"left",2,1,10,"S3420",3,1,"*",8,760,-1
2007-01-18,7,1,"left",2,1,11,"S7860",2,2,"*",6,-1,718
2007-01-18,7,1,"left",2,1,12,"S3420",2,1,"*",6,799,-1
2007-01-18,7,1,"left",2,1,13,"S7860",3,2,"*",10,-1,698
2007-01-18,7,1,"left",2,1,14,"S3420",3,1,"*",4,697,-1
2007-01-18,7,1,"left",2,1,15,"S7860",2,1,"*",6,-1,759
2007-01-18,7,1,"left",2,1,16,"S7860",3,2,"*",8,-1,574
2007-01-18,7,1,"left",2,1,17,"S3420",2,0,"*",4,1024,-1
2007-01-18,7,1,"left",2,1,18,"S7860",3,1,"*",7,-1,943
2007-01-18,7,1,"left",2,1,19,"S3420",3,0,"*",1,3424,-1
2007-01-18,7,1,"left",2,1,20,"S7860",3,1,"*",7,-1,820
2007-01-18,7,1,"left",2,1,21,"S3420",2,1,"*",2,676,-1
2007-01-18,7,1,"left",2,1,22,"S3420",2,0,"*",2,1845,-1
2007-01-18,7,1,"left",2,1,23,"S7860",3,1,"*",8,-1,821
2007-01-18,7,1,"left",2,1,24,"S7860",2,1,"*",3,-1,1004
2007-01-18,7,1,"left",2,1,25,"S3420",3,0,"*",1,8018,-1
2007-01-18,7,1,"left",2,1,26,"S7860",2,1,"*",7,-1,800
2007-01-18,7,1,"left",2,1,27,"S3420",2,1,"*",3,779,-1
2007-01-18,7,1,"left",2,1,28,"S7860",3,2,"*",6,-1,738
2007-01-18,7,1,"left",2,1,29,"S7860",3,2,"*",11,-1,739
2007-01-18,7,1,"left",2,1,30,"S3420",2,0,"*",1,6133,-1
2007-01-18,7,1,"left",2,1,31,"S7860",2,0,"*",5,-1,1272
2007-01-18,7,1,"left",2,1,32,"S3420",2,2,"*",3,635,-1
2007-01-18,7,1,"left",3,1,1,"S7860",2,2,"*",7,-1,718
2007-01-18,7,1,"left",3,1,2,"S3420",2,1,"*",4,860,-1
2007-01-18,7,1,"left",3,1,3,"S7860",3,1,"*",2,-1,841
2007-01-18,7,1,"left",3,1,4,"S3420",2,0,"*",3,1230,-1
2007-01-18,7,1,"left",3,1,5,"S7860",2,1,"*",4,-1,635
2007-01-18,7,1,"left",3,1,6,"S3420",3,1,"*",5,821,-1
2007-01-18,7,1,"left",3,1,7,"S7860",3,2,"*",10,-1,718
2007-01-18,7,1,"left",3,1,8,"S7860",3,0,"*",4,-1,1660
2007-01-18,7,1,"left",3,1,9,"S3420",2,1,"*",2,697,-1
2007-01-18,7,1,"left",3,1,10,"S3420",3,0,"*",1,9003,-1
2007-01-18,7,1,"left",3,1,11,"S7860",2,1,"*",4,-1,963
2007-01-18,7,1,"left",3,1,12,"S3420",3,0,"*",1,3383,-1
2007-01-18,7,1,"left",3,1,13,"S7860",3,0,"*",5,-1,1188
2007-01-18,7,1,"left",3,1,14,"S3420",2,0,"*",1,5374,-1
2007-01-18,7,1,"left",3,1,15,"S3420",2,0,"*",1,7034,-1
2007-01-18,7,1,"left",3,1,16,"S7860",2,0,"*",2,-1,1275
2007-01-18,7,1,"left",3,1,17,"S3420",2,0,"*",1,6952,-1
2007-01-18,7,1,"left",3,1,18,"S7860",2,0,"*",1,-1,4347
2007-01-18,7,1,"left",3,1,19,"S7860",2,0,"*",1,-1,3179
2007-01-18,7,1,"left",3,1,20,"S3420",3,1,"*",5,983,-1
2007-01-18,7,1,"left",3,2,1,"S7860",2,0,"R",1,-1,3467
2007-01-18,7,1,"left",3,2,2,"S3420",3,0,"*",1,7997,-1
2007-01-18,7,1,"left",3,2,3,"S7860",2,0,"R",1,-1,1067
2007-01-18,7,1,"left",3,2,4,"S3420",3,0,"*",1,5700,-1
2007-01-18,7,1,"left",3,2,5,"S3460",3,0,"L",1,1722,-1
2007-01-18,7,1,"left",3,2,6,"S7860",3,1,"*",6,-1,696
2007-01-18,7,1,"left",3,2,7,"S3820",2,0,"L",1,3323,-1
2007-01-18,7,1,"left",3,2,8,"S7860",2,1,"*",6,-1,1004
2007-01-18,7,1,"left",3,2,9,"S3860",3,0,"R",1,-1,698
2007-01-18,7,1,"left",3,2,10,"S3420",2,0,"*",4,1085,-1
2007-01-18,7,1,"left",3,2,11,"S3420",2,1,"*",2,656,-1
2007-01-18,7,1,"left",3,2,12,"S3860",2,0,"R",1,-1,1149
2007-01-18,7,1,"left",3,2,13,"S7860",2,1,"*",6,-1,799
2007-01-18,7,1,"left",3,2,14,"S7860",2,1,"*",3,-1,964
2007-01-18,7,1,"left",3,2,15,"S3420",2,0,"L",1,903,-1
2007-01-18,7,1,"left",3,2,16,"S3420",2,1,"*",6,779,-1
2007-01-18,7,1,"left",3,2,17,"S7860",2,2,"*",5,-1,718
2007-01-18,7,1,"left",3,2,18,"S3420",3,0,"*",1,6151,-1
2007-01-18,7,1,"left",3,2,19,"S3420",2,1,"*",2,1005,-1
2007-01-18,7,1,"left",3,2,20,"S7420",2,0,"L",1,6276,-1
2007-01-18,7,1,"left",3,2,21,"S7860",3,0,"*",7,-1,1332
2007-01-18,7,1,"left",3,2,22,"S7860",2,1,"*",4,-1,943
2007-01-18,7,1,"left",3,2,23,"S7820",3,0,"R",1,-1,1129
2007-01-18,7,1,"left",3,2,24,"S7860",2,1,"*",6,-1,839
2007-01-18,7,1,"left",3,2,25,"S3460",2,0,"L",1,677,-1
2007-01-18,7,1,"left",3,2,26,"S7860",2,1,"*",4,-1,757
2007-01-18,7,1,"left",3,2,27,"S3420",3,1,"*",5,697,-1
2007-01-18,7,1,"left",3,2,28,"S7860",2,1,"*",5,-1,963
2007-01-18,7,1,"left",3,2,29,"S7420",3,0,"L",1,779,-1
2007-01-18,7,1,"left",3,2,30,"S3420",3,0,"*",6,1086,-1
2007-01-18,7,1,"left",3,2,31,"S3420",3,1,"*",8,819,-1
2007-01-18,7,1,"left",3,2,32,"S7820",2,0,"R",1,-1,758
2007-01-18,7,1,"left",3,2,33,"S7860",3,2,"*",12,-1,738
2007-01-18,7,1,"left",3,2,34,"S7460",3,0,"R",1,-1,964
2007-01-18,7,1,"left",3,2,35,"S3420",2,0,"*",3,1538,-1
2007-01-18,7,1,"left",3,2,36,"S3820",3,0,"L",1,943,-1
2007-01-18,7,1,"left",3,2,37,"S7860",2,2,"*",5,-1,698
2007-01-18,7,1,"left",3,2,38,"S7460",3,0,"L",1,9270,-1
2007-01-18,7,1,"left",3,2,39,"S3420",2,0,"*",1,8081,-1
2007-01-18,7,1,"left",3,2,40,"S3420",2,0,"L",1,6255,-1
2007-01-18,8,4,"left",1,1,1,"S0100",3,0,"*",2,1228,-1
2007-01-18,8,4,"left",1,1,2,"S0001",2,0,"+",1,18946,1760
2007-01-18,8,4,"left",1,1,3,"S0002",3,0,"+",1,2274,20139
2007-01-18,8,4,"left",1,1,4,"S0020",3,0,"*",2,2520,1577
2007-01-18,8,4,"left",1,1,5,"S1000",3,1,"*",3,756,-1
2007-01-18,8,4,"left",1,1,6,"S0010",2,0,"+",1,15398,940
2007-01-18,8,4,"left",1,1,7,"S0200",3,0,"+",1,1022,8757
2007-01-18,8,4,"left",1,1,8,"S2000",3,0,"*",2,2519,1802
2007-01-18,8,4,"left",1,1,9,"S0100",2,0,"+",1,4303,3667
2007-01-18,8,4,"left",1,1,10,"S0002",3,0,"+",3,960,1617
2007-01-18,8,4,"left",1,1,11,"S0010",2,0,"+",1,2518,1616
2007-01-18,8,4,"left",1,1,12,"S2000",2,0,"*",1,-1,2436
2007-01-18,8,4,"left",1,1,13,"S1000",2,0,"+",1,2231,940
2007-01-18,8,4,"left",1,1,14,"S0020",2,0,"+",1,1330,2212
2007-01-18,8,4,"left",1,1,15,"S0001",3,0,"+",2,2744,1575
2007-01-18,8,4,"left",1,1,16,"S0200",3,0,"+",1,1267,8486
2007-01-18,8,4,"left",1,1,17,"S0010",3,0,"+",1,4365,1186
2007-01-18,8,4,"left",1,1,18,"S0001",3,0,"*",1,3688,-1
2007-01-18,8,4,"left",1,1,19,"S0020",2,1,"*",2,1720,838
2007-01-18,8,4,"left",1,1,20,"S1000",3,1,"*",3,1001,-1
2007-01-18,8,4,"left",1,1,21,"S2000",2,0,"+",1,2601,10086
2007-01-18,8,4,"left",1,1,22,"S0100",2,0,"+",1,2929,1329
2007-01-18,8,4,"left",1,1,23,"S0002",2,0,"*",1,-1,2990
2007-01-18,8,4,"left",1,1,24,"S0200",2,0,"+",1,1781,3380
2007-01-18,8,4,"left",1,1,25,"S0100",3,0,"+",2,2252,1063
2007-01-18,8,4,"left",1,1,26,"S0200",2,0,"*",1,-1,3995
2007-01-18,8,4,"left",1,1,27,"S0001",3,0,"*",2,1022,-1
2007-01-18,8,4,"left",1,1,28,"S0020",3,0,"*",2,-1,1288
2007-01-18,8,4,"left",1,1,29,"S2000",2,0,"+",1,2005,6990
2007-01-18,8,4,"left",1,1,30,"S1000",2,0,"+",1,13162,11727
2007-01-18,8,4,"left",1,1,31,"S0010",3,0,"+",1,6808,3159
2007-01-18,8,4,"left",1,1,32,"S0002",3,0,"*",2,-1,2108
2007-01-18,8,4,"left",1,1,33,"S2000",3,0,"*",1,-1,4180
2007-01-18,8,4,"left",1,1,34,"S0001",2,0,"+",1,10354,1720
2007-01-18,8,4,"left",1,1,35,"S0010",2,0,"+",1,4631,1124
2007-01-18,8,4,"left",1,1,36,"S0002",2,0,"*",2,2642,1267
2007-01-18,8,4,"left",1,1,37,"S1000",2,0,"*",1,2661,-1
2007-01-18,8,4,"left",1,1,38,"S0200",2,0,"+",1,2744,8383
2007-01-18,8,4,"left",1,1,39,"S0020",2,0,"*",1,-1,3217
2007-01-18,8,4,"left",1,1,40,"S0100",2,0,"+",1,8404,2396
2007-01-18,8,4,"left",1,1,41,"S1000",2,0,"*",2,1165,-1
2007-01-18,8,4,"left",1,1,42,"S0020",2,0,"+",1,1165,6537
2007-01-18,8,4,"left",1,1,43,"S0100",3,0,"+",1,5102,2970
2007-01-18,8,4,"left",1,1,44,"S0200",2,0,"+",1,3359,5411
2007-01-18,8,4,"left",1,1,45,"S0002",3,0,"*",2,-1,1637
2007-01-18,8,4,"left",1,1,46,"S0010",3,0,"+",1,7523,3359
2007-01-18,8,4,"left",1,1,47,"S2000",2,0,"*",2,-1,1657
2007-01-18,8,4,"left",1,1,48,"S0001",2,0,"+",1,4672,1554
2007-01-18,8,4,"left",1,1,49,"S0100",3,0,"*",2,2191,-1
2007-01-18,8,4,"left",1,1,50,"S0002",2,0,"+",1,3565,13982
2007-01-18,8,4,"left",1,1,51,"S0200",2,0,"*",1,-1,2560
2007-01-18,8,4,"left",1,1,52,"S0001",2,0,"*",1,2867,-1
2007-01-18,8,4,"left",1,1,53,"S0020",3,0,"*",2,-1,2292
2007-01-18,8,4,"left",1,1,54,"S0010",3,0,"+",1,8158,1800
2007-01-18,8,4,"left",1,1,55,"S2000",2,0,"+",1,3257,4365
2007-01-18,8,4,"left",1,1,56,"S1000",2,0,"*",2,1534,-1
2007-01-18,8,4,"left",1,1,57,"S2000",3,0,"*",1,-1,4096
2007-01-18,8,4,"left",1,1,58,"S0001",3,0,"+",1,8322,1514
2007-01-18,8,4,"left",1,1,59,"S0200",3,0,"+",1,8177,9449
2007-01-18,8,4,"left",1,1,60,"S1000",3,0,"*",2,1472,-1
2007-01-18,8,4,"left",1,1,61,"S0020",2,0,"*",2,-1,1820
2007-01-18,8,4,"left",1,1,62,"S0002",2,0,"*",1,-1,2886
2007-01-18,8,4,"left",1,1,63,"S0010",3,0,"+",1,3645,1287
2007-01-18,8,4,"left",1,1,64,"S0100",2,0,"+",1,3932,1061
2007-01-18,8,4,"left",1,2,1,"S0001",3,0,"*",1,13654,-1
2007-01-18,8,4,"left",1,2,2,"S0002",2,0,"*",1,-1,2168
2007-01-18,8,4,"left",1,2,3,"S0200",2,0,"+",1,1800,2785
2007-01-18,8,4,"left",1,2,4,"S0100",2,1,"*",3,712,-1
2007-01-18,8,4,"left",1,2,5,"S2000",2,0,"*",3,-1,1204
2007-01-18,8,4,"left",1,2,6,"S1000",2,1,"*",2,835,-1
2007-01-18,8,4,"left",1,2,7,"S0010",3,0,"*",3,1327,-1
2007-01-18,8,4,"left",1,2,8,"S0020",3,0,"*",2,-1,1532
2007-01-18,8,4,"left",1,2,9,"S0002",3,0,"*",2,-1,2517
2007-01-18,8,4,"left",1,2,10,"S1000",2,0,"*",1,2045,-1
2007-01-18,8,4,"left",1,2,11,"S0200",3,0,"+",1,1470,9674
2007-01-18,8,4,"left",1,2,12,"S0100",2,0,"*",2,1450,-1
2007-01-18,8,4,"left",1,2,13,"S0001",3,0,"*",3,1328,-1
2007-01-18,8,4,"left",1,2,14,"S0020",2,0,"+",1,2209,8689
2007-01-18,8,4,"left",1,2,15,"S2000",3,0,"*",1,-1,3808
2007-01-18,8,4,"left",1,2,16,"S0010",2,0,"*",3,1122,-1
2007-01-18,8,4,"left",1,2,17,"S0020",2,0,"*",2,-1,1182
2007-01-18,8,4,"left",1,2,18,"S0200",2,0,"+",1,2721,9674
2007-01-18,8,4,"left",1,2,19,"S0010",3,0,"+",1,7970,6761
2007-01-18,8,4,"left",1,2,20,"S2000",2,0,"*",2,-1,1676
2007-01-18,8,4,"left",1,2,21,"S0100",3,0,"+",1,5039,3460
2007-01-18,8,4,"left",1,2,22,"S0001",2,0,"+",1,8607,7069
2007-01-18,8,4,"left",1,2,23,"S0002",2,0,"*",1,-1,4156
2007-01-18,8,4,"left",1,2,24,"S1000",2,0,"*",1,4157,-1
2007-01-18,8,4,"left",1,2,25,"S2000",3,0,"*",2,-1,2455
2007-01-18,8,4,"left",1,2,26,"S1000",2,0,"*",2,1224,3726
2007-01-18,8,4,"left",1,2,27,"S0002",3,0,"*",4,-1,1080
2007-01-18,8,4,"left",1,2,28,"S0010",2,0,"*",1,3644,-1
2007-01-18,8,4,"left",1,2,29,"S0001",3,0,"+",1,11068,2804
2007-01-18,8,4,"left",1,2,30,"S0020",3,0,"*",1,-1,8956
2007-01-18,8,4,"left",1,2,31,"S0100",2,0,"+",1,7233,1040
2007-01-18,8,4,"left",1,2,32,"S0200",3,0,"*",1,-1,6187
2007-01-18,8,4,"left",1,2,33,"S0020",3,0,"*",2,-1,2454
2007-01-18,8,4,"left",1,2,34,"S0100",3,0,"*",3,1593,-1
2007-01-18,8,4,"left",1,2,35,"S1000",3,0,"*",1,3900,-1
2007-01-18,8,4,"left",1,2,36,"S0002",2,0,"+",1,1450,6351
2007-01-18,8,4,"left",1,2,37,"S2000",3,0,"*",2,-1,1511
2007-01-18,8,4,"left",1,2,38,"S0010",2,0,"*",1,2290,-1
2007-01-18,8,4,"left",1,2,39,"S0001",3,0,"*",3,1900,-1
2007-01-18,8,4,"left",1,2,40,"S0200",2,0,"*",1,-1,2187
2007-01-18,8,4,"left",1,2,41,"S0002",2,0,"*",2,-1,1593
2007-01-18,8,4,"left",1,2,42,"S1000",3,0,"*",2,1900,-1
2007-01-18,8,4,"left",1,2,43,"S0100",3,0,"*",5,1146,-1
2007-01-18,8,4,"left",1,2,44,"S0020",3,0,"*",5,-1,1369
2007-01-18,8,4,"left",1,2,45,"S2000",2,0,"+",1,1922,6619
2007-01-18,8,4,"left",1,2,46,"S0001",2,0,"*",3,1039,-1
2007-01-18,8,4,"left",1,2,47,"S0010",3,0,"*",4,2189,-1
2007-01-18,8,4,"left",1,2,48,"S0200",2,0,"*",1,-1,2315
2007-01-18,8,4,"left",1,2,49,"S1000",3,0,"*",6,1244,-1
2007-01-18,8,4,"left",1,2,50,"S0002",3,0,"*",4,-1,2270
2007-01-18,8,4,"left",1,2,51,"S0010",3,0,"*",1,3500,-1
2007-01-18,8,4,"left",1,2,52,"S0020",3,0,"*",2,-1,2126
2007-01-18,8,4,"left",1,2,53,"S2000",3,0,"*",3,-1,2044
2007-01-18,8,4,"left",1,2,54,"S0100",3,0,"*",1,4074,-1
2007-01-18,8,4,"left",1,2,55,"S0001",2,0,"+",1,7438,2762
2007-01-18,8,4,"left",1,2,56,"S0200",2,0,"*",1,-1,4239
2007-01-18,8,4,"left",1,2,57,"S0020",3,0,"*",2,-1,1859
2007-01-18,8,4,"left",1,2,58,"S1000",2,0,"*",1,3007,-1
2007-01-18,8,4,"left",1,2,59,"S0200",3,0,"*",3,-1,1490
2007-01-18,8,4,"left",1,2,60,"S0002",2,0,"*",1,-1,3460
2007-01-18,8,4,"left",1,2,61,"S0100",2,0,"*",1,2045,-1
2007-01-18,8,4,"left",1,2,62,"S0010",3,0,"*",2,2415,-1
2007-01-18,8,4,"left",1,2,63,"S2000",3,0,"*",2,-1,3007
2007-01-18,8,4,"left",1,2,64,"S0001",2,0,"*",2,1757,-1
2007-01-18,8,4,"left",2,1,1,"S7650",3,0,"*",2,-1,2911
2007-01-18,8,4,"left",2,1,2,"S7650",2,0,"*",2,-1,1679
2007-01-18,8,4,"left",2,1,3,"S3210",2,0,"*",2,1660,-1
2007-01-18,8,4,"left",2,1,4,"S7650",2,0,"*",1,-1,2437
2007-01-18,8,4,"left",2,1,5,"S3210",2,0,"*",1,2748,-1
2007-01-18,8,4,"left",2,1,6,"S7650",2,0,"*",1,-1,3198
2007-01-18,8,4,"left",2,1,7,"S3210",3,0,"*",4,1824,-1
2007-01-18,8,4,"left",2,1,8,"S7650",3,0,"*",1,-1,3217
2007-01-18,8,4,"left",2,1,9,"S3210",3,0,"*",5,1023,-1
2007-01-18,8,4,"left",2,1,10,"S3210",2,0,"*",2,1516,-1
2007-01-18,8,4,"left",2,1,11,"S7650",3,0,"*",1,-1,4982
2007-01-18,8,4,"left",2,1,12,"S3210",2,1,"*",2,861,-1
2007-01-18,8,4,"left",2,1,13,"S3210",3,0,"*",2,2214,-1
2007-01-18,8,4,"left",2,1,14,"S7650",3,0,"*",3,-1,1474
2007-01-18,8,4,"left",2,1,15,"S3210",3,0,"*",2,2790,-1
2007-01-18,8,4,"left",2,1,16,"S7650",3,0,"*",1,-1,6110
2007-01-18,8,4,"left",2,1,17,"S7650",3,0,"*",3,-1,1865
2007-01-18,8,4,"left",2,1,18,"S3210",2,0,"*",2,2009,-1
2007-01-18,8,4,"left",2,1,19,"S7650",3,0,"*",2,-1,2377
2007-01-18,8,4,"left",2,1,20,"S3210",2,0,"*",2,1578,-1
2007-01-18,8,4,"left",2,1,21,"S7650",3,0,"*",3,-1,1394
2007-01-18,8,4,"left",2,1,22,"S7650",3,0,"*",4,-1,1681
2007-01-18,8,4,"left",2,1,23,"S3210",2,0,"*",1,3855,-1
2007-01-18,8,4,"left",2,1,24,"S3210",2,0,"*",2,1352,-1
2007-01-18,8,4,"left",2,1,25,"S7650",3,0,"*",4,-1,1496
2007-01-18,8,4,"left",2,1,26,"S7650",2,0,"*",2,-1,1312
2007-01-18,8,4,"left",2,1,27,"S3210",3,0,"*",4,1599,-1
2007-01-18,8,4,"left",2,1,28,"S7650",3,0,"*",3,-1,1784
2007-01-18,8,4,"left",2,1,29,"S3210",3,1,"*",7,983,-1
2007-01-18,8,4,"left",2,1,30,"S7650",3,0,"*",1,-1,3937
2007-01-18,8,4,"left",2,1,31,"S3210",3,0,"*",1,3506,-1
2007-01-18,8,4,"left",2,1,32,"S3210",2,0,"*",1,5885,-1
2007-01-18,8,4,"left",3,1,1,"S3210",3,0,"*",1,3116,-1
2007-01-18,8,4,"left",3,1,2,"S7650",3,0,"*",2,-1,2172
2007-01-18,8,4,"left",3,1,3,"S3210",3,0,"*",2,2850,-1
2007-01-18,8,4,"left",3,1,4,"S7650",2,0,"*",1,-1,2483
2007-01-18,8,4,"left",3,1,5,"S7650",3,0,"*",1,-1,4346
2007-01-18,8,4,"left",3,1,6,"S3210",2,1,"*",3,820,-1
2007-01-18,8,4,"left",3,1,7,"S3210",2,0,"*",3,1024,-1
2007-01-18,8,4,"left",3,1,8,"S7650",2,0,"*",1,-1,3180
2007-01-18,8,4,"left",3,1,9,"S7650",3,0,"*",3,-1,2296
2007-01-18,8,4,"left",3,1,10,"S3210",3,0,"*",1,4306,-1
2007-01-18,8,4,"left",3,1,11,"S7650",3,0,"*",1,-1,4286
2007-01-18,8,4,"left",3,1,12,"S3210",2,0,"*",1,3363,-1
2007-01-18,8,4,"left",3,1,13,"S7650",2,0,"*",1,-1,3629
2007-01-18,8,4,"left",3,1,14,"S3210",2,0,"*",1,5392,-1
2007-01-18,8,4,"left",3,1,15,"S3210",3,0,"*",1,3219,-1
2007-01-18,8,4,"left",3,1,16,"S7650",3,0,"*",5,-1,1189
2007-01-18,8,4,"left",3,1,17,"S3210",3,0,"*",4,1742,-1
2007-01-18,8,4,"left",3,1,18,"S7650",2,0,"*",1,-1,3076
2007-01-18,8,4,"left",3,1,19,"S3210",2,0,"*",1,3116,-1
2007-01-18,8,4,"left",3,1,20,"S7650",2,0,"*",1,-1,3712
2007-01-18,8,4,"left",3,2,1,"S3210",3,0,"*",3,2399,-1
2007-01-18,8,4,"left",3,2,2,"S7610",2,0,"R",1,-1,4308
2007-01-18,8,4,"left",3,2,3,"S7650",3,0,"*",1,-1,4286
2007-01-18,8,4,"left",3,2,4,"S3210",2,0,"*",1,4018,-1
2007-01-18,8,4,"left",3,2,5,"S7250",3,0,"L",1,3918,-1
2007-01-18,8,4,"left",3,2,6,"S3210",3,0,"*",1,3752,-1
2007-01-18,8,4,"left",3,2,7,"S7250",3,0,"L",1,3347,-1
2007-01-18,8,4,"left",3,2,8,"S7650",3,0,"*",2,-1,2501
2007-01-18,8,4,"left",3,2,9,"S3210",3,0,"*",1,3240,-1
2007-01-18,8,4,"left",3,2,10,"S3610",3,0,"R",1,-1,6850
2007-01-18,8,4,"left",3,2,11,"S3210",2,0,"+",1,9270,6336
2007-01-18,8,4,"left",3,2,12,"S3250",2,0,"L",1,2522,-1
2007-01-18,8,4,"left",3,2,13,"S7650",3,0,"*",2,-1,2542
2007-01-18,8,4,"left",3,2,14,"S7650",2,0,"*",1,-1,3035
2007-01-18,8,4,"left",3,2,15,"S7650",3,0,"R",1,-1,2625
2007-01-18,8,4,"left",3,2,16,"S7650",2,0,"*",1,-1,3036
2007-01-18,8,4,"left",3,2,17,"S7210",3,0,"L",1,1375,-1
2007-01-18,8,4,"left",3,2,18,"S3210",2,0,"*",1,2481,-1
2007-01-18,8,4,"left",3,2,19,"S3650",3,0,"R",1,-1,2870
2007-01-18,8,4,"left",3,2,20,"S3210",3,0,"*",2,2460,-1
2007-01-18,8,4,"left",3,2,21,"S3610",3,0,"R",1,-1,1395
2007-01-18,8,4,"left",3,2,22,"S7650",3,0,"*",4,-1,1824
2007-01-18,8,4,"left",3,2,23,"S3210",3,0,"L",1,2092,-1
2007-01-18,8,4,"left",3,2,24,"S3210",3,0,"*",1,3219,-1
2007-01-18,8,4,"left",3,2,25,"S7650",3,0,"*",2,-1,2603
2007-01-18,8,4,"left",3,2,26,"S3650",3,0,"R",1,-1,1723
2007-01-18,8,4,"left",3,2,27,"S7650",2,0,"*",2,-1,1393
2007-01-18,8,4,"left",3,2,28,"S7650",3,0,"*",2,-1,2255
2007-01-18,8,4,"left",3,2,29,"S7650",2,0,"R",1,-1,2114
2007-01-18,8,4,"left",3,2,30,"S3210",2,0,"*",1,2871,-1
2007-01-18,8,4,"left",3,2,31,"S3210",3,0,"*",1,3423,-1
2007-01-18,8,4,"left",3,2,32,"S7210",2,0,"L",1,3486,-1
2007-01-18,8,4,"left",3,2,33,"S3210",2,0,"*",1,2933,-1
2007-01-18,8,4,"left",3,2,34,"S3250",3,0,"L",1,2708,-1
2007-01-18,8,4,"left",3,2,35,"S7650",3,0,"*",3,-1,1968
2007-01-18,8,4,"left",3,2,36,"S3210",3,0,"*",2,2768,-1
2007-01-18,8,4,"left",3,2,37,"S3210",3,0,"L",1,2666,-1
2007-01-18,8,4,"left",3,2,38,"S7650",3,0,"*",1,-1,3117
2007-01-18,8,4,"left",3,2,39,"S7610",3,0,"R",1,-1,1702
2007-01-18,8,4,"left",3,2,40,"S7650",2,0,"*",1,-1,2584
2007-01-18,9,4,"right",1,1,1,"S0200",3,0,"*",1,16733,-1
2007-01-18,9,4,"right",1,1,2,"S0010",3,0,"+",1,3220,33284
2007-01-18,9,4,"right",1,1,3,"S0002",3,0,"*",1,3137,-1
2007-01-18,9,4,"right",1,1,4,"S1000",2,0,"+",1,2068,35147
2007-01-18,9,4,"right",1,1,5,"S2000",2,0,"+",1,11093,1126
2007-01-18,9,4,"right",1,1,6,"S0020",3,0,"+",1,23072,2417
2007-01-18,9,4,"right",1,1,7,"S0001",3,0,"+",1,8142,11280
2007-01-18,9,4,"right",1,1,8,"S0100",2,0,"+",1,2458,10025
2007-01-18,9,4,"right",1,1,9,"S0020",3,0,"+",1,18191,1146
2007-01-18,9,4,"right",1,1,10,"S0010",2,0,"*",2,3791,1494
2007-01-18,9,4,"right",1,1,11,"S0100",3,0,"*",6,-1,1288
2007-01-18,9,4,"right",1,1,12,"S2000",2,0,"*",2,1248,-1
2007-01-18,9,4,"right",1,1,13,"S0001",2,0,"+",1,1554,9347
2007-01-18,9,4,"right",1,1,14,"S0200",2,0,"*",2,1185,-1
2007-01-18,9,4,"right",1,1,15,"S0002",2,0,"+",1,7051,2724
2007-01-18,9,4,"right",1,1,16,"S1000",2,0,"+",1,1206,5676
2007-01-18,9,4,"right",1,1,17,"S0020",2,0,"*",2,1740,12670
2007-01-18,9,4,"right",1,1,18,"S0010",3,0,"*",1,-1,6418
2007-01-18,9,4,"right",1,1,19,"S2000",3,0,"*",1,6702,-1
2007-01-18,9,4,"right",1,1,20,"S0100",3,0,"+",1,3954,22637
2007-01-18,9,4,"right",1,1,21,"S1000",3,0,"+",1,1575,32337
2007-01-18,9,4,"right",1,1,22,"S0002",3,0,"*",1,3749,-1
2007-01-18,9,4,"right",1,1,23,"S0001",3,0,"*",2,-1,1186
2007-01-18,9,4,"right",1,1,24,"S0200",3,0,"+",1,4181,1432
2007-01-18,9,4,"right",1,1,25,"S0020",2,1,"*",2,960,3893
2007-01-18,9,4,"right",1,1,26,"S1000",3,0,"*",2,-1,1104
2007-01-18,9,4,"right",1,1,27,"S0001",3,0,"*",2,-1,1185
2007-01-18,9,4,"right",1,1,28,"S0200",2,0,"*",2,1083,-1
2007-01-18,9,4,"right",1,1,29,"S0010",2,1,"*",2,-1,859
2007-01-18,9,4,"right",1,1,30,"S2000",2,0,"+",1,10210,900
2007-01-18,9,4,"right",1,1,31,"S0002",3,0,"*",2,1164,-1
2007-01-18,9,4,"right",1,1,32,"S0100",3,1,"*",5,-1,960
2007-01-18,9,4,"right",1,1,33,"S1000",2,0,"+",1,1082,19868
2007-01-18,9,4,"right",1,1,34,"S0020",3,0,"*",1,4918,-1
2007-01-18,9,4,"right",1,1,35,"S0100",2,0,"*",3,-1,1247
2007-01-18,9,4,"right",1,1,36,"S0200",2,1,"*",4,980,-1
2007-01-18,9,4,"right",1,1,37,"S0001",3,0,"*",4,-1,1288
2007-01-18,9,4,"right",1,1,38,"S0010",2,0,"*",3,-1,1083
2007-01-18,9,4,"right",1,1,39,"S0002",2,0,"*",3,1554,-1
2007-01-18,9,4,"right",1,1,40,"S2000",3,1,"*",5,919,-1
2007-01-18,9,4,"right",1,1,41,"S0010",3,0,"*",6,-1,1042
