"","cond","subj","phase","block","trial","stim","resp","rt","rtiti"
"1","load",1002,"prac",0,1,98,"A",2352,7050
"2","load",1002,"prac",0,2,99,"B",1116,4845
"3","load",1002,"prac",0,3,99,"B",5532,3829
"4","load",1002,"prac",0,4,99,"B",4227,2792
"5","load",1002,"prac",0,5,98,"A",919,2962
"6","load",1002,"prac",0,6,99,"B",1419,1786
"7","load",1002,"prac",0,7,98,"A",414,3712
"8","load",1002,"prac",0,8,98,"A",1502,4525
"9","load",1002,"prac",0,9,98,"A",864,1629
"10","load",1002,"prac",0,10,99,"B",3293,1629
"11","load",1002,"exp",1,1,10,"B",590,9819
"12","load",1002,"exp",1,2,3,"B",552,7227
"13","load",1002,"exp",1,3,4,"A",1222,6377
"14","load",1002,"exp",1,4,9,"B",366,7079
"15","load",1002,"exp",1,5,8,"B",1463,3824
"16","load",1002,"exp",1,6,6,"B",4259,4733
"17","load",1002,"exp",1,7,1,"A",768,4634
"18","load",1002,"exp",1,8,5,"B",1710,5224
"19","load",1002,"exp",1,9,2,"A",2748,3515
"20","load",1002,"exp",1,10,7,"B",3504,3515
"21","load",1002,"exp",2,1,3,"B",757,7775
"22","load",1002,"exp",2,2,2,"A",1025,5872
"23","load",1002,"exp",2,3,10,"B",1567,6460
"24","load",1002,"exp",2,4,9,"B",539,3894
"25","load",1002,"exp",2,5,4,"A",1021,5387
"26","load",1002,"exp",2,6,6,"B",743,3452
"27","load",1002,"exp",2,7,5,"A",1702,2990
"28","load",1002,"exp",2,8,1,"A",890,2239
"29","load",1002,"exp",2,9,7,"B",550,3591
"30","load",1002,"exp",2,10,8,"B",3080,3591
"31","load",1002,"exp",3,1,6,"B",489,3837
"32","load",1002,"exp",3,2,4,"A",607,5419
"33","load",1002,"exp",3,3,3,"B",329,2523
"34","load",1002,"exp",3,4,8,"B",876,1533
"35","load",1002,"exp",3,5,7,"B",1223,6029
"36","load",1002,"exp",3,6,2,"A",958,3042
"37","load",1002,"exp",3,7,1,"A",717,14636
"38","load",1002,"exp",3,8,9,"B",759,2834
"39","load",1002,"exp",3,9,10,"B",594,1674
"40","load",1002,"exp",3,10,5,"A",3307,1674
"41","load",1002,"exp",4,1,9,"B",1134,2692
"42","load",1002,"exp",4,2,1,"A",2939,2939
"43","load",1002,"exp",4,3,4,"A",974,9748
"44","load",1002,"exp",4,4,10,"B",623,10365
"45","load",1002,"exp",4,5,8,"B",2605,4471
"46","load",1002,"exp",4,6,2,"A",1285,3864
"47","load",1002,"exp",4,7,5,"A",2414,5749
"48","load",1002,"exp",4,8,6,"B",442,3079
"49","load",1002,"exp",4,9,7,"B",1047,6891
"50","load",1002,"exp",4,10,3,"A",1046,6891
"51","load",1002,"exp",5,1,2,"A",225,5149
"52","load",1002,"exp",5,2,7,"B",55,5729
"53","load",1002,"exp",5,3,9,"B",1947,3108
"54","load",1002,"exp",5,4,10,"B",506,2595
"55","load",1002,"exp",5,5,1,"A",1876,9180
"56","load",1002,"exp",5,6,8,"A",1853,4293
"57","load",1002,"exp",5,7,6,"B",381,2936
"58","load",1002,"exp",5,8,5,"A",908,3318
"59","load",1002,"exp",5,9,4,"A",860,2315
"60","load",1002,"exp",5,10,3,"A",201,2315
"61","load",1002,"exp",6,1,2,"A",1212,3075
"62","load",1002,"exp",6,2,4,"A",915,2012
"63","load",1002,"exp",6,3,6,"B",331,2349
"64","load",1002,"exp",6,4,8,"B",828,3652
"65","load",1002,"exp",6,5,9,"B",2975,7523
"66","load",1002,"exp",6,6,1,"A",651,4669
"67","load",1002,"exp",6,7,7,"B",873,2233
"68","load",1002,"exp",6,8,3,"A",1568,6201
"69","load",1002,"exp",6,9,5,"B",59,1513
"70","load",1002,"exp",6,10,10,"B",898,1513
"71","load",1002,"exp",7,1,7,"B",427,2308
"72","load",1002,"exp",7,2,9,"B",682,4101
"73","load",1002,"exp",7,3,8,"B",720,2595
"74","load",1002,"exp",7,4,4,"A",1003,2935
"75","load",1002,"exp",7,5,2,"A",488,1964
"76","load",1002,"exp",7,6,5,"A",1731,3364
"77","load",1002,"exp",7,7,10,"B",753,4585
"78","load",1002,"exp",7,8,1,"B",1709,3749
"79","load",1002,"exp",7,9,3,"B",1439,2884
"80","load",1002,"exp",7,10,6,"B",427,2884
"81","load",1002,"exp",8,1,2,"A",307,4212
"82","load",1002,"exp",8,2,5,"A",389,3033
"83","load",1002,"exp",8,3,9,"B",542,3099
"84","load",1002,"exp",8,4,8,"B",1189,3751
"85","load",1002,"exp",8,5,7,"B",4008,3089
"86","load",1002,"exp",8,6,4,"A",392,2718
"87","load",1002,"exp",8,7,10,"B",381,2524
"88","load",1002,"exp",8,8,6,"A",1149,5077
"89","load",1002,"exp",8,9,3,"A",469,3140
"90","load",1002,"exp",8,10,1,"A",860,3140
"91","load",1002,"exp",9,1,1,"A",997,2048
"92","load",1002,"exp",9,2,7,"B",73,1945
"93","load",1002,"exp",9,3,9,"B",1251,3092
"94","load",1002,"exp",9,4,3,"B",1580,4410
"95","load",1002,"exp",9,5,2,"A",741,1001
"96","load",1002,"exp",9,6,6,"B",1659,2282
"97","load",1002,"exp",9,7,5,"A",1099,2887
"98","load",1002,"exp",9,8,8,"B",1331,2385
"99","load",1002,"exp",9,9,4,"A",149,2772
"100","load",1002,"exp",9,10,10,"B",751,2772
"101","load",1002,"exp",10,1,8,"B",536,2709
"102","load",1002,"exp",10,2,3,"B",1434,3436
"103","load",1002,"exp",10,3,6,"B",1135,2420
"104","load",1002,"exp",10,4,9,"B",1195,2012
"105","load",1002,"exp",10,5,2,"A",1166,1867
"106","load",1002,"exp",10,6,4,"A",843,1843
"107","load",1002,"exp",10,7,5,"A",995,14477
"108","load",1002,"exp",10,8,10,"B",636,2958
"109","load",1002,"exp",10,9,1,"A",397,1834
"110","load",1002,"exp",10,10,7,"B",390,1834
"111","load",1002,"exp",11,1,9,"B",649,1581
"112","load",1002,"exp",11,2,7,"B",637,1822
"113","load",1002,"exp",11,3,3,"B",1549,2551
"114","load",1002,"exp",11,4,5,"A",966,1624
"115","load",1002,"exp",11,5,6,"B",619,1402
"116","load",1002,"exp",11,6,10,"B",176,4581
"117","load",1002,"exp",11,7,4,"B",1637,2352
"118","load",1002,"exp",11,8,8,"A",1389,2392
"119","load",1002,"exp",11,9,1,"A",2493,2102
"120","load",1002,"exp",11,10,2,"A",38,2102
"121","load",1002,"exp",12,1,1,"A",465,1968
"122","load",1002,"exp",12,2,9,"B",2195,6574
"123","load",1002,"exp",12,3,8,"B",452,3634
"124","load",1002,"exp",12,4,7,"B",1322,3526
"125","load",1002,"exp",12,5,3,"A",394,2779
"126","load",1002,"exp",12,6,2,"A",626,3537
"127","load",1002,"exp",12,7,5,"B",1037,3036
"128","load",1002,"exp",12,8,4,"A",1223,1311
"129","load",1002,"exp",12,9,6,"B",410,3518
"130","load",1002,"exp",12,10,10,"A",158,3518
"131","load",1003,"prac",0,1,99,"B",2903,22352
"132","load",1003,"prac",0,2,99,"B",435,17596
"133","load",1003,"prac",0,3,98,"A",1098,6600
"134","load",1003,"prac",0,4,99,"B",3,2935
"135","load",1003,"prac",0,5,98,"A",798,3457
"136","load",1003,"prac",0,6,98,"A",597,2895
"137","load",1003,"prac",0,7,99,"B",744,2668
"138","load",1003,"prac",0,8,98,"A",279,2483
"139","load",1003,"prac",0,9,99,"B",424,3035
"140","load",1003,"prac",0,10,98,"A",461,3035
"141","load",1003,"exp",1,1,4,"A",493,4162
"142","load",1003,"exp",1,2,2,"A",383,2846
"143","load",1003,"exp",1,3,3,"B",384,12191
"144","load",1003,"exp",1,4,7,"B",282,3188
"145","load",1003,"exp",1,5,10,"B",655,5764
"146","load",1003,"exp",1,6,6,"B",4325,3866
"147","load",1003,"exp",1,7,8,"B",4288,5601
"148","load",1003,"exp",1,8,9,"B",212,3906
"149","load",1003,"exp",1,9,5,"B",879,3968
"150","load",1003,"exp",1,10,1,"A",380,3968
"151","load",1003,"exp",2,1,3,"B",4722,5049
"152","load",1003,"exp",2,2,10,"B",651,3538
"153","load",1003,"exp",2,3,5,"A",346,3330
"154","load",1003,"exp",2,4,1,"A",212,5636
"155","load",1003,"exp",2,5,6,"B",1600,2019
"156","load",1003,"exp",2,6,8,"A",1400,2851
"157","load",1003,"exp",2,7,7,"B",234,5082
"158","load",1003,"exp",2,8,9,"B",409,1803
"159","load",1003,"exp",2,9,2,"A",380,3162
"160","load",1003,"exp",2,10,4,"A",287,3162
"161","load",1003,"exp",3,1,4,"A",605,1897
"162","load",1003,"exp",3,2,1,"A",348,3249
"163","load",1003,"exp",3,3,3,"B",534,1476
"164","load",1003,"exp",3,4,8,"B",713,2665
"165","load",1003,"exp",3,5,2,"A",437,3133
"166","load",1003,"exp",3,6,10,"B",1303,3294
"167","load",1003,"exp",3,7,9,"B",523,3494
"168","load",1003,"exp",3,8,6,"B",296,2724
"169","load",1003,"exp",3,9,5,"A",294,1667
"170","load",1003,"exp",3,10,7,"B",371,1667
"171","load",1003,"exp",4,1,10,"B",2314,5995
"172","load",1003,"exp",4,2,2,"A",383,2493
"173","load",1003,"exp",4,3,6,"B",458,1401
"174","load",1003,"exp",4,4,8,"A",597,17873
"175","load",1003,"exp",4,5,5,"A",610,8684
"176","load",1003,"exp",4,6,1,"A",70,14419
"177","load",1003,"exp",4,7,3,"A",1088,7531
"178","load",1003,"exp",4,8,7,"B",951,4201
"179","load",1003,"exp",4,9,4,"A",197,1854
"180","load",1003,"exp",4,10,9,"B",167,1854
"181","load",1003,"exp",5,1,7,"B",430,2342
"182","load",1003,"exp",5,2,8,"A",154,2552
"183","load",1003,"exp",5,3,3,"B",497,2663
"184","load",1003,"exp",5,4,4,"A",1112,2105
"185","load",1003,"exp",5,5,6,"B",696,1624
"186","load",1003,"exp",5,6,1,"A",333,3283
"187","load",1003,"exp",5,7,10,"A",199,4130
"188","load",1003,"exp",5,8,5,"B",460,3836
"189","load",1003,"exp",5,9,2,"A",407,3787
"190","load",1003,"exp",5,10,9,"B",234,3787
"191","load",1003,"exp",6,1,5,"A",809,3565
"192","load",1003,"exp",6,2,8,"B",334,7189
"193","load",1003,"exp",6,3,6,"B",304,1708
"194","load",1003,"exp",6,4,3,"A",637,1920
"195","load",1003,"exp",6,5,4,"A",250,3243
"196","load",1003,"exp",6,6,9,"B",526,2968
"197","load",1003,"exp",6,7,10,"A",280,8513
"198","load",1003,"exp",6,8,1,"A",423,3196
"199","load",1003,"exp",6,9,7,"B",694,4386
"200","load",1003,"exp",6,10,2,"A",550,4386
"201","load",1003,"exp",7,1,5,"A",189,2596
"202","load",1003,"exp",7,2,2,"A",654,1939
"203","load",1003,"exp",7,3,7,"B",1249,2592
"204","load",1003,"exp",7,4,4,"A",1041,2118
"205","load",1003,"exp",7,5,3,"A",683,2438
"206","load",1003,"exp",7,6,10,"B",429,2629
"207","load",1003,"exp",7,7,9,"B",655,1956
"208","load",1003,"exp",7,8,1,"A",236,3147
"209","load",1003,"exp",7,9,8,"B",411,1964
"210","load",1003,"exp",7,10,6,"B",255,1964
"211","load",1003,"exp",8,1,8,"A",375,1878
"212","load",1003,"exp",8,2,5,"B",570,3259
"213","load",1003,"exp",8,3,2,"A",215,2628
"214","load",1003,"exp",8,4,3,"A",277,2349
"215","load",1003,"exp",8,5,6,"B",349,2547
"216","load",1003,"exp",8,6,9,"B",235,1179
"217","load",1003,"exp",8,7,10,"A",281,3414
"218","load",1003,"exp",8,8,4,"A",379,5690
"219","load",1003,"exp",8,9,7,"B",1135,2566
"220","load",1003,"exp",8,10,1,"A",483,2566
"221","load",1003,"exp",9,1,6,"B",1020,3609
"222","load",1003,"exp",9,2,2,"A",504,2590
"223","load",1003,"exp",9,3,9,"B",351,2294
"224","load",1003,"exp",9,4,4,"A",568,986
"225","load",1003,"exp",9,5,7,"B",276,2491
"226","load",1003,"exp",9,6,1,"A",232,1417
"227","load",1003,"exp",9,7,5,"B",318,1695
"228","load",1003,"exp",9,8,8,"A",602,2327
"229","load",1003,"exp",9,9,3,"A",285,7238
"230","load",1003,"exp",9,10,10,"B",332,7238
"231","load",1003,"exp",10,1,7,"B",325,1703
"232","load",1003,"exp",10,2,1,"A",1878,1649
"233","load",1003,"exp",10,3,5,"B",636,2941
"234","load",1003,"exp",10,4,8,"A",774,4675
"235","load",1003,"exp",10,5,4,"A",378,1608
"236","load",1003,"exp",10,6,10,"B",505,1361
"237","load",1003,"exp",10,7,2,"A",519,1458
"238","load",1003,"exp",10,8,3,"B",1031,1479
"239","load",1003,"exp",10,9,6,"B",778,1560
"240","load",1003,"exp",10,10,9,"B",1175,1560
"241","load",1003,"exp",11,1,5,"B",1417,2313
"242","load",1003,"exp",11,2,8,"A",1020,1065
"243","load",1003,"exp",11,3,7,"B",34,3370
"244","load",1003,"exp",11,4,9,"B",409,1406
"245","load",1003,"exp",11,5,1,"A",238,5518
"246","load",1003,"exp",11,6,4,"A",235,4570
"247","load",1003,"exp",11,7,3,"A",440,1346
"248","load",1003,"exp",11,8,6,"B",469,2432
"249","load",1003,"exp",11,9,10,"A",971,1330
"250","load",1003,"exp",11,10,2,"B",1517,1330
"251","load",1003,"exp",12,1,4,"A",380,1769
"252","load",1003,"exp",12,2,9,"B",677,1192
"253","load",1003,"exp",12,3,2,"A",364,1687
"254","load",1003,"exp",12,4,5,"B",343,1945
"255","load",1003,"exp",12,5,1,"B",615,1542
"256","load",1003,"exp",12,6,10,"B",286,2617
"257","load",1003,"exp",12,7,8,"A",2430,2809
"258","load",1003,"exp",12,8,7,"B",636,3788
"259","load",1003,"exp",12,9,3,"A",365,2629
"260","load",1003,"exp",12,10,6,"B",64,2629
"261","load",1004,"prac",0,1,98,"A",3180,906
"262","load",1004,"prac",0,2,99,"B",4213,741
"263","load",1004,"prac",0,3,98,"A",347,930
"264","load",1004,"prac",0,4,98,"A",472,1609
"265","load",1004,"prac",0,5,99,"B",1631,616
"266","load",1004,"prac",0,6,99,"B",218,857
"267","load",1004,"prac",0,7,99,"B",526,2633
"268","load",1004,"prac",0,8,98,"A",631,1560
"269","load",1004,"prac",0,9,98,"A",177,822
"270","load",1004,"prac",0,10,99,"B",278,822
"271","load",1004,"exp",1,1,2,"A",1239,817
"272","load",1004,"exp",1,2,4,"A",690,3645
"273","load",1004,"exp",1,3,5,"A",651,1330
"274","load",1004,"exp",1,4,8,"A",2792,1273
"275","load",1004,"exp",1,5,1,"A",254,917
"276","load",1004,"exp",1,6,9,"B",554,3467
"277","load",1004,"exp",1,7,10,"B",122,882
"278","load",1004,"exp",1,8,3,"B",84,886
"279","load",1004,"exp",1,9,6,"B",169,588
"280","load",1004,"exp",1,10,7,"B",247,588
"281","load",1004,"exp",2,1,1,"A",2097,3337
"282","load",1004,"exp",2,2,6,"B",543,2749
"283","load",1004,"exp",2,3,8,"B",2775,3032
"284","load",1004,"exp",2,4,7,"B",823,2907
"285","load",1004,"exp",2,5,4,"A",1053,674
"286","load",1004,"exp",2,6,10,"B",535,661
"287","load",1004,"exp",2,7,5,"A",100,587
"288","load",1004,"exp",2,8,3,"B",730,1084
"289","load",1004,"exp",2,9,9,"B",441,418
"290","load",1004,"exp",2,10,2,"A",309,418
"291","load",1004,"exp",3,1,7,"B",600,1909
"292","load",1004,"exp",3,2,8,"B",1618,1468
"293","load",1004,"exp",3,3,10,"B",277,2477
"294","load",1004,"exp",3,4,6,"B",886,665
"295","load",1004,"exp",3,5,3,"B",412,625
"296","load",1004,"exp",3,6,5,"A",1531,2048
"297","load",1004,"exp",3,7,9,"B",344,2753
"298","load",1004,"exp",3,8,2,"A",181,1052
"299","load",1004,"exp",3,9,4,"A",423,2653
"300","load",1004,"exp",3,10,1,"A",333,2653
"301","load",1004,"exp",4,1,8,"A",547,1398
"302","load",1004,"exp",4,2,3,"B",574,1221
"303","load",1004,"exp",4,3,2,"B",3930,579
"304","load",1004,"exp",4,4,9,"B",1336,709
"305","load",1004,"exp",4,5,1,"A",394,524
"306","load",1004,"exp",4,6,5,"A",585,464
"307","load",1004,"exp",4,7,6,"B",1207,504
"308","load",1004,"exp",4,8,4,"A",272,456
"309","load",1004,"exp",4,9,10,"B",716,380
"310","load",1004,"exp",4,10,7,"B",622,380
"311","load",1004,"exp",5,1,1,"A",641,1654
"312","load",1004,"exp",5,2,4,"A",715,763
"313","load",1004,"exp",5,3,2,"A",278,702
"314","load",1004,"exp",5,4,7,"B",670,454
"315","load",1004,"exp",5,5,5,"A",382,600
"316","load",1004,"exp",5,6,8,"A",270,456
"317","load",1004,"exp",5,7,3,"B",241,451
"318","load",1004,"exp",5,8,9,"B",423,767
"319","load",1004,"exp",5,9,10,"B",263,447
"320","load",1004,"exp",5,10,6,"B",284,447
"321","load",1004,"exp",6,1,10,"B",1083,1430
"322","load",1004,"exp",6,2,5,"A",426,1746
"323","load",1004,"exp",6,3,4,"A",268,1987
"324","load",1004,"exp",6,4,1,"A",3379,524
"325","load",1004,"exp",6,5,6,"B",536,2262
"326","load",1004,"exp",6,6,8,"A",571,704
"327","load",1004,"exp",6,7,2,"A",416,374
"328","load",1004,"exp",6,8,3,"B",1053,769
"329","load",1004,"exp",6,9,7,"B",2187,979
"330","load",1004,"exp",6,10,9,"B",954,979
"331","load",1004,"exp",7,1,7,"B",1048,411
"332","load",1004,"exp",7,2,3,"A",1611,466
"333","load",1004,"exp",7,3,4,"A",408,395
"334","load",1004,"exp",7,4,10,"A",1191,567
"335","load",1004,"exp",7,5,1,"A",1213,353
"336","load",1004,"exp",7,6,8,"B",719,499
"337","load",1004,"exp",7,7,2,"A",573,374
"338","load",1004,"exp",7,8,9,"B",1033,473
"339","load",1004,"exp",7,9,6,"B",612,402
"340","load",1004,"exp",7,10,5,"B",188,402
"341","load",1004,"exp",8,1,6,"B",623,925
"342","load",1004,"exp",8,2,3,"A",771,832
"343","load",1004,"exp",8,3,2,"A",41,1346
"344","load",1004,"exp",8,4,8,"B",955,664
"345","load",1004,"exp",8,5,5,"B",726,391
"346","load",1004,"exp",8,6,4,"A",264,814
"347","load",1004,"exp",8,7,9,"B",9,654
"348","load",1004,"exp",8,8,1,"A",664,481
"349","load",1004,"exp",8,9,7,"B",588,1076
"350","load",1004,"exp",8,10,10,"A",25,1076
"351","load",1004,"exp",9,1,8,"B",725,777
"352","load",1004,"exp",9,2,7,"B",575,980
"353","load",1004,"exp",9,3,1,"A",280,623
"354","load",1004,"exp",9,4,4,"A",295,356
"355","load",1004,"exp",9,5,10,"A",670,406
"356","load",1004,"exp",9,6,6,"B",640,483
"357","load",1004,"exp",9,7,5,"B",606,601
"358","load",1004,"exp",9,8,9,"B",856,421
"359","load",1004,"exp",9,9,2,"A",87,858
"360","load",1004,"exp",9,10,3,"A",142,858
"361","load",1004,"exp",10,1,5,"B",1267,741
"362","load",1004,"exp",10,2,4,"A",1261,716
"363","load",1004,"exp",10,3,6,"B",614,546
"364","load",1004,"exp",10,4,9,"B",808,412
"365","load",1004,"exp",10,5,8,"B",720,1491
"366","load",1004,"exp",10,6,7,"B",487,4730
"367","load",1004,"exp",10,7,2,"A",569,2796
"368","load",1004,"exp",10,8,10,"A",525,1337
"369","load",1004,"exp",10,9,1,"A",1773,931
"370","load",1004,"exp",10,10,3,"A",132,931
"371","load",1004,"exp",11,1,9,"B",286,1177
"372","load",1004,"exp",11,2,6,"B",173,562
"373","load",1004,"exp",11,3,7,"B",335,550
"374","load",1004,"exp",11,4,8,"A",334,356
"375","load",1004,"exp",11,5,1,"A",433,414
"376","load",1004,"exp",11,6,10,"B",296,678
"377","load",1004,"exp",11,7,5,"A",267,757
"378","load",1004,"exp",11,8,2,"A",998,1186
"379","load",1004,"exp",11,9,3,"B",239,835
"380","load",1004,"exp",11,10,4,"A",520,835
"381","load",1004,"exp",12,1,9,"B",246,697
"382","load",1004,"exp",12,2,6,"B",1708,532
"383","load",1004,"exp",12,3,7,"B",441,677
"384","load",1004,"exp",12,4,5,"A",602,405
"385","load",1004,"exp",12,5,3,"B",328,427
"386","load",1004,"exp",12,6,2,"A",310,407
"387","load",1004,"exp",12,7,1,"A",376,418
"388","load",1004,"exp",12,8,10,"B",468,646
"389","load",1004,"exp",12,9,8,"A",490,477
"390","load",1004,"exp",12,10,4,"A",417,477
"391","load",1005,"prac",0,1,99,"A",12126,150102
"392","load",1005,"prac",0,2,99,"B",3162,2182
"393","load",1005,"prac",0,3,98,"A",1142,1853
"394","load",1005,"prac",0,4,99,"B",2038,2018
"395","load",1005,"prac",0,5,98,"A",903,1214
"396","load",1005,"prac",0,6,98,"A",1080,1650
"397","load",1005,"prac",0,7,98,"A",908,2661
"398","load",1005,"prac",0,8,99,"B",1380,1419
"399","load",1005,"prac",0,9,98,"A",1008,1485
"400","load",1005,"prac",0,10,99,"B",1274,1485
"401","load",1005,"exp",1,1,8,"B",1540,7499
"402","load",1005,"exp",1,2,1,"A",1119,6962
"403","load",1005,"exp",1,3,9,"B",1030,3928
"404","load",1005,"exp",1,4,2,"A",1007,1947
"405","load",1005,"exp",1,5,7,"B",1786,10677
"406","load",1005,"exp",1,6,6,"B",1465,3570
"407","load",1005,"exp",1,7,3,"B",1189,4855
"408","load",1005,"exp",1,8,5,"A",967,3018
"409","load",1005,"exp",1,9,10,"B",1408,5643
"410","load",1005,"exp",1,10,4,"A",1191,5643
"411","load",1005,"exp",2,1,6,"B",2373,12693
"412","load",1005,"exp",2,2,5,"A",1581,3210
"413","load",1005,"exp",2,3,7,"B",959,4051
"414","load",1005,"exp",2,4,2,"A",716,5998
"415","load",1005,"exp",2,5,10,"B",696,4454
"416","load",1005,"exp",2,6,3,"B",2459,3385
"417","load",1005,"exp",2,7,4,"A",1228,1970
"418","load",1005,"exp",2,8,1,"A",2988,5255
"419","load",1005,"exp",2,9,9,"B",827,3205
"420","load",1005,"exp",2,10,8,"A",909,3205
"421","load",1005,"exp",3,1,9,"B",1885,3544
"422","load",1005,"exp",3,2,3,"B",434,7452
"423","load",1005,"exp",3,3,10,"B",1030,3735
"424","load",1005,"exp",3,4,2,"A",503,5807
"425","load",1005,"exp",3,5,6,"B",1391,4007
"426","load",1005,"exp",3,6,8,"A",1305,2562
"427","load",1005,"exp",3,7,4,"A",984,2360
"428","load",1005,"exp",3,8,1,"A",1317,2847
"429","load",1005,"exp",3,9,5,"A",1062,1948
"430","load",1005,"exp",3,10,7,"B",989,1948
"431","load",1005,"exp",4,1,8,"A",615,3222
"432","load",1005,"exp",4,2,1,"A",1501,2588
"433","load",1005,"exp",4,3,3,"B",758,2517
"434","load",1005,"exp",4,4,2,"A",1188,4997
"435","load",1005,"exp",4,5,7,"B",1252,1729
"436","load",1005,"exp",4,6,4,"A",1028,6470
"437","load",1005,"exp",4,7,10,"B",931,8082
"438","load",1005,"exp",4,8,9,"B",863,2285
"439","load",1005,"exp",4,9,5,"A",775,2322
"440","load",1005,"exp",4,10,6,"B",789,2322
"441","load",1005,"exp",5,1,9,"B",997,4224
"442","load",1005,"exp",5,2,1,"A",714,5816
"443","load",1005,"exp",5,3,6,"B",1112,3370
"444","load",1005,"exp",5,4,4,"A",607,2972
"445","load",1005,"exp",5,5,5,"A",850,2605
"446","load",1005,"exp",5,6,8,"A",638,5552
"447","load",1005,"exp",5,7,2,"A",474,3304
"448","load",1005,"exp",5,8,7,"B",838,3527
"449","load",1005,"exp",5,9,3,"B",653,1633
"450","load",1005,"exp",5,10,10,"B",988,1633
"451","load",1005,"exp",6,1,1,"A",1196,2748
"452","load",1005,"exp",6,2,2,"A",634,2025
"453","load",1005,"exp",6,3,10,"B",1013,4818
"454","load",1005,"exp",6,4,8,"A",460,2987
"455","load",1005,"exp",6,5,9,"B",624,5298
"456","load",1005,"exp",6,6,5,"A",1049,3100
"457","load",1005,"exp",6,7,3,"B",932,2485
"458","load",1005,"exp",6,8,7,"B",1070,2518
"459","load",1005,"exp",6,9,4,"A",1245,2856
"460","load",1005,"exp",6,10,6,"B",1031,2856
"461","load",1005,"exp",7,1,2,"A",744,1665
"462","load",1005,"exp",7,2,1,"A",496,4266
"463","load",1005,"exp",7,3,8,"A",431,1479
"464","load",1005,"exp",7,4,6,"B",430,1962
"465","load",1005,"exp",7,5,7,"B",1023,1742
"466","load",1005,"exp",7,6,5,"A",725,3545
"467","load",1005,"exp",7,7,3,"B",877,2431
"468","load",1005,"exp",7,8,9,"B",1185,2706
"469","load",1005,"exp",7,9,4,"A",534,2006
"470","load",1005,"exp",7,10,10,"B",785,2006
"471","load",1005,"exp",8,1,6,"B",848,2060
"472","load",1005,"exp",8,2,7,"B",702,1179
"473","load",1005,"exp",8,3,1,"A",423,1581
"474","load",1005,"exp",8,4,10,"B",543,3487
"475","load",1005,"exp",8,5,9,"B",616,1574
"476","load",1005,"exp",8,6,8,"A",457,9975
"477","load",1005,"exp",8,7,4,"A",767,1866
"478","load",1005,"exp",8,8,5,"A",540,3496
"479","load",1005,"exp",8,9,2,"A",1257,7254
"480","load",1005,"exp",8,10,3,"B",353,7254
"481","load",1005,"exp",9,1,10,"B",1263,2164
"482","load",1005,"exp",9,2,4,"A",412,1602
"483","load",1005,"exp",9,3,6,"B",721,2068
"484","load",1005,"exp",9,4,1,"A",871,5403
"485","load",1005,"exp",9,5,2,"A",2021,3771
"486","load",1005,"exp",9,6,9,"B",517,2081
"487","load",1005,"exp",9,7,3,"B",994,1416
"488","load",1005,"exp",9,8,5,"A",767,2843
"489","load",1005,"exp",9,9,7,"B",1185,4591
"490","load",1005,"exp",9,10,8,"A",392,4591
"491","load",1005,"exp",10,1,5,"A",437,2383
"492","load",1005,"exp",10,2,8,"A",651,1280
"493","load",1005,"exp",10,3,10,"B",802,1474
"494","load",1005,"exp",10,4,1,"A",319,2128
"495","load",1005,"exp",10,5,9,"B",1421,3035
"496","load",1005,"exp",10,6,7,"B",907,2291
"497","load",1005,"exp",10,7,2,"A",781,2411
"498","load",1005,"exp",10,8,6,"B",893,1683
"499","load",1005,"exp",10,9,3,"B",860,5177
"500","load",1005,"exp",10,10,4,"A",1245,5177
"501","load",1005,"exp",11,1,8,"A",773,1234
"502","load",1005,"exp",11,2,7,"B",751,2264
"503","load",1005,"exp",11,3,3,"B",812,1908
"504","load",1005,"exp",11,4,6,"B",747,1810
"505","load",1005,"exp",11,5,5,"A",858,5145
"506","load",1005,"exp",11,6,10,"B",951,1478
"507","load",1005,"exp",11,7,1,"A",674,2526
"508","load",1005,"exp",11,8,4,"A",844,2359
"509","load",1005,"exp",11,9,9,"B",959,2355
"510","load",1005,"exp",11,10,2,"A",673,2355
"511","load",1005,"exp",12,1,8,"A",825,7650
"512","load",1005,"exp",12,2,7,"B",1045,2297
"513","load",1005,"exp",12,3,1,"A",452,1875
"514","load",1005,"exp",12,4,2,"A",1625,3810
"515","load",1005,"exp",12,5,10,"B",665,3509
"516","load",1005,"exp",12,6,9,"B",456,1816
"517","load",1005,"exp",12,7,3,"B",568,1883
"518","load",1005,"exp",12,8,4,"A",756,1564
"519","load",1005,"exp",12,9,5,"A",1013,2611
"520","load",1005,"exp",12,10,6,"B",554,2611
"521","load",1006,"prac",0,1,99,"B",548,6739
"522","load",1006,"prac",0,2,99,"B",384,2959
"523","load",1006,"prac",0,3,98,"A",187,2242
"524","load",1006,"prac",0,4,98,"A",592,3290
"525","load",1006,"prac",0,5,98,"A",106,2883
"526","load",1006,"prac",0,6,99,"B",723,1590
"527","load",1006,"prac",0,7,99,"B",198,8478
"528","load",1006,"prac",0,8,98,"A",651,2173
"529","load",1006,"prac",0,9,98,"A",587,2725
"530","load",1006,"prac",0,10,99,"B",557,2725
"531","load",1006,"exp",1,1,9,"B",650,2860
"532","load",1006,"exp",1,2,1,"A",984,2622
"533","load",1006,"exp",1,3,3,"A",552,2438
"534","load",1006,"exp",1,4,10,"A",636,4557
"535","load",1006,"exp",1,5,7,"B",407,4554
"536","load",1006,"exp",1,6,8,"A",669,7445
"537","load",1006,"exp",1,7,6,"B",755,2124
"538","load",1006,"exp",1,8,4,"A",103,2957
"539","load",1006,"exp",1,9,5,"B",617,6247
"540","load",1006,"exp",1,10,2,"A",945,6247
"541","load",1006,"exp",2,1,4,"A",1259,3532
"542","load",1006,"exp",2,2,6,"B",383,1565
"543","load",1006,"exp",2,3,2,"A",687,3062
"544","load",1006,"exp",2,4,8,"B",773,3268
"545","load",1006,"exp",2,5,3,"A",896,6329
"546","load",1006,"exp",2,6,10,"B",847,4028
"547","load",1006,"exp",2,7,9,"A",1050,2798
"548","load",1006,"exp",2,8,5,"B",616,10824
"549","load",1006,"exp",2,9,7,"A",1104,4161
"550","load",1006,"exp",2,10,1,"A",1696,4161
"551","load",1006,"exp",3,1,5,"B",608,1947
"552","load",1006,"exp",3,2,3,"A",28,3379
"553","load",1006,"exp",3,3,4,"A",736,7861
"554","load",1006,"exp",3,4,7,"B",755,3562
"555","load",1006,"exp",3,5,9,"B",718,5632
"556","load",1006,"exp",3,6,10,"A",119,6787
"557","load",1006,"exp",3,7,8,"B",335,17446
"558","load",1006,"exp",3,8,2,"A",312,1401
"559","load",1006,"exp",3,9,6,"B",537,1941
"560","load",1006,"exp",3,10,1,"A",297,1941
"561","load",1006,"exp",4,1,10,"A",821,1388
"562","load",1006,"exp",4,2,7,"B",238,848
"563","load",1006,"exp",4,3,3,"A",588,820
"564","load",1006,"exp",4,4,6,"B",348,788
"565","load",1006,"exp",4,5,1,"A",406,874
"566","load",1006,"exp",4,6,2,"A",294,1507
"567","load",1006,"exp",4,7,5,"B",389,4247
"568","load",1006,"exp",4,8,8,"B",394,1032
"569","load",1006,"exp",4,9,4,"A",195,899
"570","load",1006,"exp",4,10,9,"B",234,899
"571","load",1006,"exp",5,1,2,"A",174,1093
"572","load",1006,"exp",5,2,8,"B",207,585
"573","load",1006,"exp",5,3,3,"A",134,698
"574","load",1006,"exp",5,4,5,"B",49,1258
"575","load",1006,"exp",5,5,6,"B",192,1477
"576","load",1006,"exp",5,6,1,"A",313,743
"577","load",1006,"exp",5,7,10,"A",173,515
"578","load",1006,"exp",5,8,4,"A",393,777
"579","load",1006,"exp",5,9,9,"B",215,772
"580","load",1006,"exp",5,10,7,"B",251,772
"581","load",1006,"exp",6,1,10,"A",200,530
"582","load",1006,"exp",6,2,3,"A",5,823
"583","load",1006,"exp",6,3,8,"B",1,606
"584","load",1006,"exp",6,4,9,"B",341,459
"585","load",1006,"exp",6,5,5,"B",206,809
"586","load",1006,"exp",6,6,4,"A",238,385
"587","load",1006,"exp",6,7,7,"B",224,332
"588","load",1006,"exp",6,8,1,"A",199,481
"589","load",1006,"exp",6,9,6,"B",166,313
"590","load",1006,"exp",6,10,2,"A",249,313
"591","load",1006,"exp",7,1,6,"B",276,348
"592","load",1006,"exp",7,2,9,"B",204,326
"593","load",1006,"exp",7,3,3,"A",187,341
"594","load",1006,"exp",7,4,2,"A",208,890
"595","load",1006,"exp",7,5,5,"B",224,286
"596","load",1006,"exp",7,6,8,"B",197,332
"597","load",1006,"exp",7,7,4,"A",195,281
"598","load",1006,"exp",7,8,7,"B",42,326
"599","load",1006,"exp",7,9,1,"A",158,239
"600","load",1006,"exp",7,10,10,"A",250,239
"601","load",1006,"exp",8,1,5,"B",295,291
"602","load",1006,"exp",8,2,1,"A",254,359
"603","load",1006,"exp",8,3,3,"A",1,1038
"604","load",1006,"exp",8,4,9,"B",221,315
"605","load",1006,"exp",8,5,2,"A",59,489
"606","load",1006,"exp",8,6,7,"B",843,357
"607","load",1006,"exp",8,7,10,"A",240,196
"608","load",1006,"exp",8,8,6,"B",311,280
"609","load",1006,"exp",8,9,8,"B",615,294
"610","load",1006,"exp",8,10,4,"A",208,294
"611","load",1006,"exp",9,1,9,"B",271,311
"612","load",1006,"exp",9,2,2,"A",293,276
"613","load",1006,"exp",9,3,10,"A",351,296
"614","load",1006,"exp",9,4,6,"B",285,296
"615","load",1006,"exp",9,5,4,"A",246,281
"616","load",1006,"exp",9,6,3,"A",372,305
"617","load",1006,"exp",9,7,7,"B",269,308
"618","load",1006,"exp",9,8,1,"A",234,346
"619","load",1006,"exp",9,9,5,"B",394,235
"620","load",1006,"exp",9,10,8,"B",325,235
"621","load",1006,"exp",10,1,5,"B",426,450
"622","load",1006,"exp",10,2,4,"A",700,1339
"623","load",1006,"exp",10,3,2,"A",568,1691
"624","load",1006,"exp",10,4,1,"A",532,1394
"625","load",1006,"exp",10,5,3,"A",333,2114
"626","load",1006,"exp",10,6,8,"B",352,3283
"627","load",1006,"exp",10,7,6,"B",296,471
"628","load",1006,"exp",10,8,7,"B",1024,3708
"629","load",1006,"exp",10,9,9,"B",461,3706
"630","load",1006,"exp",10,10,10,"A",192,3706
"631","load",1006,"exp",11,1,3,"A",766,1544
"632","load",1006,"exp",11,2,9,"B",584,957
"633","load",1006,"exp",11,3,4,"A",286,1753
"634","load",1006,"exp",11,4,1,"A",511,1255
"635","load",1006,"exp",11,5,5,"B",437,1388
"636","load",1006,"exp",11,6,2,"A",529,1996
"637","load",1006,"exp",11,7,6,"B",526,3320
"638","load",1006,"exp",11,8,8,"B",394,3725
"639","load",1006,"exp",11,9,7,"B",679,3923
"640","load",1006,"exp",11,10,10,"A",423,3923
"641","load",1006,"exp",12,1,6,"B",239,4194
"642","load",1006,"exp",12,2,2,"A",339,2150
"643","load",1006,"exp",12,3,3,"A",346,3839
"644","load",1006,"exp",12,4,10,"A",507,5874
"645","load",1006,"exp",12,5,1,"A",537,4214
"646","load",1006,"exp",12,6,4,"A",719,5955
"647","load",1006,"exp",12,7,9,"B",554,2138
"648","load",1006,"exp",12,8,7,"B",520,1284
"649","load",1006,"exp",12,9,5,"B",389,1094
"650","load",1006,"exp",12,10,8,"B",276,1094
"651","load",1007,"prac",0,1,99,"B",4019,1308
"652","load",1007,"prac",0,2,98,"A",5066,9588
"653","load",1007,"prac",0,3,98,"A",3892,3682
"654","load",1007,"prac",0,4,98,"A",4977,3037
"655","load",1007,"prac",0,5,98,"A",1866,9488
"656","load",1007,"prac",0,6,99,"B",6728,4835
"657","load",1007,"prac",0,7,99,"B",1320,5093
"658","load",1007,"prac",0,8,99,"B",3177,2231
"659","load",1007,"prac",0,9,99,"B",2839,3668
"660","load",1007,"prac",0,10,98,"A",736,3668
"661","load",1007,"exp",1,1,8,"A",1088,4685
"662","load",1007,"exp",1,2,7,"B",834,5466
"663","load",1007,"exp",1,3,3,"B",553,3016
"664","load",1007,"exp",1,4,10,"B",1164,7110
"665","load",1007,"exp",1,5,5,"A",767,7226
"666","load",1007,"exp",1,6,4,"A",1479,6739
"667","load",1007,"exp",1,7,1,"A",1216,8421
"668","load",1007,"exp",1,8,9,"B",2846,4522
"669","load",1007,"exp",1,9,6,"B",1536,3253
"670","load",1007,"exp",1,10,2,"A",974,3253
"671","load",1007,"exp",2,1,8,"B",2370,4418
"672","load",1007,"exp",2,2,9,"B",1181,5178
"673","load",1007,"exp",2,3,1,"A",1356,5803
"674","load",1007,"exp",2,4,6,"B",2900,7293
"675","load",1007,"exp",2,5,2,"A",2366,4681
"676","load",1007,"exp",2,6,10,"B",687,4186
"677","load",1007,"exp",2,7,5,"A",1077,6370
"678","load",1007,"exp",2,8,7,"B",955,10028
"679","load",1007,"exp",2,9,3,"A",762,4390
"680","load",1007,"exp",2,10,4,"A",1067,4390
"681","load",1007,"exp",3,1,7,"B",474,5996
"682","load",1007,"exp",3,2,3,"A",1179,9033
"683","load",1007,"exp",3,3,1,"A",958,6306
"684","load",1007,"exp",3,4,4,"A",988,3190
"685","load",1007,"exp",3,5,5,"A",489,3755
"686","load",1007,"exp",3,6,9,"B",1321,10663
"687","load",1007,"exp",3,7,8,"A",674,1773
"688","load",1007,"exp",3,8,6,"B",567,3626
"689","load",1007,"exp",3,9,10,"B",548,4324
"690","load",1007,"exp",3,10,2,"A",1251,4324
"691","load",1007,"exp",4,1,3,"B",847,1735
"692","load",1007,"exp",4,2,1,"A",486,1448
"693","load",1007,"exp",4,3,2,"A",511,2902
"694","load",1007,"exp",4,4,7,"B",573,1554
"695","load",1007,"exp",4,5,10,"B",619,1528
"696","load",1007,"exp",4,6,5,"A",283,8693
"697","load",1007,"exp",4,7,4,"A",716,8540
"698","load",1007,"exp",4,8,6,"B",1386,3155
"699","load",1007,"exp",4,9,8,"A",1060,5610
"700","load",1007,"exp",4,10,9,"B",1094,5610
"701","load",1007,"exp",5,1,3,"B",594,1099
"702","load",1007,"exp",5,2,7,"B",432,2792
"703","load",1007,"exp",5,3,6,"B",466,1922
"704","load",1007,"exp",5,4,2,"A",1044,7286
"705","load",1007,"exp",5,5,1,"A",601,3601
"706","load",1007,"exp",5,6,4,"A",1274,5452
"707","load",1007,"exp",5,7,5,"A",2142,9102
"708","load",1007,"exp",5,8,10,"B",3158,3938
"709","load",1007,"exp",5,9,8,"A",634,5100
"710","load",1007,"exp",5,10,9,"B",1017,5100
"711","load",1007,"exp",6,1,5,"A",568,4890
"712","load",1007,"exp",6,2,3,"A",713,2362
"713","load",1007,"exp",6,3,1,"A",1683,2518
"714","load",1007,"exp",6,4,8,"A",772,3443
"715","load",1007,"exp",6,5,4,"A",742,3805
"716","load",1007,"exp",6,6,9,"A",1327,9178
"717","load",1007,"exp",6,7,6,"B",1230,3846
"718","load",1007,"exp",6,8,7,"B",1019,2953
"719","load",1007,"exp",6,9,10,"B",2492,3953
"720","load",1007,"exp",6,10,2,"A",892,3953
"721","load",1007,"exp",7,1,5,"A",1127,2827
"722","load",1007,"exp",7,2,2,"A",689,1308
"723","load",1007,"exp",7,3,7,"B",719,1780
"724","load",1007,"exp",7,4,4,"A",567,2826
"725","load",1007,"exp",7,5,9,"B",743,9629
"726","load",1007,"exp",7,6,10,"A",964,4281
"727","load",1007,"exp",7,7,3,"B",581,6938
"728","load",1007,"exp",7,8,1,"A",588,7717
"729","load",1007,"exp",7,9,8,"A",1076,9326
"730","load",1007,"exp",7,10,6,"B",1083,9326
"731","load",1007,"exp",8,1,7,"B",732,2818
"732","load",1007,"exp",8,2,9,"B",579,1706
"733","load",1007,"exp",8,3,8,"A",521,1540
"734","load",1007,"exp",8,4,4,"A",874,1002
"735","load",1007,"exp",8,5,5,"A",695,2564
"736","load",1007,"exp",8,6,6,"A",825,3555
"737","load",1007,"exp",8,7,2,"A",1066,8517
"738","load",1007,"exp",8,8,3,"A",1041,8388
"739","load",1007,"exp",8,9,1,"A",561,6773
"740","load",1007,"exp",8,10,10,"B",905,6773
"741","load",1007,"exp",9,1,7,"B",693,1683
"742","load",1007,"exp",9,2,3,"B",826,2289
"743","load",1007,"exp",9,3,6,"B",653,1234
"744","load",1007,"exp",9,4,10,"B",568,1833
"745","load",1007,"exp",9,5,9,"B",645,1895
"746","load",1007,"exp",9,6,8,"A",876,2876
"747","load",1007,"exp",9,7,4,"A",1544,3216
"748","load",1007,"exp",9,8,1,"A",1184,2962
"749","load",1007,"exp",9,9,5,"A",590,1302
"750","load",1007,"exp",9,10,2,"A",981,1302
"751","load",1007,"exp",10,1,9,"B",862,4539
"752","load",1007,"exp",10,2,4,"A",757,1600
"753","load",1007,"exp",10,3,3,"B",1080,1842
"754","load",1007,"exp",10,4,10,"B",637,1267
"755","load",1007,"exp",10,5,8,"A",871,917
"756","load",1007,"exp",10,6,1,"A",745,1264
"757","load",1007,"exp",10,7,5,"A",1033,2268
"758","load",1007,"exp",10,8,2,"A",580,2861
"759","load",1007,"exp",10,9,6,"B",969,2846
"760","load",1007,"exp",10,10,7,"B",662,2846
"761","load",1007,"exp",11,1,4,"A",500,1129
"762","load",1007,"exp",11,2,5,"A",565,1048
"763","load",1007,"exp",11,3,6,"B",672,1272
"764","load",1007,"exp",11,4,2,"A",610,1632
"765","load",1007,"exp",11,5,10,"B",496,1958
"766","load",1007,"exp",11,6,3,"B",568,1783
"767","load",1007,"exp",11,7,9,"B",789,4872
"768","load",1007,"exp",11,8,1,"A",976,1126
"769","load",1007,"exp",11,9,8,"A",614,5699
"770","load",1007,"exp",11,10,7,"B",910,5699
"771","load",1007,"exp",12,1,10,"B",1580,5499
"772","load",1007,"exp",12,2,3,"B",864,1201
"773","load",1007,"exp",12,3,1,"A",489,1260
"774","load",1007,"exp",12,4,4,"A",665,978
"775","load",1007,"exp",12,5,9,"B",824,4033
"776","load",1007,"exp",12,6,6,"B",373,3123
"777","load",1007,"exp",12,7,5,"A",2189,1991
"778","load",1007,"exp",12,8,8,"A",1018,3367
"779","load",1007,"exp",12,9,7,"B",1097,2967
"780","load",1007,"exp",12,10,2,"A",1137,2967
"781","load",1008,"prac",0,1,99,"B",4909,5606
"782","load",1008,"prac",0,2,98,"A",1592,3001
"783","load",1008,"prac",0,3,99,"B",1288,2442
"784","load",1008,"prac",0,4,99,"B",1243,2935
"785","load",1008,"prac",0,5,98,"A",1578,2905
"786","load",1008,"prac",0,6,99,"B",1560,2181
"787","load",1008,"prac",0,7,99,"B",1303,1677
"788","load",1008,"prac",0,8,98,"A",1720,1941
"789","load",1008,"prac",0,9,98,"A",1415,2229
"790","load",1008,"prac",0,10,98,"A",1301,2229
"791","load",1008,"exp",1,1,10,"B",2780,10777
"792","load",1008,"exp",1,2,9,"B",1776,4004
"793","load",1008,"exp",1,3,7,"B",943,4334
"794","load",1008,"exp",1,4,8,"B",1155,13597
"795","load",1008,"exp",1,5,2,"A",1537,10169
"796","load",1008,"exp",1,6,3,"A",1564,6263
"797","load",1008,"exp",1,7,4,"A",1034,6235
"798","load",1008,"exp",1,8,5,"A",1066,10965
"799","load",1008,"exp",1,9,1,"A",543,4446
"800","load",1008,"exp",1,10,6,"B",721,4446
"801","load",1008,"exp",2,1,7,"B",2471,6808
"802","load",1008,"exp",2,2,3,"A",2962,3449
"803","load",1008,"exp",2,3,6,"B",1098,5656
"804","load",1008,"exp",2,4,10,"A",1290,5262
"805","load",1008,"exp",2,5,8,"B",1585,2994
"806","load",1008,"exp",2,6,2,"A",972,8050
"807","load",1008,"exp",2,7,9,"B",900,4554
"808","load",1008,"exp",2,8,5,"B",1131,5534
"809","load",1008,"exp",2,9,4,"A",952,4139
"810","load",1008,"exp",2,10,1,"A",903,4139
"811","load",1008,"exp",3,1,9,"B",1097,5016
"812","load",1008,"exp",3,2,7,"B",1427,3797
"813","load",1008,"exp",3,3,3,"A",1254,3733
"814","load",1008,"exp",3,4,5,"B",1046,6378
"815","load",1008,"exp",3,5,8,"B",1901,2621
"816","load",1008,"exp",3,6,2,"A",951,2840
"817","load",1008,"exp",3,7,10,"B",1013,4243
"818","load",1008,"exp",3,8,6,"B",1879,6627
"819","load",1008,"exp",3,9,4,"A",1292,5346
"820","load",1008,"exp",3,10,1,"A",941,5346
"821","load",1008,"exp",4,1,6,"B",865,1714
"822","load",1008,"exp",4,2,7,"B",893,1730
"823","load",1008,"exp",4,3,10,"B",1257,3560
"824","load",1008,"exp",4,4,1,"A",761,1925
"825","load",1008,"exp",4,5,4,"A",995,2605
"826","load",1008,"exp",4,6,8,"A",1371,3762
"827","load",1008,"exp",4,7,5,"A",1374,2741
"828","load",1008,"exp",4,8,9,"B",893,3092
"829","load",1008,"exp",4,9,3,"B",1014,2932
"830","load",1008,"exp",4,10,2,"A",838,2932
"831","load",1008,"exp",5,1,5,"A",830,1447
"832","load",1008,"exp",5,2,10,"B",925,1287
"833","load",1008,"exp",5,3,1,"A",1013,5044
"834","load",1008,"exp",5,4,9,"B",1032,2008
"835","load",1008,"exp",5,5,8,"B",1132,4690
"836","load",1008,"exp",5,6,4,"A",954,1787
"837","load",1008,"exp",5,7,6,"B",728,1662
"838","load",1008,"exp",5,8,3,"B",1002,1477
"839","load",1008,"exp",5,9,7,"B",861,2491
"840","load",1008,"exp",5,10,2,"A",1055,2491
"841","load",1008,"exp",6,1,1,"A",982,1133
"842","load",1008,"exp",6,2,6,"B",867,981
"843","load",1008,"exp",6,3,9,"B",591,1416
"844","load",1008,"exp",6,4,4,"A",887,1548
"845","load",1008,"exp",6,5,2,"A",694,1667
"846","load",1008,"exp",6,6,3,"B",648,1563
"847","load",1008,"exp",6,7,7,"B",873,1192
"848","load",1008,"exp",6,8,5,"B",1015,2356
"849","load",1008,"exp",6,9,8,"B",958,2447
"850","load",1008,"exp",6,10,10,"B",843,2447
"851","load",1008,"exp",7,1,8,"B",1036,2267
"852","load",1008,"exp",7,2,1,"A",1020,892
"853","load",1008,"exp",7,3,3,"B",740,1532
"854","load",1008,"exp",7,4,10,"B",1934,2821
"855","load",1008,"exp",7,5,5,"A",933,2372
"856","load",1008,"exp",7,6,2,"A",1450,2142
"857","load",1008,"exp",7,7,9,"B",23,2013
"858","load",1008,"exp",7,8,7,"B",498,3111
"859","load",1008,"exp",7,9,6,"B",1933,2403
"860","load",1008,"exp",7,10,4,"A",581,2403
"861","load",1008,"exp",8,1,6,"B",981,1035
"862","load",1008,"exp",8,2,8,"B",926,2024
"863","load",1008,"exp",8,3,10,"B",804,1477
"864","load",1008,"exp",8,4,7,"B",841,1253
"865","load",1008,"exp",8,5,3,"B",1092,2015
"866","load",1008,"exp",8,6,5,"A",607,1163
"867","load",1008,"exp",8,7,9,"B",592,2392
"868","load",1008,"exp",8,8,2,"A",695,930
"869","load",1008,"exp",8,9,1,"A",1200,1986
"870","load",1008,"exp",8,10,4,"A",1007,1986
"871","load",1008,"exp",9,1,5,"A",684,1420
"872","load",1008,"exp",9,2,1,"A",455,1207
"873","load",1008,"exp",9,3,7,"B",1744,1378
"874","load",1008,"exp",9,4,2,"A",569,1116
"875","load",1008,"exp",9,5,9,"B",668,738
"876","load",1008,"exp",9,6,10,"B",391,1527
"877","load",1008,"exp",9,7,3,"B",960,1379
"878","load",1008,"exp",9,8,8,"B",808,5676
"879","load",1008,"exp",9,9,6,"B",838,1236
"880","load",1008,"exp",9,10,4,"A",574,1236
"881","load",1008,"exp",10,1,4,"A",824,721
"882","load",1008,"exp",10,2,7,"B",975,515
"883","load",1008,"exp",10,3,2,"A",493,897
"884","load",1008,"exp",10,4,9,"B",398,898
"885","load",1008,"exp",10,5,6,"B",430,1061
"886","load",1008,"exp",10,6,1,"A",529,730
"887","load",1008,"exp",10,7,10,"B",506,7459
"888","load",1008,"exp",10,8,5,"A",871,1798
"889","load",1008,"exp",10,9,8,"A",1029,1639
"890","load",1008,"exp",10,10,3,"B",1052,1639
"891","load",1008,"exp",11,1,1,"A",607,987
"892","load",1008,"exp",11,2,5,"B",455,1237
"893","load",1008,"exp",11,3,6,"B",364,1208
"894","load",1008,"exp",11,4,9,"B",136,2151
"895","load",1008,"exp",11,5,2,"A",755,2544
"896","load",1008,"exp",11,6,10,"B",1050,2225
"897","load",1008,"exp",11,7,8,"B",778,3048
"898","load",1008,"exp",11,8,3,"B",966,923
"899","load",1008,"exp",11,9,7,"B",823,734
"900","load",1008,"exp",11,10,4,"A",549,734
"901","load",1008,"exp",12,1,5,"A",862,796
"902","load",1008,"exp",12,2,10,"B",848,1100
"903","load",1008,"exp",12,3,4,"A",436,1292
"904","load",1008,"exp",12,4,3,"B",597,941
"905","load",1008,"exp",12,5,8,"A",715,924
"906","load",1008,"exp",12,6,6,"B",531,1132
"907","load",1008,"exp",12,7,7,"B",798,580
"908","load",1008,"exp",12,8,9,"B",403,2408
"909","load",1008,"exp",12,9,1,"A",902,1467
"910","load",1008,"exp",12,10,2,"A",904,1467
"911","load",1009,"prac",0,1,98,"A",10093,1674
"912","load",1009,"prac",0,2,99,"B",2325,2776
"913","load",1009,"prac",0,3,98,"A",1541,2016
"914","load",1009,"prac",0,4,98,"A",1590,2423
"915","load",1009,"prac",0,5,99,"B",1859,2842
"916","load",1009,"prac",0,6,99,"B",1408,1835
"917","load",1009,"prac",0,7,99,"B",1176,2391
"918","load",1009,"prac",0,8,98,"A",2052,2001
"919","load",1009,"prac",0,9,98,"A",2055,1542
"920","load",1009,"prac",0,10,99,"B",2601,1542
"921","load",1009,"exp",1,1,7,"A",5407,2717
"922","load",1009,"exp",1,2,3,"B",3893,5397
"923","load",1009,"exp",1,3,4,"A",1720,4130
"924","load",1009,"exp",1,4,5,"B",2158,1698
"925","load",1009,"exp",1,5,1,"A",1819,3912
"926","load",1009,"exp",1,6,2,"A",1210,4459
"927","load",1009,"exp",1,7,8,"A",1482,3159
"928","load",1009,"exp",1,8,9,"B",2248,5721
"929","load",1009,"exp",1,9,10,"B",2999,3811
"930","load",1009,"exp",1,10,6,"B",1142,3811
"931","load",1009,"exp",2,1,3,"B",1181,2460
"932","load",1009,"exp",2,2,5,"A",1176,4038
"933","load",1009,"exp",2,3,4,"A",964,1975
"934","load",1009,"exp",2,4,8,"A",972,4591
"935","load",1009,"exp",2,5,2,"A",1605,2890
"936","load",1009,"exp",2,6,9,"B",1268,9445
"937","load",1009,"exp",2,7,1,"A",2458,4776
"938","load",1009,"exp",2,8,7,"B",1051,4256
"939","load",1009,"exp",2,9,10,"B",1944,1601
"940","load",1009,"exp",2,10,6,"B",1261,1601
"941","load",1009,"exp",3,1,2,"A",1966,3707
"942","load",1009,"exp",3,2,7,"B",1884,2055
"943","load",1009,"exp",3,3,10,"B",1199,3170
"944","load",1009,"exp",3,4,1,"A",1214,2295
"945","load",1009,"exp",3,5,4,"A",1018,3481
"946","load",1009,"exp",3,6,5,"A",1392,1961
"947","load",1009,"exp",3,7,8,"A",1364,2391
"948","load",1009,"exp",3,8,3,"B",2473,4314
"949","load",1009,"exp",3,9,9,"B",1334,3270
"950","load",1009,"exp",3,10,6,"B",2338,3270
"951","load",1009,"exp",4,1,6,"B",1933,4003
"952","load",1009,"exp",4,2,5,"A",584,1807
"953","load",1009,"exp",4,3,9,"B",1539,1514
"954","load",1009,"exp",4,4,7,"B",1606,1240
"955","load",1009,"exp",4,5,4,"A",1341,6281
"956","load",1009,"exp",4,6,1,"A",1239,3206
"957","load",1009,"exp",4,7,10,"B",1895,1572
"958","load",1009,"exp",4,8,2,"B",3185,3362
"959","load",1009,"exp",4,9,8,"A",1427,3715
"960","load",1009,"exp",4,10,3,"B",1045,3715
"961","load",1009,"exp",5,1,5,"A",1109,2662
"962","load",1009,"exp",5,2,1,"A",1108,3188
"963","load",1009,"exp",5,3,9,"B",960,1891
"964","load",1009,"exp",5,4,10,"B",1133,2696
"965","load",1009,"exp",5,5,4,"A",1081,1795
"966","load",1009,"exp",5,6,8,"A",1153,1896
"967","load",1009,"exp",5,7,7,"B",939,3114
"968","load",1009,"exp",5,8,3,"B",1152,2663
"969","load",1009,"exp",5,9,6,"B",893,3793
"970","load",1009,"exp",5,10,2,"A",725,3793
"971","load",1009,"exp",6,1,4,"A",1078,1714
"972","load",1009,"exp",6,2,5,"A",556,2716
"973","load",1009,"exp",6,3,1,"A",779,921
"974","load",1009,"exp",6,4,7,"B",870,2631
"975","load",1009,"exp",6,5,6,"B",939,1739
"976","load",1009,"exp",6,6,2,"A",522,1605
"977","load",1009,"exp",6,7,9,"B",2119,1635
"978","load",1009,"exp",6,8,3,"B",1303,2093
"979","load",1009,"exp",6,9,8,"A",512,1512
"980","load",1009,"exp",6,10,10,"B",1298,1512
"981","load",1009,"exp",7,1,2,"A",1142,2524
"982","load",1009,"exp",7,2,5,"A",1440,3091
"983","load",1009,"exp",7,3,10,"B",666,1171
"984","load",1009,"exp",7,4,1,"A",1001,626
"985","load",1009,"exp",7,5,8,"B",2158,816
"986","load",1009,"exp",7,6,6,"B",919,884
"987","load",1009,"exp",7,7,3,"B",200,2242
"988","load",1009,"exp",7,8,7,"B",569,4251
"989","load",1009,"exp",7,9,4,"A",968,909
"990","load",1009,"exp",7,10,9,"B",955,909
"991","load",1009,"exp",8,1,8,"A",636,1547
"992","load",1009,"exp",8,2,5,"A",1710,3767
"993","load",1009,"exp",8,3,1,"A",746,1954
"994","load",1009,"exp",8,4,9,"B",1000,626
"995","load",1009,"exp",8,5,4,"A",447,1195
"996","load",1009,"exp",8,6,7,"B",1024,976
"997","load",1009,"exp",8,7,10,"B",1221,3899
"998","load",1009,"exp",8,8,2,"A",838,1586
"999","load",1009,"exp",8,9,3,"B",667,1731
"1000","load",1009,"exp",8,10,6,"B",505,1731
"1001","load",1009,"exp",9,1,3,"A",1930,3564
"1002","load",1009,"exp",9,2,2,"A",98,4121
"1003","load",1009,"exp",9,3,1,"A",490,3581
"1004","load",1009,"exp",9,4,8,"B",110,3046
"1005","load",1009,"exp",9,5,7,"B",2422,3053
"1006","load",1009,"exp",9,6,5,"B",1161,2740
"1007","load",1009,"exp",9,7,10,"A",861,1660
"1008","load",1009,"exp",9,8,4,"A",891,1761
"1009","load",1009,"exp",9,9,6,"B",1483,2757
"1010","load",1009,"exp",9,10,9,"B",933,2757
"1011","load",1009,"exp",10,1,8,"B",1602,2359
"1012","load",1009,"exp",10,2,7,"B",499,905
"1013","load",1009,"exp",10,3,3,"A",432,1736
"1014","load",1009,"exp",10,4,4,"A",458,1497
"1015","load",1009,"exp",10,5,10,"A",1344,2340
"1016","load",1009,"exp",10,6,9,"B",26,1570
"1017","load",1009,"exp",10,7,6,"B",178,1031
"1018","load",1009,"exp",10,8,2,"A",1351,3719
"1019","load",1009,"exp",10,9,1,"A",771,1424
"1020","load",1009,"exp",10,10,5,"B",355,1424
"1021","load",1009,"exp",11,1,1,"A",637,1245
"1022","load",1009,"exp",11,2,7,"B",446,824
"1023","load",1009,"exp",11,3,5,"B",925,920
"1024","load",1009,"exp",11,4,3,"A",484,2247
"1025","load",1009,"exp",11,5,10,"A",582,1051
"1026","load",1009,"exp",11,6,9,"B",679,4721
"1027","load",1009,"exp",11,7,4,"A",197,1001
"1028","load",1009,"exp",11,8,8,"B",813,852
"1029","load",1009,"exp",11,9,2,"A",189,2662
"1030","load",1009,"exp",11,10,6,"B",1302,2662
"1031","load",1009,"exp",12,1,8,"A",714,2617
"1032","load",1009,"exp",12,2,10,"B",379,1783
"1033","load",1009,"exp",12,3,4,"A",532,2243
"1034","load",1009,"exp",12,4,2,"A",478,1489
"1035","load",1009,"exp",12,5,3,"B",567,1547
"1036","load",1009,"exp",12,6,5,"A",1060,6717
"1037","load",1009,"exp",12,7,9,"B",435,3659
"1038","load",1009,"exp",12,8,6,"B",996,1784
"1039","load",1009,"exp",12,9,7,"B",113,1720
"1040","load",1009,"exp",12,10,1,"A",2543,1720
"1041","load",1010,"prac",0,1,99,"B",19551,1095
"1042","load",1010,"prac",0,2,99,"A",16404,1029
"1043","load",1010,"prac",0,3,98,"A",11562,10650
"1044","load",1010,"prac",0,4,99,"B",888,5163
"1045","load",1010,"prac",0,5,98,"A",1176,1638
"1046","load",1010,"prac",0,6,99,"B",2984,2243
"1047","load",1010,"prac",0,7,99,"B",1568,1657
"1048","load",1010,"prac",0,8,98,"A",2170,752
"1049","load",1010,"prac",0,9,98,"A",1244,1972
"1050","load",1010,"prac",0,10,98,"A",69,1972
"1051","load",1010,"exp",1,1,8,"B",3127,702
"1052","load",1010,"exp",1,2,6,"B",344,1485
"1053","load",1010,"exp",1,3,10,"B",553,2313
"1054","load",1010,"exp",1,4,3,"A",1980,1435
"1055","load",1010,"exp",1,5,4,"A",438,6948
"1056","load",1010,"exp",1,6,9,"B",382,3451
"1057","load",1010,"exp",1,7,1,"A",2022,1675
"1058","load",1010,"exp",1,8,5,"A",1086,2330
"1059","load",1010,"exp",1,9,2,"A",193,1754
"1060","load",1010,"exp",1,10,7,"B",1782,1754
"1061","load",1010,"exp",2,1,7,"B",227,3636
"1062","load",1010,"exp",2,2,3,"A",1352,2937
"1063","load",1010,"exp",2,3,9,"B",585,1746
"1064","load",1010,"exp",2,4,1,"A",151,1703
"1065","load",1010,"exp",2,5,4,"A",168,1676
"1066","load",1010,"exp",2,6,6,"B",1094,2085
"1067","load",1010,"exp",2,7,5,"A",338,2810
"1068","load",1010,"exp",2,8,8,"A",1670,3592
"1069","load",1010,"exp",2,9,10,"B",3335,1813
"1070","load",1010,"exp",2,10,2,"A",2328,1813
"1071","load",1010,"exp",3,1,9,"B",1573,1571
"1072","load",1010,"exp",3,2,8,"A",840,1330
"1073","load",1010,"exp",3,3,2,"A",152,1463
"1074","load",1010,"exp",3,4,10,"B",1358,1890
"1075","load",1010,"exp",3,5,3,"A",214,2227
"1076","load",1010,"exp",3,6,4,"A",1536,2743
"1077","load",1010,"exp",3,7,5,"B",1430,1269
"1078","load",1010,"exp",3,8,1,"A",247,2890
"1079","load",1010,"exp",3,9,6,"B",646,2088
"1080","load",1010,"exp",3,10,7,"B",1357,2088
"1081","load",1010,"exp",4,1,7,"B",779,2488
"1082","load",1010,"exp",4,2,10,"A",1670,1880
"1083","load",1010,"exp",4,3,9,"B",984,1085
"1084","load",1010,"exp",4,4,5,"A",871,694
"1085","load",1010,"exp",4,5,3,"B",1208,748
"1086","load",1010,"exp",4,6,4,"B",3810,689
"1087","load",1010,"exp",4,7,1,"A",1236,3615
"1088","load",1010,"exp",4,8,6,"B",1715,2060
"1089","load",1010,"exp",4,9,2,"A",1519,1683
"1090","load",1010,"exp",4,10,8,"A",956,1683
"1091","load",1010,"exp",5,1,4,"A",1232,16826
"1092","load",1010,"exp",5,2,6,"B",975,3110
"1093","load",1010,"exp",5,3,7,"B",1342,2063
"1094","load",1010,"exp",5,4,3,"A",131,1841
"1095","load",1010,"exp",5,5,2,"B",1012,1855
"1096","load",1010,"exp",5,6,10,"B",727,1194
"1097","load",1010,"exp",5,7,9,"A",1149,1000
"1098","load",1010,"exp",5,8,1,"B",1938,599
"1099","load",1010,"exp",5,9,8,"A",95,1637
"1100","load",1010,"exp",5,10,5,"B",1504,1637
"1101","load",1010,"exp",6,1,6,"B",556,1786
"1102","load",1010,"exp",6,2,4,"A",541,2218
"1103","load",1010,"exp",6,3,5,"B",696,1943
"1104","load",1010,"exp",6,4,9,"B",117,1533
"1105","load",1010,"exp",6,5,2,"A",14,1746
"1106","load",1010,"exp",6,6,10,"A",1599,1012
"1107","load",1010,"exp",6,7,7,"B",377,1415
"1108","load",1010,"exp",6,8,3,"B",1561,1013
"1109","load",1010,"exp",6,9,1,"A",490,2142
"1110","load",1010,"exp",6,10,8,"B",2030,2142
"1111","load",1010,"exp",7,1,10,"B",1428,1013
"1112","load",1010,"exp",7,2,2,"A",966,696
"1113","load",1010,"exp",7,3,8,"A",1216,887
"1114","load",1010,"exp",7,4,1,"A",150,1255
"1115","load",1010,"exp",7,5,9,"B",639,2146
"1116","load",1010,"exp",7,6,7,"B",285,2729
"1117","load",1010,"exp",7,7,4,"A",1409,1868
"1118","load",1010,"exp",7,8,6,"B",935,1398
"1119","load",1010,"exp",7,9,5,"A",555,1705
"1120","load",1010,"exp",7,10,3,"A",1038,1705
"1121","load",1010,"exp",8,1,6,"B",936,936
"1122","load",1010,"exp",8,2,7,"B",418,1331
"1123","load",1010,"exp",8,3,3,"A",335,1222
"1124","load",1010,"exp",8,4,9,"B",336,1190
"1125","load",1010,"exp",8,5,1,"A",283,2117
"1126","load",1010,"exp",8,6,8,"A",206,2057
"1127","load",1010,"exp",8,7,10,"B",592,2584
"1128","load",1010,"exp",8,8,2,"A",484,2951
"1129","load",1010,"exp",8,9,5,"B",92,2240
"1130","load",1010,"exp",8,10,4,"A",2004,2240
"1131","load",1010,"exp",9,1,4,"A",1149,1686
"1132","load",1010,"exp",9,2,5,"B",97,1494
"1133","load",1010,"exp",9,3,10,"A",1198,2897
"1134","load",1010,"exp",9,4,7,"B",829,1782
"1135","load",1010,"exp",9,5,3,"A",248,1885
"1136","load",1010,"exp",9,6,8,"B",198,1649
"1137","load",1010,"exp",9,7,1,"A",441,1476
"1138","load",1010,"exp",9,8,6,"B",382,1916
"1139","load",1010,"exp",9,9,2,"A",856,1319
"1140","load",1010,"exp",9,10,9,"B",920,1319
"1141","load",1010,"exp",10,1,3,"A",539,1048
"1142","load",1010,"exp",10,2,7,"B",856,2054
"1143","load",1010,"exp",10,3,6,"B",270,2087
"1144","load",1010,"exp",10,4,10,"B",1080,1666
"1145","load",1010,"exp",10,5,5,"A",704,1601
"1146","load",1010,"exp",10,6,8,"A",1669,1428
"1147","load",1010,"exp",10,7,4,"A",1129,1504
"1148","load",1010,"exp",10,8,9,"B",782,956
"1149","load",1010,"exp",10,9,1,"A",620,2344
"1150","load",1010,"exp",10,10,2,"A",574,2344
"1151","load",1010,"exp",11,1,9,"B",1185,22579
"1152","load",1010,"exp",11,2,10,"B",370,1292
"1153","load",1010,"exp",11,3,5,"A",1398,1327
"1154","load",1010,"exp",11,4,7,"B",680,1251
"1155","load",1010,"exp",11,5,3,"A",608,1419
"1156","load",1010,"exp",11,6,6,"B",273,1369
"1157","load",1010,"exp",11,7,4,"A",356,892
"1158","load",1010,"exp",11,8,8,"A",1784,418
"1159","load",1010,"exp",11,9,1,"A",346,450
"1160","load",1010,"exp",11,10,2,"A",645,450
"1161","load",1010,"exp",12,1,3,"A",570,737
"1162","load",1010,"exp",12,2,4,"A",653,534
"1163","load",1010,"exp",12,3,10,"B",535,1395
"1164","load",1010,"exp",12,4,6,"B",562,661
"1165","load",1010,"exp",12,5,1,"A",765,1530
"1166","load",1010,"exp",12,6,7,"B",851,593
"1167","load",1010,"exp",12,7,9,"B",2315,2477
"1168","load",1010,"exp",12,8,5,"A",1020,1307
"1169","load",1010,"exp",12,9,2,"A",1047,1610
"1170","load",1010,"exp",12,10,8,"B",1164,1610
"1171","load",1011,"prac",0,1,98,"A",987,12200
"1172","load",1011,"prac",0,2,98,"A",1485,1352
"1173","load",1011,"prac",0,3,99,"B",1515,1677
"1174","load",1011,"prac",0,4,99,"B",752,552
"1175","load",1011,"prac",0,5,99,"B",872,601
"1176","load",1011,"prac",0,6,98,"A",1197,1067
"1177","load",1011,"prac",0,7,99,"B",1274,857
"1178","load",1011,"prac",0,8,99,"B",460,746
"1179","load",1011,"prac",0,9,98,"A",1377,839
"1180","load",1011,"prac",0,10,98,"A",1099,839
"1181","load",1011,"exp",1,1,3,"B",809,6955
"1182","load",1011,"exp",1,2,2,"A",1339,1577
"1183","load",1011,"exp",1,3,10,"B",2139,249
"1184","load",1011,"exp",1,4,4,"A",861,8794
"1185","load",1011,"exp",1,5,6,"B",777,1544
"1186","load",1011,"exp",1,6,9,"B",634,1706
"1187","load",1011,"exp",1,7,7,"B",1179,969
"1188","load",1011,"exp",1,8,8,"A",1160,2291
"1189","load",1011,"exp",1,9,5,"A",918,2609
"1190","load",1011,"exp",1,10,1,"A",796,2609
"1191","load",1011,"exp",2,1,6,"B",1766,1705
"1192","load",1011,"exp",2,2,4,"A",392,793
"1193","load",1011,"exp",2,3,2,"A",730,2300
"1194","load",1011,"exp",2,4,1,"A",1391,631
"1195","load",1011,"exp",2,5,8,"A",760,1171
"1196","load",1011,"exp",2,6,9,"B",1041,420
"1197","load",1011,"exp",2,7,3,"A",2569,4700
"1198","load",1011,"exp",2,8,10,"B",1054,420
"1199","load",1011,"exp",2,9,7,"B",1015,2999
"1200","load",1011,"exp",2,10,5,"A",1998,2999
"1201","load",1011,"exp",3,1,5,"B",971,1186
"1202","load",1011,"exp",3,2,8,"B",814,694
"1203","load",1011,"exp",3,3,3,"A",905,3059
"1204","load",1011,"exp",3,4,2,"A",677,621
"1205","load",1011,"exp",3,5,7,"B",753,455
"1206","load",1011,"exp",3,6,10,"B",459,455
"1207","load",1011,"exp",3,7,1,"A",541,2492
"1208","load",1011,"exp",3,8,6,"B",403,498
"1209","load",1011,"exp",3,9,9,"B",3998,2262
"1210","load",1011,"exp",3,10,4,"A",411,2262
"1211","load",1011,"exp",4,1,9,"B",5447,4383
"1212","load",1011,"exp",4,2,7,"B",1655,1893
"1213","load",1011,"exp",4,3,6,"B",1259,2041
"1214","load",1011,"exp",4,4,3,"B",1012,1794
"1215","load",1011,"exp",4,5,2,"A",1947,1155
"1216","load",1011,"exp",4,6,8,"A",764,3479
"1217","load",1011,"exp",4,7,10,"A",747,4242
"1218","load",1011,"exp",4,8,1,"A",764,2614
"1219","load",1011,"exp",4,9,4,"A",1845,1927
"1220","load",1011,"exp",4,10,5,"A",1083,1927
"1221","load",1011,"exp",5,1,7,"B",902,1630
"1222","load",1011,"exp",5,2,8,"B",729,954
"1223","load",1011,"exp",5,3,10,"A",842,2278
"1224","load",1011,"exp",5,4,4,"B",1656,2614
"1225","load",1011,"exp",5,5,9,"B",732,768
"1226","load",1011,"exp",5,6,1,"A",1595,1565
"1227","load",1011,"exp",5,7,2,"A",891,1986
"1228","load",1011,"exp",5,8,5,"A",325,3607
"1229","load",1011,"exp",5,9,3,"A",964,5269
"1230","load",1011,"exp",5,10,6,"B",1079,5269
"1231","load",1011,"exp",6,1,8,"B",879,4174
"1232","load",1011,"exp",6,2,10,"B",732,1344
"1233","load",1011,"exp",6,3,4,"A",1223,1986
"1234","load",1011,"exp",6,4,2,"A",748,1718
"1235","load",1011,"exp",6,5,1,"A",573,1010
"1236","load",1011,"exp",6,6,5,"A",1063,2316
"1237","load",1011,"exp",6,7,6,"B",3231,1466
"1238","load",1011,"exp",6,8,9,"B",1864,833
"1239","load",1011,"exp",6,9,3,"A",2407,2555
"1240","load",1011,"exp",6,10,7,"B",1724,2555
"1241","load",1011,"exp",7,1,2,"A",1007,1177
"1242","load",1011,"exp",7,2,5,"A",1815,1304
"1243","load",1011,"exp",7,3,4,"A",2235,894
"1244","load",1011,"exp",7,4,8,"B",1518,1442
"1245","load",1011,"exp",7,5,7,"B",1438,1475
"1246","load",1011,"exp",7,6,3,"A",1631,4631
"1247","load",1011,"exp",7,7,10,"B",487,522
"1248","load",1011,"exp",7,8,9,"B",1148,598
"1249","load",1011,"exp",7,9,1,"A",691,1089
"1250","load",1011,"exp",7,10,6,"B",670,1089
"1251","load",1011,"exp",8,1,1,"A",1296,1635
"1252","load",1011,"exp",8,2,7,"B",562,995
"1253","load",1011,"exp",8,3,6,"B",783,1068
"1254","load",1011,"exp",8,4,2,"A",824,913
"1255","load",1011,"exp",8,5,5,"A",892,1618
"1256","load",1011,"exp",8,6,8,"B",1046,760
"1257","load",1011,"exp",8,7,10,"B",1218,1624
"1258","load",1011,"exp",8,8,9,"B",693,1188
"1259","load",1011,"exp",8,9,3,"A",472,1354
"1260","load",1011,"exp",8,10,4,"A",752,1354
"1261","load",1011,"exp",9,1,6,"B",584,2446
"1262","load",1011,"exp",9,2,8,"B",670,905
"1263","load",1011,"exp",9,3,10,"B",2667,1373
"1264","load",1011,"exp",9,4,4,"A",1611,1312
"1265","load",1011,"exp",9,5,5,"A",766,1321
"1266","load",1011,"exp",9,6,3,"B",1399,7923
"1267","load",1011,"exp",9,7,1,"A",688,2572
"1268","load",1011,"exp",9,8,9,"B",374,579
"1269","load",1011,"exp",9,9,2,"A",1270,1095
"1270","load",1011,"exp",9,10,7,"B",1465,1095
"1271","load",1011,"exp",10,1,9,"B",593,1672
"1272","load",1011,"exp",10,2,7,"B",630,1302
"1273","load",1011,"exp",10,3,1,"A",538,1415
"1274","load",1011,"exp",10,4,5,"A",761,1636
"1275","load",1011,"exp",10,5,10,"B",1212,2931
"1276","load",1011,"exp",10,6,6,"B",1111,2039
"1277","load",1011,"exp",10,7,2,"A",412,2016
"1278","load",1011,"exp",10,8,3,"B",1578,1354
"1279","load",1011,"exp",10,9,8,"B",1180,731
"1280","load",1011,"exp",10,10,4,"A",525,731
"1281","load",1011,"exp",11,1,10,"B",534,963
"1282","load",1011,"exp",11,2,5,"A",664,1313
"1283","load",1011,"exp",11,3,4,"A",527,346
"1284","load",1011,"exp",11,4,1,"A",874,777
"1285","load",1011,"exp",11,5,8,"B",704,494
"1286","load",1011,"exp",11,6,3,"A",3415,1527
"1287","load",1011,"exp",11,7,6,"B",502,509
"1288","load",1011,"exp",11,8,9,"B",459,440
"1289","load",1011,"exp",11,9,7,"B",7981,1842
"1290","load",1011,"exp",11,10,2,"A",2175,1842
"1291","load",1011,"exp",12,1,4,"A",1615,2436
"1292","load",1011,"exp",12,2,5,"A",837,2811
"1293","load",1011,"exp",12,3,10,"B",537,1431
"1294","load",1011,"exp",12,4,6,"B",1241,2324
"1295","load",1011,"exp",12,5,3,"A",694,2309
"1296","load",1011,"exp",12,6,7,"B",774,1556
"1297","load",1011,"exp",12,7,2,"A",1498,809
"1298","load",1011,"exp",12,8,1,"A",404,8422
"1299","load",1011,"exp",12,9,9,"B",441,1956
"1300","load",1011,"exp",12,10,8,"B",1195,1956
"1301","load",1012,"prac",0,1,98,"A",2258,16633
"1302","load",1012,"prac",0,2,98,"A",2108,4500
"1303","load",1012,"prac",0,3,98,"A",2200,16149
"1304","load",1012,"prac",0,4,98,"A",327,712
"1305","load",1012,"prac",0,5,98,"A",1809,764
"1306","load",1012,"prac",0,6,99,"B",809,1132
"1307","load",1012,"prac",0,7,99,"B",557,1551
"1308","load",1012,"prac",0,8,99,"B",609,2124
"1309","load",1012,"prac",0,9,99,"B",1802,568
"1310","load",1012,"prac",0,10,99,"B",584,568
"1311","load",1012,"exp",1,1,8,"A",2074,5708
"1312","load",1012,"exp",1,2,2,"A",453,8353
"1313","load",1012,"exp",1,3,1,"A",538,8140
"1314","load",1012,"exp",1,4,3,"B",1296,1079
"1315","load",1012,"exp",1,5,10,"B",1230,4902
"1316","load",1012,"exp",1,6,7,"B",1338,4842
"1317","load",1012,"exp",1,7,6,"B",1249,3451
"1318","load",1012,"exp",1,8,5,"B",1308,6999
"1319","load",1012,"exp",1,9,4,"A",1411,3985
"1320","load",1012,"exp",1,10,9,"B",1065,3985
"1321","load",1012,"exp",2,1,4,"A",903,8445
"1322","load",1012,"exp",2,2,5,"A",1129,3771
"1323","load",1012,"exp",2,3,1,"A",621,41547
"1324","load",1012,"exp",2,4,8,"A",687,1864
"1325","load",1012,"exp",2,5,7,"B",942,3259
"1326","load",1012,"exp",2,6,9,"B",567,3097
"1327","load",1012,"exp",2,7,10,"B",900,2379
"1328","load",1012,"exp",2,8,6,"B",874,1866
"1329","load",1012,"exp",2,9,2,"A",634,2251
"1330","load",1012,"exp",2,10,3,"B",3241,2251
"1331","load",1012,"exp",3,1,2,"A",496,8069
"1332","load",1012,"exp",3,2,3,"A",1251,4003
"1333","load",1012,"exp",3,3,5,"B",725,3815
"1334","load",1012,"exp",3,4,9,"B",631,4968
"1335","load",1012,"exp",3,5,1,"A",529,7564
"1336","load",1012,"exp",3,6,6,"B",1272,6345
"1337","load",1012,"exp",3,7,4,"A",598,1630
"1338","load",1012,"exp",3,8,7,"B",624,1935
"1339","load",1012,"exp",3,9,10,"A",1281,2709
"1340","load",1012,"exp",3,10,8,"B",844,2709
"1341","load",1012,"exp",4,1,4,"A",633,2764
"1342","load",1012,"exp",4,2,1,"A",987,3908
"1343","load",1012,"exp",4,3,5,"B",823,1869
"1344","load",1012,"exp",4,4,10,"A",1086,4217
"1345","load",1012,"exp",4,5,3,"A",1451,4479
"1346","load",1012,"exp",4,6,7,"B",1114,7834
"1347","load",1012,"exp",4,7,9,"B",1003,1958
"1348","load",1012,"exp",4,8,8,"B",664,1843
"1349","load",1012,"exp",4,9,6,"B",575,1573
"1350","load",1012,"exp",4,10,2,"A",976,1573
"1351","load",1012,"exp",5,1,4,"A",902,768
"1352","load",1012,"exp",5,2,6,"B",649,2029
"1353","load",1012,"exp",5,3,3,"A",2112,11355
"1354","load",1012,"exp",5,4,1,"A",1757,3009
"1355","load",1012,"exp",5,5,8,"B",636,3469
"1356","load",1012,"exp",5,6,10,"A",775,2597
"1357","load",1012,"exp",5,7,9,"B",1101,2381
"1358","load",1012,"exp",5,8,5,"B",702,7242
"1359","load",1012,"exp",5,9,7,"B",751,3831
"1360","load",1012,"exp",5,10,2,"A",1258,3831
"1361","load",1012,"exp",6,1,10,"B",739,1924
"1362","load",1012,"exp",6,2,3,"A",729,813
"1363","load",1012,"exp",6,3,6,"B",632,2313
"1364","load",1012,"exp",6,4,1,"A",859,3578
"1365","load",1012,"exp",6,5,4,"B",526,11305
"1366","load",1012,"exp",6,6,5,"A",716,1340
"1367","load",1012,"exp",6,7,8,"B",415,5539
"1368","load",1012,"exp",6,8,9,"A",788,5013
"1369","load",1012,"exp",6,9,7,"B",859,2665
"1370","load",1012,"exp",6,10,2,"A",879,2665
"1371","load",1012,"exp",7,1,10,"B",821,5484
"1372","load",1012,"exp",7,2,2,"A",455,2549
"1373","load",1012,"exp",7,3,7,"B",908,2838
"1374","load",1012,"exp",7,4,8,"A",748,9141
"1375","load",1012,"exp",7,5,9,"B",843,2949
"1376","load",1012,"exp",7,6,1,"A",556,4893
"1377","load",1012,"exp",7,7,3,"B",544,2242
"1378","load",1012,"exp",7,8,4,"A",471,1270
"1379","load",1012,"exp",7,9,5,"A",808,1757
"1380","load",1012,"exp",7,10,6,"B",913,1757
"1381","load",1012,"exp",8,1,9,"B",699,5499
"1382","load",1012,"exp",8,2,8,"B",638,1456
"1383","load",1012,"exp",8,3,7,"B",956,5050
"1384","load",1012,"exp",8,4,10,"A",523,10376
"1385","load",1012,"exp",8,5,2,"A",1050,4748
"1386","load",1012,"exp",8,6,1,"A",903,2924
"1387","load",1012,"exp",8,7,5,"A",1240,15505
"1388","load",1012,"exp",8,8,6,"B",452,1681
"1389","load",1012,"exp",8,9,4,"A",669,1157
"1390","load",1012,"exp",8,10,3,"A",755,1157
"1391","load",1012,"exp",9,1,6,"B",478,2545
"1392","load",1012,"exp",9,2,4,"B",469,3333
"1393","load",1012,"exp",9,3,5,"A",486,2521
"1394","load",1012,"exp",9,4,10,"B",460,2186
"1395","load",1012,"exp",9,5,7,"B",439,2962
"1396","load",1012,"exp",9,6,3,"A",507,3572
"1397","load",1012,"exp",9,7,1,"A",999,7682
"1398","load",1012,"exp",9,8,2,"A",723,1799
"1399","load",1012,"exp",9,9,8,"B",826,1428
"1400","load",1012,"exp",9,10,9,"A",565,1428
"1401","load",1012,"exp",10,1,2,"A",756,19869
"1402","load",1012,"exp",10,2,7,"B",651,1759
"1403","load",1012,"exp",10,3,1,"A",608,2699
"1404","load",1012,"exp",10,4,4,"A",1177,3799
"1405","load",1012,"exp",10,5,5,"B",870,2343
"1406","load",1012,"exp",10,6,3,"A",431,5462
"1407","load",1012,"exp",10,7,8,"B",503,2957
"1408","load",1012,"exp",10,8,6,"B",507,9732
"1409","load",1012,"exp",10,9,10,"B",530,3083
"1410","load",1012,"exp",10,10,9,"B",524,3083
"1411","load",1012,"exp",11,1,6,"B",651,1843
"1412","load",1012,"exp",11,2,1,"A",535,4276
"1413","load",1012,"exp",11,3,4,"A",1166,10633
"1414","load",1012,"exp",11,4,10,"A",513,1177
"1415","load",1012,"exp",11,5,2,"A",30,3925
"1416","load",1012,"exp",11,6,5,"B",656,9443
"1417","load",1012,"exp",11,7,8,"B",497,4373
"1418","load",1012,"exp",11,8,7,"B",466,5059
"1419","load",1012,"exp",11,9,3,"A",429,2068
"1420","load",1012,"exp",11,10,9,"B",398,2068
"1421","load",1012,"exp",12,1,8,"B",486,1209
"1422","load",1012,"exp",12,2,7,"B",436,2493
"1423","load",1012,"exp",12,3,2,"A",960,3229
"1424","load",1012,"exp",12,4,4,"A",563,1847
"1425","load",1012,"exp",12,5,3,"A",505,1681
"1426","load",1012,"exp",12,6,1,"A",348,13718
"1427","load",1012,"exp",12,7,10,"A",410,6204
"1428","load",1012,"exp",12,8,5,"B",698,4678
"1429","load",1012,"exp",12,9,9,"B",633,1161
"1430","load",1012,"exp",12,10,6,"B",793,1161
"1431","load",1013,"prac",0,1,99,"B",23727,5166
"1432","load",1013,"prac",0,2,98,"A",523,5255
"1433","load",1013,"prac",0,3,99,"B",564,2375
"1434","load",1013,"prac",0,4,99,"B",973,1138
"1435","load",1013,"prac",0,5,98,"A",343,2060
"1436","load",1013,"prac",0,6,99,"B",646,843
"1437","load",1013,"prac",0,7,99,"B",616,1397
"1438","load",1013,"prac",0,8,98,"A",834,1743
"1439","load",1013,"prac",0,9,98,"A",1462,1213
"1440","load",1013,"prac",0,10,98,"A",812,1213
"1441","load",1013,"exp",1,1,4,"A",2133,2516
"1442","load",1013,"exp",1,2,3,"B",1422,2478
"1443","load",1013,"exp",1,3,9,"B",1605,1511
"1444","load",1013,"exp",1,4,10,"B",796,1776
"1445","load",1013,"exp",1,5,8,"B",1355,1242
"1446","load",1013,"exp",1,6,6,"A",1273,634
"1447","load",1013,"exp",1,7,1,"A",620,877
"1448","load",1013,"exp",1,8,2,"A",553,568
"1449","load",1013,"exp",1,9,7,"B",1024,402
"1450","load",1013,"exp",1,10,5,"A",833,402
"1451","load",1013,"exp",2,1,3,"B",1343,2076
"1452","load",1013,"exp",2,2,7,"B",852,628
"1453","load",1013,"exp",2,3,8,"B",2100,2717
"1454","load",1013,"exp",2,4,2,"A",1213,1650
"1455","load",1013,"exp",2,5,4,"A",902,2427
"1456","load",1013,"exp",2,6,10,"A",978,1269
"1457","load",1013,"exp",2,7,9,"B",1001,1092
"1458","load",1013,"exp",2,8,1,"A",576,358
"1459","load",1013,"exp",2,9,5,"B",794,1899
"1460","load",1013,"exp",2,10,6,"A",842,1899
"1461","load",1013,"exp",3,1,8,"B",815,901
"1462","load",1013,"exp",3,2,9,"B",519,2546
"1463","load",1013,"exp",3,3,10,"B",683,613
"1464","load",1013,"exp",3,4,6,"B",857,662
"1465","load",1013,"exp",3,5,1,"A",1124,1048
"1466","load",1013,"exp",3,6,5,"A",729,558
"1467","load",1013,"exp",3,7,2,"A",614,371
"1468","load",1013,"exp",3,8,4,"A",797,1806
"1469","load",1013,"exp",3,9,7,"B",927,6138
"1470","load",1013,"exp",3,10,3,"B",1002,6138
"1471","load",1013,"exp",4,1,5,"B",573,641
"1472","load",1013,"exp",4,2,3,"A",824,780
"1473","load",1013,"exp",4,3,4,"A",617,744
"1474","load",1013,"exp",4,4,2,"A",761,706
"1475","load",1013,"exp",4,5,8,"B",693,485
"1476","load",1013,"exp",4,6,9,"B",973,469
"1477","load",1013,"exp",4,7,1,"A",462,666
"1478","load",1013,"exp",4,8,10,"B",1190,375
"1479","load",1013,"exp",4,9,7,"B",741,890
"1480","load",1013,"exp",4,10,6,"B",725,890
"1481","load",1013,"exp",5,1,2,"A",638,607
"1482","load",1013,"exp",5,2,4,"A",649,621
"1483","load",1013,"exp",5,3,1,"A",613,387
"1484","load",1013,"exp",5,4,3,"B",769,396
"1485","load",1013,"exp",5,5,5,"A",1493,1379
"1486","load",1013,"exp",5,6,7,"B",1320,947
"1487","load",1013,"exp",5,7,10,"B",604,2344
"1488","load",1013,"exp",5,8,8,"B",920,515
"1489","load",1013,"exp",5,9,6,"B",698,1833
"1490","load",1013,"exp",5,10,9,"B",582,1833
"1491","load",1013,"exp",6,1,8,"A",891,785
"1492","load",1013,"exp",6,2,9,"B",462,1259
"1493","load",1013,"exp",6,3,10,"B",715,653
"1494","load",1013,"exp",6,4,5,"B",710,821
"1495","load",1013,"exp",6,5,4,"A",392,937
"1496","load",1013,"exp",6,6,7,"B",1123,1350
"1497","load",1013,"exp",6,7,3,"B",763,666
"1498","load",1013,"exp",6,8,6,"B",653,1363
"1499","load",1013,"exp",6,9,1,"A",630,836
"1500","load",1013,"exp",6,10,2,"A",625,836
"1501","load",1013,"exp",7,1,8,"B",574,1909
"1502","load",1013,"exp",7,2,2,"A",981,555
"1503","load",1013,"exp",7,3,1,"A",581,552
"1504","load",1013,"exp",7,4,4,"A",378,1172
"1505","load",1013,"exp",7,5,10,"B",752,1176
"1506","load",1013,"exp",7,6,7,"B",350,1990
"1507","load",1013,"exp",7,7,5,"B",813,579
"1508","load",1013,"exp",7,8,9,"B",736,645
"1509","load",1013,"exp",7,9,6,"B",769,462
"1510","load",1013,"exp",7,10,3,"B",621,462
"1511","load",1013,"exp",8,1,9,"B",702,844
"1512","load",1013,"exp",8,2,10,"B",541,602
"1513","load",1013,"exp",8,3,5,"B",484,822
"1514","load",1013,"exp",8,4,2,"A",873,536
"1515","load",1013,"exp",8,5,7,"B",821,986
"1516","load",1013,"exp",8,6,4,"A",618,935
"1517","load",1013,"exp",8,7,6,"B",684,646
"1518","load",1013,"exp",8,8,3,"A",571,1409
"1519","load",1013,"exp",8,9,1,"A",570,1132
"1520","load",1013,"exp",8,10,8,"B",795,1132
"1521","load",1013,"exp",9,1,7,"B",583,544
"1522","load",1013,"exp",9,2,10,"B",539,765
"1523","load",1013,"exp",9,3,5,"A",672,521
"1524","load",1013,"exp",9,4,1,"A",403,739
"1525","load",1013,"exp",9,5,3,"A",567,1370
"1526","load",1013,"exp",9,6,6,"B",648,907
"1527","load",1013,"exp",9,7,9,"B",684,647
"1528","load",1013,"exp",9,8,4,"A",380,1081
"1529","load",1013,"exp",9,9,2,"A",559,817
"1530","load",1013,"exp",9,10,8,"B",722,817
"1531","load",1013,"exp",10,1,4,"A",1199,2147
"1532","load",1013,"exp",10,2,10,"B",3493,2566
"1533","load",1013,"exp",10,3,6,"A",1053,2388
"1534","load",1013,"exp",10,4,1,"A",632,678
"1535","load",1013,"exp",10,5,9,"B",413,1075
"1536","load",1013,"exp",10,6,7,"B",894,1140
"1537","load",1013,"exp",10,7,3,"A",630,1737
"1538","load",1013,"exp",10,8,8,"B",902,1163
"1539","load",1013,"exp",10,9,2,"A",957,1677
"1540","load",1013,"exp",10,10,5,"B",2121,1677
"1541","load",1013,"exp",11,1,4,"A",646,473
"1542","load",1013,"exp",11,2,7,"B",921,662
"1543","load",1013,"exp",11,3,1,"A",613,756
"1544","load",1013,"exp",11,4,5,"B",514,1338
"1545","load",1013,"exp",11,5,2,"A",410,701
"1546","load",1013,"exp",11,6,9,"B",796,651
"1547","load",1013,"exp",11,7,8,"A",698,568
"1548","load",1013,"exp",11,8,10,"B",875,458
"1549","load",1013,"exp",11,9,3,"A",573,1922
"1550","load",1013,"exp",11,10,6,"B",511,1922
"1551","load",1013,"exp",12,1,6,"B",714,410
"1552","load",1013,"exp",12,2,10,"B",555,412
"1553","load",1013,"exp",12,3,5,"A",652,626
"1554","load",1013,"exp",12,4,9,"B",536,885
"1555","load",1013,"exp",12,5,4,"A",726,664
"1556","load",1013,"exp",12,6,1,"A",1043,1560
"1557","load",1013,"exp",12,7,8,"B",517,700
"1558","load",1013,"exp",12,8,3,"B",867,772
"1559","load",1013,"exp",12,9,7,"B",716,878
"1560","load",1013,"exp",12,10,2,"A",630,878
"1561","load",1014,"prac",0,1,99,"B",926,1607
"1562","load",1014,"prac",0,2,99,"B",2619,1178
"1563","load",1014,"prac",0,3,98,"A",1577,1274
"1564","load",1014,"prac",0,4,99,"B",341,1544
"1565","load",1014,"prac",0,5,99,"B",905,1234
"1566","load",1014,"prac",0,6,99,"B",3020,1051
"1567","load",1014,"prac",0,7,98,"A",463,2047
"1568","load",1014,"prac",0,8,98,"A",879,1217
"1569","load",1014,"prac",0,9,98,"A",303,1645
"1570","load",1014,"prac",0,10,98,"A",588,1645
"1571","load",1014,"exp",1,1,5,"B",1100,2090
"1572","load",1014,"exp",1,2,8,"B",844,1657
"1573","load",1014,"exp",1,3,4,"A",632,1879
"1574","load",1014,"exp",1,4,6,"B",1024,2866
"1575","load",1014,"exp",1,5,2,"A",1001,2018
"1576","load",1014,"exp",1,6,1,"A",752,1284
"1577","load",1014,"exp",1,7,9,"B",384,1882
"1578","load",1014,"exp",1,8,3,"B",2073,3450
"1579","load",1014,"exp",1,9,10,"B",589,1124
"1580","load",1014,"exp",1,10,7,"B",630,1124
"1581","load",1014,"exp",2,1,1,"A",734,1349
"1582","load",1014,"exp",2,2,4,"A",865,1604
"1583","load",1014,"exp",2,3,9,"B",566,1208
"1584","load",1014,"exp",2,4,8,"B",582,970
"1585","load",1014,"exp",2,5,5,"B",784,797
"1586","load",1014,"exp",2,6,7,"B",443,645
"1587","load",1014,"exp",2,7,2,"A",488,588
"1588","load",1014,"exp",2,8,6,"B",249,781
"1589","load",1014,"exp",2,9,10,"B",233,1465
"1590","load",1014,"exp",2,10,3,"B",2553,1465
"1591","load",1014,"exp",3,1,2,"A",334,1271
"1592","load",1014,"exp",3,2,3,"B",313,1417
"1593","load",1014,"exp",3,3,9,"B",555,954
"1594","load",1014,"exp",3,4,4,"A",1128,4073
"1595","load",1014,"exp",3,5,7,"B",388,1173
"1596","load",1014,"exp",3,6,10,"B",346,384
"1597","load",1014,"exp",3,7,8,"B",355,1289
"1598","load",1014,"exp",3,8,5,"B",389,534
"1599","load",1014,"exp",3,9,1,"A",489,604
"1600","load",1014,"exp",3,10,6,"B",753,604
"1601","load",1014,"exp",4,1,5,"B",587,790
"1602","load",1014,"exp",4,2,9,"B",392,777
"1603","load",1014,"exp",4,3,7,"B",377,1045
"1604","load",1014,"exp",4,4,2,"A",983,846
"1605","load",1014,"exp",4,5,6,"B",32,1191
"1606","load",1014,"exp",4,6,10,"B",896,1076
"1607","load",1014,"exp",4,7,1,"A",839,707
"1608","load",1014,"exp",4,8,8,"B",390,1252
"1609","load",1014,"exp",4,9,3,"B",568,891
"1610","load",1014,"exp",4,10,4,"A",249,891
"1611","load",1014,"exp",5,1,7,"B",634,1292
"1612","load",1014,"exp",5,2,3,"B",327,1562
"1613","load",1014,"exp",5,3,5,"B",366,759
"1614","load",1014,"exp",5,4,2,"A",462,2268
"1615","load",1014,"exp",5,5,8,"B",682,788
"1616","load",1014,"exp",5,6,4,"A",700,795
"1617","load",1014,"exp",5,7,10,"B",530,891
"1618","load",1014,"exp",5,8,9,"B",533,898
"1619","load",1014,"exp",5,9,1,"A",397,1789
"1620","load",1014,"exp",5,10,6,"B",473,1789
"1621","load",1014,"exp",6,1,7,"B",346,629
"1622","load",1014,"exp",6,2,4,"A",550,711
"1623","load",1014,"exp",6,3,2,"A",406,1048
"1624","load",1014,"exp",6,4,1,"A",860,826
"1625","load",1014,"exp",6,5,6,"B",432,1850
"1626","load",1014,"exp",6,6,5,"B",765,1002
"1627","load",1014,"exp",6,7,9,"B",2570,6209
"1628","load",1014,"exp",6,8,8,"B",1046,3482
"1629","load",1014,"exp",6,9,10,"B",631,630
"1630","load",1014,"exp",6,10,3,"B",713,630
"1631","load",1014,"exp",7,1,4,"A",818,682
"1632","load",1014,"exp",7,2,3,"B",416,918
"1633","load",1014,"exp",7,3,10,"B",433,1000
"1634","load",1014,"exp",7,4,8,"A",929,1562
"1635","load",1014,"exp",7,5,7,"B",1324,1192
"1636","load",1014,"exp",7,6,1,"A",1879,12884
"1637","load",1014,"exp",7,7,2,"A",742,1260
"1638","load",1014,"exp",7,8,5,"B",482,804
"1639","load",1014,"exp",7,9,9,"B",929,473
"1640","load",1014,"exp",7,10,6,"B",546,473
"1641","load",1014,"exp",8,1,1,"A",887,875
"1642","load",1014,"exp",8,2,4,"A",1201,1413
"1643","load",1014,"exp",8,3,5,"A",1678,5522
"1644","load",1014,"exp",8,4,3,"B",1230,1652
"1645","load",1014,"exp",8,5,2,"A",486,2217
"1646","load",1014,"exp",8,6,9,"B",653,1173
"1647","load",1014,"exp",8,7,10,"B",2568,2927
"1648","load",1014,"exp",8,8,7,"B",255,1316
"1649","load",1014,"exp",8,9,6,"B",1495,1141
"1650","load",1014,"exp",8,10,8,"B",381,1141
"1651","load",1014,"exp",9,1,2,"A",980,1164
"1652","load",1014,"exp",9,2,3,"B",727,3418
"1653","load",1014,"exp",9,3,7,"B",265,644
"1654","load",1014,"exp",9,4,6,"B",1467,2163
"1655","load",1014,"exp",9,5,8,"B",1037,2031
"1656","load",1014,"exp",9,6,9,"B",329,5932
"1657","load",1014,"exp",9,7,4,"A",345,769
"1658","load",1014,"exp",9,8,5,"B",378,1784
"1659","load",1014,"exp",9,9,10,"B",341,396
"1660","load",1014,"exp",9,10,1,"A",411,396
"1661","load",1014,"exp",10,1,6,"B",551,759
"1662","load",1014,"exp",10,2,3,"B",340,1048
"1663","load",1014,"exp",10,3,9,"B",616,1255
"1664","load",1014,"exp",10,4,7,"B",218,854
"1665","load",1014,"exp",10,5,4,"A",803,741
"1666","load",1014,"exp",10,6,8,"B",508,834
"1667","load",1014,"exp",10,7,1,"A",693,3156
"1668","load",1014,"exp",10,8,10,"B",632,600
"1669","load",1014,"exp",10,9,2,"A",556,2126
"1670","load",1014,"exp",10,10,5,"B",724,2126
"1671","load",1014,"exp",11,1,3,"B",493,1622
"1672","load",1014,"exp",11,2,4,"A",565,810
"1673","load",1014,"exp",11,3,8,"B",233,872
"1674","load",1014,"exp",11,4,9,"B",759,964
"1675","load",1014,"exp",11,5,10,"B",790,549
"1676","load",1014,"exp",11,6,7,"B",779,1019
"1677","load",1014,"exp",11,7,5,"B",366,1721
"1678","load",1014,"exp",11,8,1,"A",463,910
"1679","load",1014,"exp",11,9,2,"A",750,535
"1680","load",1014,"exp",11,10,6,"B",1013,535
"1681","load",1014,"exp",12,1,4,"A",959,2048
"1682","load",1014,"exp",12,2,10,"A",455,2020
"1683","load",1014,"exp",12,3,9,"B",526,3530
"1684","load",1014,"exp",12,4,6,"B",270,501
"1685","load",1014,"exp",12,5,3,"A",469,215
"1686","load",1014,"exp",12,6,8,"B",317,463
"1687","load",1014,"exp",12,7,2,"A",389,470
"1688","load",1014,"exp",12,8,7,"B",328,538
"1689","load",1014,"exp",12,9,5,"B",250,491
"1690","load",1014,"exp",12,10,1,"A",384,491
"1691","load",1015,"prac",0,1,99,"B",1504,20257
"1692","load",1015,"prac",0,2,98,"A",2984,849
"1693","load",1015,"prac",0,3,98,"A",432,1623
"1694","load",1015,"prac",0,4,99,"B",681,2131
"1695","load",1015,"prac",0,5,98,"A",2340,1483
"1696","load",1015,"prac",0,6,99,"B",861,1643
"1697","load",1015,"prac",0,7,99,"B",373,1698
"1698","load",1015,"prac",0,8,99,"B",443,2006
"1699","load",1015,"prac",0,9,98,"A",268,804
"1700","load",1015,"prac",0,10,98,"A",822,804
"1701","load",1015,"exp",1,1,3,"A",91,12126
"1702","load",1015,"exp",1,2,7,"B",548,2837
"1703","load",1015,"exp",1,3,1,"A",238,17154
"1704","load",1015,"exp",1,4,2,"A",181,2764
"1705","load",1015,"exp",1,5,6,"B",713,6507
"1706","load",1015,"exp",1,6,10,"B",55,1923
"1707","load",1015,"exp",1,7,4,"A",197,4206
"1708","load",1015,"exp",1,8,8,"B",150,8358
"1709","load",1015,"exp",1,9,9,"B",482,14293
"1710","load",1015,"exp",1,10,5,"B",328,14293
"1711","load",1015,"exp",2,1,8,"B",254,6980
"1712","load",1015,"exp",2,2,6,"B",25,11984
"1713","load",1015,"exp",2,3,5,"B",240,18643
"1714","load",1015,"exp",2,4,9,"B",749,24582
"1715","load",1015,"exp",2,5,3,"A",153,5768
"1716","load",1015,"exp",2,6,4,"A",92,8370
"1717","load",1015,"exp",2,7,7,"A",246,15499
"1718","load",1015,"exp",2,8,10,"A",727,9194
"1719","load",1015,"exp",2,9,2,"A",563,5527
"1720","load",1015,"exp",2,10,1,"A",407,5527
"1721","load",1015,"exp",3,1,3,"A",30,6648
"1722","load",1015,"exp",3,2,7,"B",203,11158
"1723","load",1015,"exp",3,3,6,"B",279,5409
"1724","load",1015,"exp",3,4,4,"A",198,4130
"1725","load",1015,"exp",3,5,1,"A",569,9692
"1726","load",1015,"exp",3,6,5,"B",149,6693
"1727","load",1015,"exp",3,7,2,"A",507,15936
"1728","load",1015,"exp",3,8,9,"B",122,7478
"1729","load",1015,"exp",3,9,8,"B",464,5996
"1730","load",1015,"exp",3,10,10,"B",239,5996
"1731","load",1015,"exp",4,1,1,"A",111,6199
"1732","load",1015,"exp",4,2,6,"B",62,9946
"1733","load",1015,"exp",4,3,10,"A",853,11717
"1734","load",1015,"exp",4,4,9,"B",77,7005
"1735","load",1015,"exp",4,5,3,"A",1439,20305
"1736","load",1015,"exp",4,6,2,"A",717,7308
"1737","load",1015,"exp",4,7,4,"A",112,6695
"1738","load",1015,"exp",4,8,8,"B",180,18134
"1739","load",1015,"exp",4,9,5,"B",528,7227
"1740","load",1015,"exp",4,10,7,"B",872,7227
"1741","load",1015,"exp",5,1,8,"B",196,19099
"1742","load",1015,"exp",5,2,4,"A",342,24042
"1743","load",1015,"exp",5,3,7,"B",266,6448
"1744","load",1015,"exp",5,4,6,"B",172,4575
"1745","load",1015,"exp",5,5,5,"A",192,8969
"1746","load",1015,"exp",5,6,10,"B",269,7128
"1747","load",1015,"exp",5,7,2,"A",168,16249
"1748","load",1015,"exp",5,8,1,"A",27,6771
"1749","load",1015,"exp",5,9,3,"A",171,6576
"1750","load",1015,"exp",5,10,9,"B",25,6576
"1751","load",1015,"exp",6,1,7,"A",505,16033
"1752","load",1015,"exp",6,2,6,"B",217,4549
"1753","load",1015,"exp",6,3,4,"B",9688,12358
"1754","load",1015,"exp",6,4,2,"A",265,14433
"1755","load",1015,"exp",6,5,10,"B",77,4590
"1756","load",1015,"exp",6,6,3,"A",188,7474
"1757","load",1015,"exp",6,7,1,"A",3,8225
"1758","load",1015,"exp",6,8,9,"B",472,15927
"1759","load",1015,"exp",6,9,8,"B",94,4995
"1760","load",1015,"exp",6,10,5,"B",44,4995
"1761","load",1015,"exp",7,1,10,"B",152,5049
"1762","load",1015,"exp",7,2,9,"B",124,4535
"1763","load",1015,"exp",7,3,2,"A",1224,5650
"1764","load",1015,"exp",7,4,8,"B",538,5673
"1765","load",1015,"exp",7,5,1,"A",208,3515
"1766","load",1015,"exp",7,6,5,"B",699,18058
"1767","load",1015,"exp",7,7,7,"B",72,5208
"1768","load",1015,"exp",7,8,3,"A",250,21246
"1769","load",1015,"exp",7,9,6,"B",1269,4453
"1770","load",1015,"exp",7,10,4,"A",92,4453
"1771","load",1015,"exp",8,1,7,"A",786,5440
"1772","load",1015,"exp",8,2,9,"B",196,5754
"1773","load",1015,"exp",8,3,6,"B",51,3875
"1774","load",1015,"exp",8,4,5,"B",626,6399
"1775","load",1015,"exp",8,5,1,"A",58,7449
"1776","load",1015,"exp",8,6,8,"B",2051,12291
"1777","load",1015,"exp",8,7,3,"B",38,13729
"1778","load",1015,"exp",8,8,10,"B",260,4681
"1779","load",1015,"exp",8,9,4,"B",533,17026
"1780","load",1015,"exp",8,10,2,"B",227,17026
"1781","load",1015,"exp",9,1,4,"B",131,4557
"1782","load",1015,"exp",9,2,10,"B",126,4584
"1783","load",1015,"exp",9,3,7,"A",604,5333
"1784","load",1015,"exp",9,4,9,"A",119,8290
"1785","load",1015,"exp",9,5,2,"B",470,4421
"1786","load",1015,"exp",9,6,6,"B",232,4360
"1787","load",1015,"exp",9,7,5,"B",9337,18270
"1788","load",1015,"exp",9,8,8,"B",524,7914
"1789","load",1015,"exp",9,9,1,"A",395,6633
"1790","load",1015,"exp",9,10,3,"A",144,6633
"1791","load",1015,"exp",10,1,1,"A",44,2214
"1792","load",1015,"exp",10,2,9,"A",1532,9326
"1793","load",1015,"exp",10,3,5,"B",111,17894
"1794","load",1015,"exp",10,4,6,"A",151,5607
"1795","load",1015,"exp",10,5,8,"B",596,3229
"1796","load",1015,"exp",10,6,3,"B",219,6456
"1797","load",1015,"exp",10,7,7,"B",73,5625
"1798","load",1015,"exp",10,8,4,"A",11,3937
"1799","load",1015,"exp",10,9,2,"A",184,25259
"1800","load",1015,"exp",10,10,10,"B",556,25259
"1801","load",1015,"exp",11,1,4,"A",798,5137
"1802","load",1015,"exp",11,2,3,"B",677,4732
"1803","load",1015,"exp",11,3,2,"A",814,5686
"1804","load",1015,"exp",11,4,5,"B",122,3542
"1805","load",1015,"exp",11,5,7,"B",727,6077
"1806","load",1015,"exp",11,6,1,"A",622,4187
"1807","load",1015,"exp",11,7,10,"B",667,3682
"1808","load",1015,"exp",11,8,8,"B",637,4144
"1809","load",1015,"exp",11,9,6,"B",60,5881
"1810","load",1015,"exp",11,10,9,"B",24,5881
"1811","load",1015,"exp",12,1,9,"B",231,7190
"1812","load",1015,"exp",12,2,3,"A",741,6827
"1813","load",1015,"exp",12,3,1,"A",432,3945
"1814","load",1015,"exp",12,4,2,"A",607,5148
"1815","load",1015,"exp",12,5,8,"B",4,15927
"1816","load",1015,"exp",12,6,10,"B",158,4798
"1817","load",1015,"exp",12,7,7,"B",201,5685
"1818","load",1015,"exp",12,8,4,"A",344,5725
"1819","load",1015,"exp",12,9,6,"B",404,7446
"1820","load",1015,"exp",12,10,5,"B",5,7446
"1821","load",1016,"prac",0,1,98,"A",1782,1408
"1822","load",1016,"prac",0,2,98,"A",782,2235
"1823","load",1016,"prac",0,3,99,"B",1581,1757
"1824","load",1016,"prac",0,4,98,"A",577,1317
"1825","load",1016,"prac",0,5,98,"A",892,2933
"1826","load",1016,"prac",0,6,99,"B",743,1998
"1827","load",1016,"prac",0,7,98,"A",565,2281
"1828","load",1016,"prac",0,8,99,"B",447,1417
"1829","load",1016,"prac",0,9,99,"B",426,980
"1830","load",1016,"prac",0,10,99,"B",310,980
"1831","load",1016,"exp",1,1,6,"B",1339,6565
"1832","load",1016,"exp",1,2,4,"A",832,1800
"1833","load",1016,"exp",1,3,5,"B",501,2042
"1834","load",1016,"exp",1,4,10,"B",995,1676
"1835","load",1016,"exp",1,5,2,"A",1127,2076
"1836","load",1016,"exp",1,6,7,"B",578,2246
"1837","load",1016,"exp",1,7,9,"B",1044,2728
"1838","load",1016,"exp",1,8,1,"A",1817,1625
"1839","load",1016,"exp",1,9,8,"B",1151,2120
"1840","load",1016,"exp",1,10,3,"B",1758,2120
"1841","load",1016,"exp",2,1,2,"A",916,1455
"1842","load",1016,"exp",2,2,1,"A",827,1189
"1843","load",1016,"exp",2,3,4,"A",682,1144
"1844","load",1016,"exp",2,4,3,"B",613,3555
"1845","load",1016,"exp",2,5,9,"B",967,1102
"1846","load",1016,"exp",2,6,7,"B",727,1418
"1847","load",1016,"exp",2,7,10,"B",411,1298
"1848","load",1016,"exp",2,8,6,"B",2449,2253
"1849","load",1016,"exp",2,9,5,"A",1239,1906
"1850","load",1016,"exp",2,10,8,"A",587,1906
"1851","load",1016,"exp",3,1,5,"A",626,1077
"1852","load",1016,"exp",3,2,1,"A",585,1072
"1853","load",1016,"exp",3,3,7,"B",454,579
"1854","load",1016,"exp",3,4,8,"A",510,5209
"1855","load",1016,"exp",3,5,4,"A",683,1351
"1856","load",1016,"exp",3,6,9,"B",470,872
"1857","load",1016,"exp",3,7,6,"B",508,1142
"1858","load",1016,"exp",3,8,2,"A",368,1273
"1859","load",1016,"exp",3,9,10,"B",454,2229
"1860","load",1016,"exp",3,10,3,"B",853,2229
"1861","load",1016,"exp",4,1,4,"A",555,811
"1862","load",1016,"exp",4,2,5,"A",831,1448
"1863","load",1016,"exp",4,3,10,"B",546,611
"1864","load",1016,"exp",4,4,3,"B",591,856
"1865","load",1016,"exp",4,5,8,"A",491,1198
"1866","load",1016,"exp",4,6,2,"B",729,762
"1867","load",1016,"exp",4,7,9,"B",534,628
"1868","load",1016,"exp",4,8,6,"B",486,776
"1869","load",1016,"exp",4,9,1,"A",333,1044
"1870","load",1016,"exp",4,10,7,"B",587,1044
"1871","load",1016,"exp",5,1,7,"B",616,996
"1872","load",1016,"exp",5,2,5,"A",428,933
"1873","load",1016,"exp",5,3,10,"B",554,759
"1874","load",1016,"exp",5,4,6,"B",543,732
"1875","load",1016,"exp",5,5,1,"A",569,716
"1876","load",1016,"exp",5,6,8,"A",557,797
"1877","load",1016,"exp",5,7,9,"B",671,758
"1878","load",1016,"exp",5,8,3,"B",137,1429
"1879","load",1016,"exp",5,9,2,"A",597,622
"1880","load",1016,"exp",5,10,4,"A",1230,622
"1881","load",1016,"exp",6,1,10,"B",531,643
"1882","load",1016,"exp",6,2,7,"B",1044,828
"1883","load",1016,"exp",6,3,4,"A",720,674
"1884","load",1016,"exp",6,4,3,"B",473,550
"1885","load",1016,"exp",6,5,6,"B",642,659
"1886","load",1016,"exp",6,6,9,"B",526,599
"1887","load",1016,"exp",6,7,8,"A",806,568
"1888","load",1016,"exp",6,8,1,"A",571,783
"1889","load",1016,"exp",6,9,5,"A",916,1054
"1890","load",1016,"exp",6,10,2,"A",570,1054
"1891","load",1016,"exp",7,1,1,"A",426,1986
"1892","load",1016,"exp",7,2,6,"B",981,809
"1893","load",1016,"exp",7,3,3,"B",502,1101
"1894","load",1016,"exp",7,4,7,"B",551,584
"1895","load",1016,"exp",7,5,5,"A",255,982
"1896","load",1016,"exp",7,6,4,"A",580,683
"1897","load",1016,"exp",7,7,10,"B",614,642
"1898","load",1016,"exp",7,8,8,"A",560,739
"1899","load",1016,"exp",7,9,2,"A",1365,808
"1900","load",1016,"exp",7,10,9,"B",492,808
"1901","load",1016,"exp",8,1,9,"B",585,607
"1902","load",1016,"exp",8,2,8,"A",663,655
"1903","load",1016,"exp",8,3,10,"B",961,435
"1904","load",1016,"exp",8,4,1,"A",634,871
"1905","load",1016,"exp",8,5,3,"B",1276,1375
"1906","load",1016,"exp",8,6,5,"A",619,474
"1907","load",1016,"exp",8,7,6,"B",679,546
"1908","load",1016,"exp",8,8,7,"A",1205,3543
"1909","load",1016,"exp",8,9,4,"A",663,525
"1910","load",1016,"exp",8,10,2,"A",827,525
"1911","load",1016,"exp",9,1,9,"B",556,909
"1912","load",1016,"exp",9,2,4,"A",518,721
"1913","load",1016,"exp",9,3,7,"B",462,686
"1914","load",1016,"exp",9,4,3,"B",548,549
"1915","load",1016,"exp",9,5,8,"A",467,742
"1916","load",1016,"exp",9,6,2,"A",515,700
"1917","load",1016,"exp",9,7,10,"B",1094,1828
"1918","load",1016,"exp",9,8,6,"B",452,997
"1919","load",1016,"exp",9,9,5,"A",3275,1917
"1920","load",1016,"exp",9,10,1,"A",1484,1917
"1921","load",1016,"exp",10,1,3,"B",314,684
"1922","load",1016,"exp",10,2,2,"A",557,523
"1923","load",1016,"exp",10,3,5,"A",591,534
"1924","load",1016,"exp",10,4,9,"B",836,573
"1925","load",1016,"exp",10,5,10,"B",711,426
"1926","load",1016,"exp",10,6,1,"A",629,821
"1927","load",1016,"exp",10,7,4,"A",2062,1580
"1928","load",1016,"exp",10,8,7,"B",727,825
"1929","load",1016,"exp",10,9,8,"A",712,1958
"1930","load",1016,"exp",10,10,6,"B",59,1958
"1931","load",1016,"exp",11,1,3,"B",319,1010
"1932","load",1016,"exp",11,2,8,"A",493,482
"1933","load",1016,"exp",11,3,2,"A",566,650
"1934","load",1016,"exp",11,4,1,"A",524,614
"1935","load",1016,"exp",11,5,7,"B",810,734
"1936","load",1016,"exp",11,6,5,"A",849,525
"1937","load",1016,"exp",11,7,4,"A",911,554
"1938","load",1016,"exp",11,8,9,"B",779,470
"1939","load",1016,"exp",11,9,6,"B",600,598
"1940","load",1016,"exp",11,10,10,"B",840,598
"1941","load",1016,"exp",12,1,7,"B",648,556
"1942","load",1016,"exp",12,2,6,"B",478,444
"1943","load",1016,"exp",12,3,3,"B",553,567
"1944","load",1016,"exp",12,4,5,"A",516,763
"1945","load",1016,"exp",12,5,8,"A",695,725
"1946","load",1016,"exp",12,6,2,"A",598,702
"1947","load",1016,"exp",12,7,10,"B",669,629
"1948","load",1016,"exp",12,8,1,"A",551,518
"1949","load",1016,"exp",12,9,4,"A",1664,1503
"1950","load",1016,"exp",12,10,9,"B",680,1503
"1951","load",1017,"prac",0,1,99,"B",894,1248
"1952","load",1017,"prac",0,2,99,"B",538,1627
"1953","load",1017,"prac",0,3,98,"A",782,1389
"1954","load",1017,"prac",0,4,99,"B",1429,2053
"1955","load",1017,"prac",0,5,99,"B",1411,1742
"1956","load",1017,"prac",0,6,99,"B",1465,2389
"1957","load",1017,"prac",0,7,98,"A",2119,581
"1958","load",1017,"prac",0,8,98,"A",1587,1444
"1959","load",1017,"prac",0,9,98,"A",1591,1735
"1960","load",1017,"prac",0,10,98,"A",3019,1735
"1961","load",1017,"exp",1,1,9,"B",291,2947
"1962","load",1017,"exp",1,2,2,"A",986,579
"1963","load",1017,"exp",1,3,7,"B",2736,500
"1964","load",1017,"exp",1,4,4,"B",5025,436
"1965","load",1017,"exp",1,5,8,"B",1414,389
"1966","load",1017,"exp",1,6,6,"B",2631,523
"1967","load",1017,"exp",1,7,10,"B",8858,268
"1968","load",1017,"exp",1,8,3,"B",10061,291
"1969","load",1017,"exp",1,9,1,"B",1398,290
"1970","load",1017,"exp",1,10,5,"A",1352,290
"1971","load",1017,"exp",2,1,10,"B",1184,1309
"1972","load",1017,"exp",2,2,1,"A",2741,526
"1973","load",1017,"exp",2,3,9,"B",1374,368
"1974","load",1017,"exp",2,4,3,"B",406,505
"1975","load",1017,"exp",2,5,8,"B",2573,484
"1976","load",1017,"exp",2,6,4,"B",1527,474
"1977","load",1017,"exp",2,7,5,"A",829,788
"1978","load",1017,"exp",2,8,7,"B",1416,423
"1979","load",1017,"exp",2,9,6,"B",5597,403
"1980","load",1017,"exp",2,10,2,"A",572,403
"1981","load",1017,"exp",3,1,7,"B",863,716
"1982","load",1017,"exp",3,2,6,"B",690,477
"1983","load",1017,"exp",3,3,5,"B",4557,389
"1984","load",1017,"exp",3,4,4,"A",808,1034
"1985","load",1017,"exp",3,5,3,"B",1474,425
"1986","load",1017,"exp",3,6,2,"B",4451,306
"1987","load",1017,"exp",3,7,8,"B",3334,1078
"1988","load",1017,"exp",3,8,10,"B",1215,483
"1989","load",1017,"exp",3,9,9,"B",4811,468
"1990","load",1017,"exp",3,10,1,"A",412,468
"1991","load",1017,"exp",4,1,4,"A",977,691
"1992","load",1017,"exp",4,2,3,"A",1528,395
"1993","load",1017,"exp",4,3,10,"B",760,1397
"1994","load",1017,"exp",4,4,6,"B",2153,4971
"1995","load",1017,"exp",4,5,9,"B",875,1276
"1996","load",1017,"exp",4,6,5,"A",843,1893
"1997","load",1017,"exp",4,7,7,"B",1093,566
"1998","load",1017,"exp",4,8,1,"A",1429,423
"1999","load",1017,"exp",4,9,2,"A",1802,1910
"2000","load",1017,"exp",4,10,8,"A",2852,1910
"2001","load",1017,"exp",5,1,7,"B",2665,386
"2002","load",1017,"exp",5,2,2,"A",1116,684
"2003","load",1017,"exp",5,3,1,"A",3079,1554
"2004","load",1017,"exp",5,4,4,"A",3208,2559
"2005","load",1017,"exp",5,5,10,"B",1418,440
"2006","load",1017,"exp",5,6,6,"B",4297,1755
"2007","load",1017,"exp",5,7,8,"B",4257,922
"2008","load",1017,"exp",5,8,5,"A",2121,2614
"2009","load",1017,"exp",5,9,9,"B",5545,2599
"2010","load",1017,"exp",5,10,3,"B",78,2599
"2011","load",1017,"exp",6,1,1,"A",3022,990
"2012","load",1017,"exp",6,2,10,"B",1441,293
"2013","load",1017,"exp",6,3,3,"B",792,344
"2014","load",1017,"exp",6,4,4,"B",2195,558
"2015","load",1017,"exp",6,5,8,"A",1388,564
"2016","load",1017,"exp",6,6,9,"B",1830,520
"2017","load",1017,"exp",6,7,6,"B",2856,1083
"2018","load",1017,"exp",6,8,5,"A",879,1538
"2019","load",1017,"exp",6,9,7,"B",5399,3079
"2020","load",1017,"exp",6,10,2,"A",412,3079
"2021","load",1017,"exp",7,1,5,"A",1081,869
"2022","load",1017,"exp",7,2,10,"B",2533,532
"2023","load",1017,"exp",7,3,1,"A",1285,535
"2024","load",1017,"exp",7,4,2,"A",1372,912
"2025","load",1017,"exp",7,5,8,"A",2313,413
"2026","load",1017,"exp",7,6,7,"B",1529,383
"2027","load",1017,"exp",7,7,4,"B",1585,992
"2028","load",1017,"exp",7,8,9,"B",727,2044
"2029","load",1017,"exp",7,9,3,"B",1274,681
"2030","load",1017,"exp",7,10,6,"B",1653,681
"2031","load",1017,"exp",8,1,6,"B",2966,332
"2032","load",1017,"exp",8,2,2,"B",5415,313
"2033","load",1017,"exp",8,3,3,"B",2712,488
"2034","load",1017,"exp",8,4,9,"B",2987,452
"2035","load",1017,"exp",8,5,5,"A",4532,690
"2036","load",1017,"exp",8,6,1,"A",743,3933
"2037","load",1017,"exp",8,7,4,"A",3244,889
"2038","load",1017,"exp",8,8,7,"B",27,2564
"2039","load",1017,"exp",8,9,10,"B",1868,391
"2040","load",1017,"exp",8,10,8,"A",2602,391
"2041","load",1017,"exp",9,1,10,"B",810,1117
"2042","load",1017,"exp",9,2,7,"B",3090,717
"2043","load",1017,"exp",9,3,3,"B",1712,534
"2044","load",1017,"exp",9,4,6,"B",4736,2356
"2045","load",1017,"exp",9,5,2,"B",88,988
"2046","load",1017,"exp",9,6,4,"A",1215,309
"2047","load",1017,"exp",9,7,9,"B",1451,447
"2048","load",1017,"exp",9,8,8,"B",1625,3346
"2049","load",1017,"exp",9,9,5,"A",1020,747
"2050","load",1017,"exp",9,10,1,"B",4982,747
"2051","load",1017,"exp",10,1,8,"A",618,1336
"2052","load",1017,"exp",10,2,4,"A",1005,2631
"2053","load",1017,"exp",10,3,2,"A",1737,343
"2054","load",1017,"exp",10,4,1,"A",1244,1192
"2055","load",1017,"exp",10,5,10,"A",4016,728
"2056","load",1017,"exp",10,6,6,"B",1240,372
"2057","load",1017,"exp",10,7,9,"B",5020,1037
"2058","load",1017,"exp",10,8,3,"B",1227,549
"2059","load",1017,"exp",10,9,7,"B",5823,771
"2060","load",1017,"exp",10,10,5,"A",271,771
"2061","load",1017,"exp",11,1,1,"A",742,1053
"2062","load",1017,"exp",11,2,5,"A",1785,514
"2063","load",1017,"exp",11,3,3,"B",1559,388
"2064","load",1017,"exp",11,4,6,"B",734,500
"2065","load",1017,"exp",11,5,4,"A",1002,325
"2066","load",1017,"exp",11,6,8,"A",1821,895
"2067","load",1017,"exp",11,7,2,"A",940,394
"2068","load",1017,"exp",11,8,10,"B",556,3036
"2069","load",1017,"exp",11,9,9,"B",2037,387
"2070","load",1017,"exp",11,10,7,"B",10,387
"2071","load",1017,"exp",12,1,7,"B",1068,1046
"2072","load",1017,"exp",12,2,5,"A",971,2501
"2073","load",1017,"exp",12,3,2,"A",1396,351
"2074","load",1017,"exp",12,4,3,"B",668,1908
"2075","load",1017,"exp",12,5,10,"B",1517,412
"2076","load",1017,"exp",12,6,4,"A",1121,357
"2077","load",1017,"exp",12,7,1,"A",1230,664
"2078","load",1017,"exp",12,8,6,"B",1655,325
"2079","load",1017,"exp",12,9,8,"A",487,346
"2080","load",1017,"exp",12,10,9,"B",3800,346
"2081","load",1018,"prac",0,1,98,"A",10990,4625
"2082","load",1018,"prac",0,2,98,"A",1855,1379
"2083","load",1018,"prac",0,3,99,"B",1883,5174
"2084","load",1018,"prac",0,4,99,"B",836,3149
"2085","load",1018,"prac",0,5,99,"B",138,3367
"2086","load",1018,"prac",0,6,98,"A",912,4777
"2087","load",1018,"prac",0,7,98,"A",2,3119
"2088","load",1018,"prac",0,8,98,"A",781,4651
"2089","load",1018,"prac",0,9,99,"B",739,3377
"2090","load",1018,"prac",0,10,99,"B",157,3377
"2091","load",1018,"exp",1,1,7,"B",947,3110
"2092","load",1018,"exp",1,2,8,"B",2555,2909
"2093","load",1018,"exp",1,3,5,"B",1047,3962
"2094","load",1018,"exp",1,4,3,"A",758,2895
"2095","load",1018,"exp",1,5,1,"A",565,1817
"2096","load",1018,"exp",1,6,4,"A",907,4069
"2097","load",1018,"exp",1,7,10,"A",689,1936
"2098","load",1018,"exp",1,8,2,"A",1710,3287
"2099","load",1018,"exp",1,9,6,"B",746,3299
"2100","load",1018,"exp",1,10,9,"B",792,3299
"2101","load",1018,"exp",2,1,2,"A",61,4074
"2102","load",1018,"exp",2,2,1,"A",700,3757
"2103","load",1018,"exp",2,3,5,"B",344,2703
"2104","load",1018,"exp",2,4,8,"B",2015,2261
"2105","load",1018,"exp",2,5,3,"A",713,2473
"2106","load",1018,"exp",2,6,9,"B",827,2180
"2107","load",1018,"exp",2,7,6,"B",166,5252
"2108","load",1018,"exp",2,8,4,"A",1055,3749
"2109","load",1018,"exp",2,9,7,"B",599,2642
"2110","load",1018,"exp",2,10,10,"B",1126,2642
"2111","load",1018,"exp",3,1,4,"A",463,1578
"2112","load",1018,"exp",3,2,5,"B",431,2888
"2113","load",1018,"exp",3,3,2,"A",808,3721
"2114","load",1018,"exp",3,4,7,"B",410,1789
"2115","load",1018,"exp",3,5,9,"B",559,1619
"2116","load",1018,"exp",3,6,6,"B",683,21077
"2117","load",1018,"exp",3,7,10,"A",1246,2842
"2118","load",1018,"exp",3,8,3,"A",681,1492
"2119","load",1018,"exp",3,9,1,"A",1321,5956
"2120","load",1018,"exp",3,10,8,"B",525,5956
"2121","load",1018,"exp",4,1,7,"B",948,2340
"2122","load",1018,"exp",4,2,1,"A",399,2367
"2123","load",1018,"exp",4,3,5,"B",567,5849
"2124","load",1018,"exp",4,4,3,"A",952,2888
"2125","load",1018,"exp",4,5,2,"A",453,1825
"2126","load",1018,"exp",4,6,10,"A",456,2726
"2127","load",1018,"exp",4,7,4,"A",784,4095
"2128","load",1018,"exp",4,8,9,"B",1162,3589
"2129","load",1018,"exp",4,9,8,"B",903,2956
"2130","load",1018,"exp",4,10,6,"B",33,2956
"2131","load",1018,"exp",5,1,1,"A",972,1555
"2132","load",1018,"exp",5,2,6,"B",1561,1895
"2133","load",1018,"exp",5,3,8,"A",997,2049
"2134","load",1018,"exp",5,4,9,"B",698,1607
"2135","load",1018,"exp",5,5,7,"B",925,2808
"2136","load",1018,"exp",5,6,4,"A",62,4348
"2137","load",1018,"exp",5,7,10,"A",660,4202
"2138","load",1018,"exp",5,8,3,"A",518,8914
"2139","load",1018,"exp",5,9,2,"A",1036,5291
"2140","load",1018,"exp",5,10,5,"B",717,5291
"2141","load",1018,"exp",6,1,9,"B",651,1524
"2142","load",1018,"exp",6,2,8,"B",539,2922
"2143","load",1018,"exp",6,3,3,"A",123,3287
"2144","load",1018,"exp",6,4,6,"B",1103,2941
"2145","load",1018,"exp",6,5,7,"B",1179,4567
"2146","load",1018,"exp",6,6,10,"A",563,3078
"2147","load",1018,"exp",6,7,2,"A",2415,3669
"2148","load",1018,"exp",6,8,4,"A",1093,2807
"2149","load",1018,"exp",6,9,5,"B",473,2315
"2150","load",1018,"exp",6,10,1,"A",354,2315
"2151","load",1018,"exp",7,1,8,"B",584,2257
"2152","load",1018,"exp",7,2,6,"B",778,1896
"2153","load",1018,"exp",7,3,9,"B",503,3614
"2154","load",1018,"exp",7,4,5,"B",518,2561
"2155","load",1018,"exp",7,5,10,"A",733,1588
"2156","load",1018,"exp",7,6,3,"A",302,3993
"2157","load",1018,"exp",7,7,7,"B",708,3544
"2158","load",1018,"exp",7,8,4,"A",499,5705
"2159","load",1018,"exp",7,9,2,"A",599,2531
"2160","load",1018,"exp",7,10,1,"A",956,2531
"2161","load",1018,"exp",8,1,10,"A",891,6307
"2162","load",1018,"exp",8,2,5,"B",701,3371
"2163","load",1018,"exp",8,3,3,"A",1032,2809
"2164","load",1018,"exp",8,4,6,"B",1626,2674
"2165","load",1018,"exp",8,5,7,"B",344,1995
"2166","load",1018,"exp",8,6,8,"B",1108,3797
"2167","load",1018,"exp",8,7,4,"A",476,1961
"2168","load",1018,"exp",8,8,9,"B",623,3306
"2169","load",1018,"exp",8,9,1,"A",621,2794
"2170","load",1018,"exp",8,10,2,"A",1093,2794
"2171","load",1018,"exp",9,1,5,"B",998,2131
"2172","load",1018,"exp",9,2,2,"A",140,2665
"2173","load",1018,"exp",9,3,10,"A",860,2891
"2174","load",1018,"exp",9,4,8,"B",239,2595
"2175","load",1018,"exp",9,5,3,"A",1220,4266
"2176","load",1018,"exp",9,6,4,"A",2517,1841
"2177","load",1018,"exp",9,7,6,"B",317,1867
"2178","load",1018,"exp",9,8,1,"A",952,2742
"2179","load",1018,"exp",9,9,7,"B",802,2934
"2180","load",1018,"exp",9,10,9,"B",4,2934
"2181","load",1018,"exp",10,1,2,"A",998,848
"2182","load",1018,"exp",10,2,9,"B",121,1779
"2183","load",1018,"exp",10,3,8,"B",674,3226
"2184","load",1018,"exp",10,4,10,"A",1000,1027
"2185","load",1018,"exp",10,5,7,"B",940,3068
"2186","load",1018,"exp",10,6,4,"A",1183,1932
"2187","load",1018,"exp",10,7,1,"A",1541,1738
"2188","load",1018,"exp",10,8,6,"A",3611,6675
"2189","load",1018,"exp",10,9,3,"A",665,3282
"2190","load",1018,"exp",10,10,5,"B",677,3282
"2191","load",1018,"exp",11,1,10,"B",4173,3926
"2192","load",1018,"exp",11,2,4,"A",926,2542
"2193","load",1018,"exp",11,3,3,"A",1383,3900
"2194","load",1018,"exp",11,4,7,"B",3,2689
"2195","load",1018,"exp",11,5,1,"A",647,3564
"2196","load",1018,"exp",11,6,5,"B",1179,2712
"2197","load",1018,"exp",11,7,6,"B",911,5814
"2198","load",1018,"exp",11,8,8,"B",764,2088
"2199","load",1018,"exp",11,9,2,"A",2520,4209
"2200","load",1018,"exp",11,10,9,"B",1347,4209
"2201","load",1018,"exp",12,1,7,"B",596,1452
"2202","load",1018,"exp",12,2,1,"A",56,1603
"2203","load",1018,"exp",12,3,4,"A",276,2125
"2204","load",1018,"exp",12,4,9,"B",1254,2438
"2205","load",1018,"exp",12,5,10,"A",772,1120
"2206","load",1018,"exp",12,6,6,"B",815,1603
"2207","load",1018,"exp",12,7,2,"A",311,1097
"2208","load",1018,"exp",12,8,5,"B",167,2283
"2209","load",1018,"exp",12,9,8,"B",1794,2842
"2210","load",1018,"exp",12,10,3,"A",487,2842
"2211","load",1019,"prac",0,1,98,"A",412,13619
"2212","load",1019,"prac",0,2,98,"A",2456,13381
"2213","load",1019,"prac",0,3,99,"B",410,1790
"2214","load",1019,"prac",0,4,98,"A",503,2526
"2215","load",1019,"prac",0,5,98,"A",1024,2317
"2216","load",1019,"prac",0,6,99,"B",734,1907
"2217","load",1019,"prac",0,7,99,"B",295,4965
"2218","load",1019,"prac",0,8,99,"B",500,1242
"2219","load",1019,"prac",0,9,98,"A",1399,866
"2220","load",1019,"prac",0,10,99,"B",920,866
"2221","load",1019,"exp",1,1,5,"A",6153,20876
"2222","load",1019,"exp",1,2,10,"B",4275,22734
"2223","load",1019,"exp",1,3,3,"B",1869,7527
"2224","load",1019,"exp",1,4,9,"B",710,9669
"2225","load",1019,"exp",1,5,2,"A",1879,5826
"2226","load",1019,"exp",1,6,7,"B",2901,5165
"2227","load",1019,"exp",1,7,8,"A",1221,4317
"2228","load",1019,"exp",1,8,4,"A",3751,5465
"2229","load",1019,"exp",1,9,6,"B",2291,4212
"2230","load",1019,"exp",1,10,1,"A",1628,4212
"2231","load",1019,"exp",2,1,4,"A",977,6550
"2232","load",1019,"exp",2,2,9,"B",717,3790
"2233","load",1019,"exp",2,3,6,"B",630,3158
"2234","load",1019,"exp",2,4,1,"A",903,3230
"2235","load",1019,"exp",2,5,5,"A",448,3258
"2236","load",1019,"exp",2,6,7,"B",655,8433
"2237","load",1019,"exp",2,7,10,"B",718,3472
"2238","load",1019,"exp",2,8,2,"A",1127,3244
"2239","load",1019,"exp",2,9,3,"B",1711,4087
"2240","load",1019,"exp",2,10,8,"A",2155,4087
"2241","load",1019,"exp",3,1,3,"B",797,4747
"2242","load",1019,"exp",3,2,4,"A",473,2168
"2243","load",1019,"exp",3,3,9,"B",784,5562
"2244","load",1019,"exp",3,4,10,"B",373,2611
"2245","load",1019,"exp",3,5,8,"A",793,2793
"2246","load",1019,"exp",3,6,2,"A",656,2388
"2247","load",1019,"exp",3,7,6,"B",2610,2719
"2248","load",1019,"exp",3,8,5,"A",1015,2086
"2249","load",1019,"exp",3,9,1,"A",921,2053
"2250","load",1019,"exp",3,10,7,"B",1451,2053
"2251","load",1019,"exp",4,1,10,"B",481,2611
"2252","load",1019,"exp",4,2,6,"B",445,2360
"2253","load",1019,"exp",4,3,4,"A",445,2554
"2254","load",1019,"exp",4,4,3,"B",320,2594
"2255","load",1019,"exp",4,5,7,"B",491,2640
"2256","load",1019,"exp",4,6,8,"A",1192,2648
"2257","load",1019,"exp",4,7,1,"A",1996,2347
"2258","load",1019,"exp",4,8,5,"A",1070,3111
"2259","load",1019,"exp",4,9,2,"A",1749,2727
"2260","load",1019,"exp",4,10,9,"B",441,2727
"2261","load",1019,"exp",5,1,7,"B",942,2716
"2262","load",1019,"exp",5,2,2,"A",687,2618
