"cond"	"subj"	"phase"	"blk"	"trial"	"stim"	"resp"	"rt"
1	4005	0	0	0	0	0	0
1	4005	1	1	1	12	0	0
1	4005	1	1	2	13	0	0
1	4005	1	1	3	29	0	0
1	4005	1	1	4	6	0	0
1	4005	1	1	5	19	0	0
1	4005	1	1	6	45	2	1752
1	4005	1	1	7	34	1	900
1	4005	1	1	8	39	3	1649
1	4005	0	0	0	0	0	0
1	4005	1	2	1	20	0	0
1	4005	1	2	2	14	2	1813
1	4005	1	2	3	30	0	0
1	4005	1	2	4	11	0	0
1	4005	1	2	5	44	0	0
1	4005	1	2	6	37	0	0
1	4005	1	2	7	2	2	1219
1	4005	1	2	8	36	3	1568
1	4005	0	0	0	0	0	0
1	4005	1	3	1	26	2	823
1	4005	1	3	2	33	1	937
1	4005	1	3	3	42	3	1371
1	4005	1	3	4	22	2	973
1	4005	1	3	5	43	0	0
1	4005	1	3	6	4	2	1730
1	4005	1	3	7	7	0	0
1	4005	1	3	8	15	0	0
1	4005	0	0	0	0	0	0
1	4005	1	4	1	46	0	0
1	4005	1	4	2	3	0	0
1	4005	1	4	3	21	0	0
1	4005	1	4	4	25	0	0
1	4005	1	4	5	9	0	0
1	4005	1	4	6	38	0	0
1	4005	1	4	7	35	0	0
1	4005	1	4	8	16	0	0
1	4005	0	0	0	0	0	0
1	4005	1	5	1	40	0	0
1	4005	1	5	2	10	0	0
1	4005	1	5	3	18	3	1418
1	4005	1	5	4	24	0	0
1	4005	1	5	5	48	0	0
1	4005	1	5	6	1	0	0
1	4005	1	5	7	31	0	0
1	4005	1	5	8	28	0	0
1	4005	0	0	0	0	0	0
1	4005	1	6	1	32	1	1009
1	4005	1	6	2	27	0	0
1	4005	1	6	3	23	0	0
1	4005	1	6	4	47	0	0
1	4005	1	6	5	5	0	0
1	4005	1	6	6	8	0	0
1	4005	1	6	7	17	0	0
1	4005	1	6	8	41	0	0
1	4005	0	0	0	0	0	0
1	4005	1	7	1	20	0	0
1	4005	1	7	2	40	0	0
1	4005	1	7	3	10	2	723
1	4005	1	7	4	25	0	0
1	4005	1	7	5	3	0	0
1	4005	1	7	6	35	0	0
1	4005	1	7	7	13	0	0
1	4005	1	7	8	48	0	0
1	4005	0	0	0	0	0	0
1	4005	1	8	1	4	2	1429
1	4005	1	8	2	23	0	0
1	4005	1	8	3	8	1	1004
1	4005	1	8	4	30	0	0
1	4005	1	8	5	39	0	0
1	4005	1	8	6	33	0	0
1	4005	1	8	7	18	0	0
1	4005	1	8	8	46	0	0
1	4005	0	0	0	0	0	0
1	4005	1	9	1	19	0	0
1	4005	1	9	2	31	0	0
1	4005	1	9	3	45	0	0
1	4005	1	9	4	27	0	0
1	4005	1	9	5	5	0	0
1	4005	1	9	6	38	0	0
1	4005	1	9	7	12	0	0
1	4005	1	9	8	16	0	0
1	4005	0	0	0	0	0	0
1	4005	1	10	1	28	2	987
1	4005	1	10	2	24	0	0
1	4005	1	10	3	47	2	445
1	4005	1	10	4	14	2	1415
1	4005	1	10	5	11	1	1959
1	4005	1	10	6	36	3	518
1	4005	1	10	7	1	0	0
1	4005	1	10	8	41	0	0
1	4005	0	0	0	0	0	0
1	4005	1	11	1	34	3	1104
1	4005	1	11	2	22	0	0
1	4005	1	11	3	43	0	0
1	4005	1	11	4	2	0	0
1	4005	1	11	5	29	0	0
1	4005	1	11	6	7	0	0
1	4005	1	11	7	17	0	0
1	4005	1	11	8	42	0	0
1	4005	0	0	0	0	0	0
1	4005	1	12	1	26	3	1802
1	4005	1	12	2	44	0	0
1	4005	1	12	3	15	0	0
1	4005	1	12	4	21	0	0
1	4005	1	12	5	6	0	0
1	4005	1	12	6	9	0	0
1	4005	1	12	7	32	2	1350
1	4005	1	12	8	37	0	0
1	4005	2	1	1	0	2	5703
1	4005	2	1	2	0	2	3553
1	4005	2	1	3	0	1	5144
1	4005	2	1	4	0	3	4479
1	4005	2	1	5	0	3	2289
1	4005	2	1	6	0	2	3426
1	4005	2	1	7	0	3	2886
1	4005	2	1	8	0	3	4390
1	4005	2	1	9	0	2	2692
1	4005	2	1	10	0	1	2597
1	4005	2	1	11	0	2	3536
1	4005	2	1	12	0	3	1872
1	4005	2	1	13	0	2	3305
1	4005	2	1	14	0	2	2362
1	4005	2	1	15	0	3	3447
1	4005	2	1	16	0	1	2274
1	4005	2	1	17	0	2	1891
1	4005	2	1	18	0	2	3852
1	4005	2	1	19	0	2	2550
1	4005	2	1	20	0	3	1381
1	4005	2	1	21	0	1	2345
1	4005	2	1	22	0	3	3592
1	4005	2	1	23	0	1	2445
1	4005	2	1	24	0	1	1943
1	4005	2	1	25	0	1	5181
1	4005	2	1	26	0	1	4164
1	4005	2	1	27	0	2	3082
1	4005	2	1	28	0	1	3108
1	4005	2	1	29	0	3	2380
1	4005	2	1	30	0	2	1785
1	4006	0	0	0	0	0	0
1	4006	1	1	1	29	0	0
1	4006	1	1	2	9	0	0
1	4006	1	1	3	4	2	1567
1	4006	1	1	4	35	2	1166
1	4006	1	1	5	43	2	1601
1	4006	1	1	6	22	3	1482
1	4006	1	1	7	13	1	1441
1	4006	1	1	8	37	0	0
1	4006	0	0	0	0	0	0
1	4006	1	2	1	46	1	884
1	4006	1	2	2	14	1	670
1	4006	1	2	3	3	2	1004
1	4006	1	2	4	21	2	994
1	4006	1	2	5	34	3	1180
1	4006	1	2	6	30	3	1187
1	4006	1	2	7	40	3	1849
1	4006	1	2	8	7	1	1015
1	4006	0	0	0	0	0	0
1	4006	1	3	1	18	3	1728
1	4006	1	3	2	36	3	1696
1	4006	1	3	3	8	1	1448
1	4006	1	3	4	26	0	0
1	4006	1	3	5	5	2	973
1	4006	1	3	6	41	3	1385
1	4006	1	3	7	47	2	1976
1	4006	1	3	8	23	0	0
1	4006	0	0	0	0	0	0
1	4006	1	4	1	1	1	1083
1	4006	1	4	2	24	3	1142
1	4006	1	4	3	27	2	1937
1	4006	1	4	4	16	1	1920
1	4006	1	4	5	45	3	1692
1	4006	1	4	6	39	2	1192
1	4006	1	4	7	10	3	1024
1	4006	1	4	8	32	1	953
1	4006	0	0	0	0	0	0
1	4006	1	5	1	11	2	949
1	4006	1	5	2	6	3	1216
1	4006	1	5	3	15	2	1129
1	4006	1	5	4	28	3	991
1	4006	1	5	5	20	1	1019
1	4006	1	5	6	48	1	1932
1	4006	1	5	7	42	1	1645
1	4006	1	5	8	31	1	1420
1	4006	0	0	0	0	0	0
1	4006	1	6	1	2	1	876
1	4006	1	6	2	33	2	1007
1	4006	1	6	3	38	1	1468
1	4006	1	6	4	25	1	1048
1	4006	1	6	5	17	2	1038
1	4006	1	6	6	12	3	842
1	4006	1	6	7	44	1	830
1	4006	1	6	8	19	1	977
1	4006	0	0	0	0	0	0
1	4006	1	7	1	16	3	1049
1	4006	1	7	2	11	2	891
1	4006	1	7	3	28	1	953
1	4006	1	7	4	41	3	1460
1	4006	1	7	5	35	2	1091
1	4006	1	7	6	43	2	1532
1	4006	1	7	7	5	2	1263
1	4006	1	7	8	23	2	1011
1	4006	0	0	0	0	0	0
1	4006	1	8	1	46	1	976
1	4006	1	8	2	42	1	1686
1	4006	1	8	3	34	3	1515
1	4006	1	8	4	20	1	1487
1	4006	1	8	5	12	3	1017
1	4006	1	8	6	17	2	1167
1	4006	1	8	7	30	3	1553
1	4006	1	8	8	6	3	1529
1	4006	0	0	0	0	0	0
1	4006	1	9	1	31	1	939
1	4006	1	9	2	29	2	1005
1	4006	1	9	3	47	3	1812
1	4006	1	9	4	24	3	1397
1	4006	1	9	5	40	1	1093
1	4006	1	9	6	13	3	1504
1	4006	1	9	7	9	3	1532
1	4006	1	9	8	1	3	1241
1	4006	0	0	0	0	0	0
1	4006	1	10	1	39	3	1050
1	4006	1	10	2	19	0	0
1	4006	1	10	3	7	1	1321
1	4006	1	10	4	14	1	1133
1	4006	1	10	5	36	3	1658
1	4006	1	10	6	27	1	1771
1	4006	1	10	7	48	1	1423
1	4006	1	10	8	3	3	1124
1	4006	0	0	0	0	0	0
1	4006	1	11	1	10	3	1088
1	4006	1	11	2	21	3	875
1	4006	1	11	3	2	1	814
1	4006	1	11	4	18	2	1100
1	4006	1	11	5	33	3	1929
1	4006	1	11	6	26	1	1851
1	4006	1	11	7	38	2	1640
1	4006	1	11	8	45	1	1758
1	4006	0	0	0	0	0	0
1	4006	1	12	1	4	2	1242
1	4006	1	12	2	25	2	1307
1	4006	1	12	3	22	2	1540
1	4006	1	12	4	44	0	0
1	4006	1	12	5	8	1	1553
1	4006	1	12	6	37	1	1847
1	4006	1	12	7	32	1	1314
1	4006	1	12	8	15	2	1504
1	4006	2	1	1	0	4	28836
1	4006	2	1	2	0	4	6586
1	4006	2	1	3	0	1	6473
1	4006	2	1	4	0	2	4723
1	4006	2	1	5	0	4	2115
1	4006	2	1	6	0	4	1731
1	4006	2	1	7	0	4	2522
1	4006	2	1	8	0	3	3050
1	4006	2	1	9	0	2	3444
1	4006	2	1	10	0	2	2527
1	4006	2	1	11	0	2	4558
1	4006	2	1	12	0	4	2133
1	4006	2	1	13	0	2	2357
1	4006	2	1	14	0	4	2034
1	4006	2	1	15	0	1	2909
1	4006	2	1	16	0	1	1917
1	4006	2	1	17	0	2	2669
1	4006	2	1	18	0	3	5030
1	4006	2	1	19	0	2	2419
1	4006	2	1	20	0	3	1591
1	4006	2	1	21	0	1	3043
1	4006	2	1	22	0	3	2838
1	4006	2	1	23	0	1	2705
1	4006	2	1	24	0	1	2561
1	4006	2	1	25	0	4	4719
1	4006	2	1	26	0	4	2088
1	4006	2	1	27	0	2	4089
1	4006	2	1	28	0	4	2898
1	4006	2	1	29	0	1	1651
1	4006	2	1	30	0	1	3549
1	4007	0	0	0	0	0	0
1	4007	1	1	1	11	0	0
1	4007	1	1	2	40	2	1720
1	4007	1	1	3	4	2	575
1	4007	1	1	4	13	3	1057
1	4007	1	1	5	23	1	781
1	4007	1	1	6	44	2	771
1	4007	1	1	7	28	2	1106
1	4007	1	1	8	31	3	1017
1	4007	0	0	0	0	0	0
1	4007	1	2	1	42	1	792
1	4007	1	2	2	45	1	1173
1	4007	1	2	3	24	1	908
1	4007	1	2	4	6	1	1131
1	4007	1	2	5	35	2	1352
1	4007	1	2	6	9	2	1607
1	4007	1	2	7	27	1	1097
1	4007	1	2	8	18	1	1006
1	4007	0	0	0	0	0	0
1	4007	1	3	1	48	2	757
1	4007	1	3	2	30	2	1019
1	4007	1	3	3	19	1	816
1	4007	1	3	4	10	3	1500
1	4007	1	3	5	41	1	805
1	4007	1	3	6	16	2	1210
1	4007	1	3	7	3	3	1169
1	4007	1	3	8	33	2	1841
1	4007	0	0	0	0	0	0
1	4007	1	4	1	14	2	1424
1	4007	1	4	2	32	1	1073
1	4007	1	4	3	2	2	1132
1	4007	1	4	4	29	2	1163
1	4007	1	4	5	43	2	843
1	4007	1	4	6	37	3	1111
1	4007	1	4	7	22	3	1696
1	4007	1	4	8	8	0	0
1	4007	0	0	0	0	0	0
1	4007	1	5	1	39	3	1245
1	4007	1	5	2	34	2	1127
1	4007	1	5	3	20	1	1441
1	4007	1	5	4	25	2	1349
1	4007	1	5	5	46	1	1170
1	4007	1	5	6	12	0	0
1	4007	1	5	7	5	0	0
1	4007	1	5	8	15	2	1093
1	4007	0	0	0	0	0	0
1	4007	1	6	1	26	3	1129
1	4007	1	6	2	7	1	1374
1	4007	1	6	3	47	1	1389
1	4007	1	6	4	38	2	1108
1	4007	1	6	5	17	2	1530
1	4007	1	6	6	36	3	1907
1	4007	1	6	7	21	3	1579
1	4007	1	6	8	1	2	1924
1	4007	0	0	0	0	0	0
1	4007	1	7	1	37	3	924
1	4007	1	7	2	46	1	840
1	4007	1	7	3	12	3	822
1	4007	1	7	4	24	3	1449
1	4007	1	7	5	31	1	1507
1	4007	1	7	6	13	2	938
1	4007	1	7	7	30	2	1641
1	4007	1	7	8	6	3	1051
1	4007	0	0	0	0	0	0
1	4007	1	8	1	45	3	1745
1	4007	1	8	2	40	2	819
1	4007	1	8	3	10	3	1307
1	4007	1	8	4	28	2	975
1	4007	1	8	5	14	2	1096
1	4007	1	8	6	1	0	0
1	4007	1	8	7	20	2	1334
1	4007	1	8	8	36	3	1389
1	4007	0	0	0	0	0	0
1	4007	1	9	1	19	3	904
1	4007	1	9	2	27	0	0
1	4007	1	9	3	3	2	1538
1	4007	1	9	4	17	2	1641
1	4007	1	9	5	41	1	1427
1	4007	1	9	6	48	2	907
1	4007	1	9	7	34	3	1173
1	4007	1	9	8	7	1	1673
1	4007	0	0	0	0	0	0
1	4007	1	10	1	33	2	796
1	4007	1	10	2	11	2	871
1	4007	1	10	3	25	2	1246
1	4007	1	10	4	44	3	832
1	4007	1	10	5	5	1	1185
1	4007	1	10	6	15	3	1683
1	4007	1	10	7	38	2	1158
1	4007	1	10	8	21	2	1244
1	4007	0	0	0	0	0	0
1	4007	1	11	1	9	2	1299
1	4007	1	11	2	32	1	1709
1	4007	1	11	3	4	0	0
1	4007	1	11	4	39	3	1078
1	4007	1	11	5	18	3	1761
1	4007	1	11	6	23	2	842
1	4007	1	11	7	29	3	1376
1	4007	1	11	8	43	2	791
1	4007	0	0	0	0	0	0
1	4007	1	12	1	22	3	1456
1	4007	1	12	2	26	1	1313
1	4007	1	12	3	42	1	1367
1	4007	1	12	4	2	2	1698
1	4007	1	12	5	16	2	1387
1	4007	1	12	6	47	3	1056
1	4007	1	12	7	35	3	1395
1	4007	1	12	8	8	1	1560
1	4007	2	1	1	0	2	12553
1	4007	2	1	2	0	3	12227
1	4007	2	1	3	0	4	8754
1	4007	2	1	4	0	3	7746
1	4007	2	1	5	0	3	7836
1	4007	2	1	6	0	3	5209
1	4007	2	1	7	0	3	9077
1	4007	2	1	8	0	4	10641
1	4007	2	1	9	0	2	10687
1	4007	2	1	10	0	2	7571
1	4007	2	1	11	0	2	8507
1	4007	2	1	12	0	2	8700
1	4007	2	1	13	0	2	7096
1	4007	2	1	14	0	2	4274
1	4007	2	1	15	0	2	4612
1	4007	2	1	16	0	2	8240
1	4007	2	1	17	0	2	10206
1	4007	2	1	18	0	3	5396
1	4007	2	1	19	0	3	6291
1	4007	2	1	20	0	2	9116
1	4007	2	1	21	0	1	7751
1	4007	2	1	22	0	3	4744
1	4007	2	1	23	0	1	9335
1	4007	2	1	24	0	2	3369
1	4007	2	1	25	0	2	4070
1	4007	2	1	26	0	3	4368
1	4007	2	1	27	0	2	6879
1	4007	2	1	28	0	2	3922
1	4007	2	1	29	0	3	2594
1	4007	2	1	30	0	3	3207
1	4008	0	0	0	0	0	0
1	4008	1	1	1	10	3	1635
1	4008	1	1	2	31	1	1087
1	4008	1	1	3	15	2	741
1	4008	1	1	4	28	1	1869
1	4008	1	1	5	37	3	1335
1	4008	1	1	6	46	1	1287
1	4008	1	1	7	23	2	1321
1	4008	1	1	8	2	2	1825
1	4008	0	0	0	0	0	0
1	4008	1	2	1	39	3	1046
1	4008	1	2	2	48	2	1033
1	4008	1	2	3	29	2	818
1	4008	1	2	4	34	3	1023
1	4008	1	2	5	18	3	1077
1	4008	1	2	6	12	2	1718
1	4008	1	2	7	22	3	834
1	4008	1	2	8	4	3	1704
1	4008	0	0	0	0	0	0
1	4008	1	3	1	35	2	1004
1	4008	1	3	2	6	3	1349
1	4008	1	3	3	24	3	1399
1	4008	1	3	4	42	2	1030
1	4008	1	3	5	44	3	1396
1	4008	1	3	6	9	2	1282
1	4008	1	3	7	14	0	0
1	4008	1	3	8	27	2	1410
1	4008	0	0	0	0	0	0
1	4008	1	4	1	41	1	1274
1	4008	1	4	2	45	1	1313
1	4008	1	4	3	1	1	972
1	4008	1	4	4	13	1	926
1	4008	1	4	5	33	2	890
1	4008	1	4	6	30	3	876
1	4008	1	4	7	20	1	759
1	4008	1	4	8	7	2	952
1	4008	0	0	0	0	0	0
1	4008	1	5	1	17	3	1611
1	4008	1	5	2	25	2	1276
1	4008	1	5	3	43	2	816
1	4008	1	5	4	8	1	1172
1	4008	1	5	5	21	2	959
1	4008	1	5	6	40	2	1395
1	4008	1	5	7	5	0	0
1	4008	1	5	8	32	1	1075
1	4008	0	0	0	0	0	0
1	4008	1	6	1	19	2	1049
1	4008	1	6	2	16	1	1249
1	4008	1	6	3	47	3	931
1	4008	1	6	4	38	2	1408
1	4008	1	6	5	3	2	1408
1	4008	1	6	6	26	3	1251
1	4008	1	6	7	11	1	1110
1	4008	1	6	8	36	3	1389
1	4008	0	0	0	0	0	0
1	4008	1	7	1	1	1	1492
1	4008	1	7	2	8	1	1275
1	4008	1	7	3	30	2	1442
1	4008	1	7	4	14	1	1115
1	4008	1	7	5	42	1	990
1	4008	1	7	6	21	2	1266
1	4008	1	7	7	31	1	714
1	4008	1	7	8	46	1	759
1	4008	0	0	0	0	0	0
1	4008	1	8	1	37	3	688
1	4008	1	8	2	5	1	856
1	4008	1	8	3	10	2	1193
1	4008	1	8	4	44	2	1403
1	4008	1	8	5	13	3	1637
1	4008	1	8	6	34	2	1292
1	4008	1	8	7	23	3	1057
1	4008	1	8	8	26	3	1026
1	4008	0	0	0	0	0	0
1	4008	1	9	1	39	3	1182
1	4008	1	9	2	17	1	915
1	4008	1	9	3	47	3	1467
1	4008	1	9	4	25	2	1068
1	4008	1	9	5	22	3	1346
1	4008	1	9	6	9	1	1335
1	4008	1	9	7	3	3	1150
1	4008	1	9	8	32	3	1210
1	4008	0	0	0	0	0	0
1	4008	1	10	1	20	2	1346
1	4008	1	10	2	7	3	703
1	4008	1	10	3	33	3	780
1	4008	1	10	4	18	1	753
1	4008	1	10	5	41	1	1173
1	4008	1	10	6	28	1	985
1	4008	1	10	7	2	3	967
1	4008	1	10	8	48	2	994
1	4008	0	0	0	0	0	0
1	4008	1	11	1	16	1	1628
1	4008	1	11	2	19	1	1123
1	4008	1	11	3	27	1	797
1	4008	1	11	4	4	3	825
1	4008	1	11	5	45	3	723
1	4008	1	11	6	12	1	693
1	4008	1	11	7	35	3	699
1	4008	1	11	8	40	2	1015
1	4008	0	0	0	0	0	0
1	4008	1	12	1	36	3	1100
1	4008	1	12	2	11	1	858
1	4008	1	12	3	29	3	906
1	4008	1	12	4	24	3	1166
1	4008	1	12	5	38	2	817
1	4008	1	12	6	43	2	1113
1	4008	1	12	7	15	1	1356
1	4008	1	12	8	6	1	903
1	4008	2	1	1	0	3	14096
1	4008	2	1	2	0	2	5942
1	4008	2	1	3	0	3	3791
1	4008	2	1	4	0	3	3532
1	4008	2	1	5	0	2	2635
1	4008	2	1	6	0	3	2502
1	4008	2	1	7	0	1	2815
1	4008	2	1	8	0	2	2579
1	4008	2	1	9	0	2	3023
1	4008	2	1	10	0	3	3155
1	4008	2	1	11	0	3	5873
1	4008	2	1	12	0	3	3108
1	4008	2	1	13	0	4	2403
1	4008	2	1	14	0	2	3424
1	4008	2	1	15	0	4	3084
1	4008	2	1	16	0	1	1821
1	4008	2	1	17	0	3	1744
1	4008	2	1	18	0	2	4039
1	4008	2	1	19	0	3	2642
1	4008	2	1	20	0	2	1613
1	4008	2	1	21	0	1	3312
1	4008	2	1	22	0	2	1856
1	4008	2	1	23	0	1	2817
1	4008	2	1	24	0	2	1422
1	4008	2	1	25	0	2	4809
1	4008	2	1	26	0	3	4341
1	4008	2	1	27	0	2	3205
1	4008	2	1	28	0	2	2201
1	4008	2	1	29	0	2	2502
1	4008	2	1	30	0	2	1598
1	4013	0	0	0	0	0	0
1	4013	1	1	1	30	0	0
1	4013	1	1	2	39	0	0
1	4013	1	1	3	14	0	0
1	4013	1	1	4	6	0	0
1	4013	1	1	5	46	0	0
1	4013	1	1	6	10	0	0
1	4013	1	1	7	35	0	0
1	4013	1	1	8	22	0	0
1	4013	0	0	0	0	0	0
1	4013	1	2	1	44	0	0
1	4013	1	2	2	12	3	1578
1	4013	1	2	3	40	2	1866
1	4013	1	2	4	13	1	1130
1	4013	1	2	5	28	0	0
1	4013	1	2	6	1	0	0
1	4013	1	2	7	19	3	1380
1	4013	1	2	8	34	3	1828
1	4013	0	0	0	0	0	0
1	4013	1	3	1	2	0	0
1	4013	1	3	2	42	0	0
1	4013	1	3	3	25	2	1816
1	4013	1	3	4	21	1	1998
1	4013	1	3	5	16	0	0
1	4013	1	3	6	43	2	1248
1	4013	1	3	7	36	3	1215
1	4013	1	3	8	8	2	1363
1	4013	0	0	0	0	0	0
1	4013	1	4	1	27	1	1864
1	4013	1	4	2	41	1	1103
1	4013	1	4	3	47	1	1346
1	4013	1	4	4	23	2	1608
1	4013	1	4	5	3	2	1883
1	4013	1	4	6	32	3	1656
1	4013	1	4	7	7	1	1188
1	4013	1	4	8	18	2	1421
1	4013	0	0	0	0	0	0
1	4013	1	5	1	48	2	943
1	4013	1	5	2	15	3	1948
1	4013	1	5	3	33	2	890
1	4013	1	5	4	5	2	1245
1	4013	1	5	5	38	2	1618
1	4013	1	5	6	20	0	0
1	4013	1	5	7	26	3	1446
1	4013	1	5	8	11	2	1555
1	4013	0	0	0	0	0	0
1	4013	1	6	1	31	1	1487
1	4013	1	6	2	29	3	1252
1	4013	1	6	3	24	2	1275
1	4013	1	6	4	37	3	1445
1	4013	1	6	5	9	0	0
1	4013	1	6	6	17	0	0
1	4013	1	6	7	45	1	1416
1	4013	1	6	8	4	2	1976
1	4013	0	0	0	0	0	0
1	4013	1	7	1	8	1	1798
1	4013	1	7	2	15	2	1649
1	4013	1	7	3	34	3	1068
1	4013	1	7	4	43	2	1038
1	4013	1	7	5	28	1	1538
1	4013	1	7	6	20	3	1716
1	4013	1	7	7	3	0	0
1	4013	1	7	8	39	3	1298
1	4013	0	0	0	0	0	0
1	4013	1	8	1	7	1	1715
1	4013	1	8	2	6	2	1390
1	4013	1	8	3	21	3	1019
1	4013	1	8	4	18	1	1882
1	4013	1	8	5	32	1	1203
1	4013	1	8	6	47	3	1060
1	4013	1	8	7	27	1	963
1	4013	1	8	8	42	1	1293
1	4013	0	0	0	0	0	0
1	4013	1	9	1	12	2	1418
1	4013	1	9	2	17	3	1766
1	4013	1	9	3	23	1	1014
1	4013	1	9	4	5	1	1559
1	4013	1	9	5	35	3	1284
1	4013	1	9	6	46	1	1598
1	4013	1	9	7	41	1	1533
1	4013	1	9	8	30	2	1081
1	4013	0	0	0	0	0	0
1	4013	1	10	1	19	3	1192
1	4013	1	10	2	37	3	960
1	4013	1	10	3	1	0	0
1	4013	1	10	4	10	3	1890
1	4013	1	10	5	29	3	974
1	4013	1	10	6	16	0	0
1	4013	1	10	7	45	1	1826
1	4013	1	10	8	31	1	1748
1	4013	0	0	0	0	0	0
1	4013	1	11	1	4	2	1801
1	4013	1	11	2	33	2	1179
1	4013	1	11	3	14	2	1803
1	4013	1	11	4	9	2	1199
1	4013	1	11	5	24	0	0
1	4013	1	11	6	48	2	1147
1	4013	1	11	7	26	0	0
1	4013	1	11	8	40	0	0
1	4013	0	0	0	0	0	0
1	4013	1	12	1	22	3	1940
1	4013	1	12	2	2	1	849
1	4013	1	12	3	38	2	897
1	4013	1	12	4	11	2	1282
1	4013	1	12	5	44	2	1123
1	4013	1	12	6	13	2	1439
1	4013	1	12	7	25	3	1620
1	4013	1	12	8	36	0	0
1	4013	2	1	1	0	3	10511
1	4013	2	1	2	0	2	6593
1	4013	2	1	3	0	1	6264
1	4013	2	1	4	0	2	3267
1	4013	2	1	5	0	2	6621
1	4013	2	1	6	0	1	5297
1	4013	2	1	7	0	3	3147
1	4013	2	1	8	0	2	2370
1	4013	2	1	9	0	2	4359
1	4013	2	1	10	0	4	3758
1	4013	2	1	11	0	3	5277
1	4013	2	1	12	0	2	3215
1	4013	2	1	13	0	2	4755
1	4013	2	1	14	0	2	3298
1	4013	2	1	15	0	3	5794
1	4013	2	1	16	0	1	4384
1	4013	2	1	17	0	1	3622
1	4013	2	1	18	0	2	4449
1	4013	2	1	19	0	2	2309
1	4013	2	1	20	0	3	3557
1	4013	2	1	21	0	1	6203
1	4013	2	1	22	0	2	4424
1	4013	2	1	23	0	2	4708
1	4013	2	1	24	0	3	3725
1	4013	2	1	25	0	2	7988
1	4013	2	1	26	0	2	7451
1	4013	2	1	27	0	2	5118
1	4013	2	1	28	0	3	4871
1	4013	2	1	29	0	3	2658
1	4013	2	1	30	0	3	2939
1	4014	0	0	0	0	0	0
1	4014	1	1	1	4	0	0
1	4014	1	1	2	11	2	1590
1	4014	1	1	3	44	3	1509
1	4014	1	1	4	24	3	1356
1	4014	1	1	5	34	2	1665
1	4014	1	1	6	40	2	1268
1	4014	1	1	7	17	2	855
1	4014	1	1	8	28	1	1443
1	4014	0	0	0	0	0	0
1	4014	1	2	1	5	1	1156
1	4014	1	2	2	43	2	1054
1	4014	1	2	3	15	2	919
1	4014	1	2	4	33	1	1188
1	4014	1	2	5	25	2	1325
1	4014	1	2	6	19	1	1290
1	4014	1	2	7	12	0	0
1	4014	1	2	8	39	2	636
1	4014	0	0	0	0	0	0
1	4014	1	3	1	27	1	1087
1	4014	1	3	2	46	1	1004
1	4014	1	3	3	9	2	1194
1	4014	1	3	4	1	1	1202
1	4014	1	3	5	18	3	1189
1	4014	1	3	6	21	2	881
1	4014	1	3	7	37	3	800
1	4014	1	3	8	35	2	1325
1	4014	0	0	0	0	0	0
1	4014	1	4	1	30	2	1453
1	4014	1	4	2	7	1	1242
1	4014	1	4	3	38	2	1428
1	4014	1	4	4	48	2	1143
1	4014	1	4	5	2	1	1410
1	4014	1	4	6	16	1	1120
1	4014	1	4	7	23	2	1398
1	4014	1	4	8	36	1	1700
1	4014	0	0	0	0	0	0
1	4014	1	5	1	41	1	982
1	4014	1	5	2	22	1	906
1	4014	1	5	3	6	1	978
1	4014	1	5	4	14	2	1007
1	4014	1	5	5	26	0	0
1	4014	1	5	6	31	2	1502
1	4014	1	5	7	10	3	1027
1	4014	1	5	8	45	1	1884
1	4014	0	0	0	0	0	0
1	4014	1	6	1	8	1	1040
1	4014	1	6	2	3	3	1169
1	4014	1	6	3	20	1	1761
1	4014	1	6	4	29	3	1530
1	4014	1	6	5	47	2	1348
1	4014	1	6	6	13	3	1179
1	4014	1	6	7	42	2	1047
1	4014	1	6	8	32	1	1737
1	4014	0	0	0	0	0	0
1	4014	1	7	1	38	1	1852
1	4014	1	7	2	12	3	1755
1	4014	1	7	3	46	0	0
1	4014	1	7	4	1	3	1478
1	4014	1	7	5	25	3	1008
1	4014	1	7	6	19	1	1374
1	4014	1	7	7	31	3	920
1	4014	1	7	8	17	1	733
1	4014	0	0	0	0	0	0
1	4014	1	8	1	32	2	1156
1	4014	1	8	2	4	2	1559
1	4014	1	8	3	42	0	0
1	4014	1	8	4	22	2	1338
1	4014	1	8	5	47	3	896
1	4014	1	8	6	29	3	1735
1	4014	1	8	7	10	3	1595
1	4014	1	8	8	14	2	1014
1	4014	0	0	0	0	0	0
1	4014	1	9	1	35	3	1787
1	4014	1	9	2	13	3	983
1	4014	1	9	3	41	2	1098
1	4014	1	9	4	26	1	1423
1	4014	1	9	5	44	2	1981
1	4014	1	9	6	21	2	952
1	4014	1	9	7	3	3	1082
1	4014	1	9	8	11	2	1088
1	4014	0	0	0	0	0	0
1	4014	1	10	1	45	2	1362
1	4014	1	10	2	20	2	921
1	4014	1	10	3	9	2	696
1	4014	1	10	4	2	1	978
1	4014	1	10	5	40	2	1138
1	4014	1	10	6	27	3	1165
1	4014	1	10	7	36	3	750
1	4014	1	10	8	15	3	704
1	4014	0	0	0	0	0	0
1	4014	1	11	1	48	2	801
1	4014	1	11	2	23	2	690
1	4014	1	11	3	6	3	955
1	4014	1	11	4	30	2	772
1	4014	1	11	5	16	2	872
1	4014	1	11	6	7	3	913
1	4014	1	11	7	33	1	1877
1	4014	1	11	8	37	3	993
1	4014	0	0	0	0	0	0
1	4014	1	12	1	43	2	1336
1	4014	1	12	2	39	3	828
1	4014	1	12	3	34	2	969
1	4014	1	12	4	8	1	1408
1	4014	1	12	5	28	1	1104
1	4014	1	12	6	5	2	1204
1	4014	1	12	7	18	1	801
1	4014	1	12	8	24	3	864
1	4014	2	1	1	0	2	8906
1	4014	2	1	2	0	3	8309
1	4014	2	1	3	0	3	3599
1	4014	2	1	4	0	3	1996
1	4014	2	1	5	0	3	1617
1	4014	2	1	6	0	3	2453
1	4014	2	1	7	0	1	2415
1	4014	2	1	8	0	2	5138
1	4014	2	1	9	0	1	2898
1	4014	2	1	10	0	2	4099
1	4014	2	1	11	0	3	5740
1	4014	2	1	12	0	1	5860
1	4014	2	1	13	0	1	2592
1	4014	2	1	14	0	2	3212
1	4014	2	1	15	0	4	4496
1	4014	2	1	16	0	2	4546
1	4014	2	1	17	0	2	3145
1	4014	2	1	18	0	2	5135
1	4014	2	1	19	0	3	3800
1	4014	2	1	20	0	1	3149
1	4014	2	1	21	0	2	5500
1	4014	2	1	22	0	3	2597
1	4014	2	1	23	0	1	3026
1	4014	2	1	24	0	4	3374
1	4014	2	1	25	0	1	5012
1	4014	2	1	26	0	4	2696
1	4014	2	1	27	0	2	5729
1	4014	2	1	28	0	3	4922
1	4014	2	1	29	0	3	2721
1	4014	2	1	30	0	3	3761
1	4015	0	0	0	0	0	0
1	4015	1	1	1	10	0	0
1	4015	1	1	2	37	3	1392
1	4015	1	1	3	46	1	970
1	4015	1	1	4	24	3	1508
1	4015	1	1	5	36	3	912
1	4015	1	1	6	6	3	837
1	4015	1	1	7	13	1	1412
1	4015	1	1	8	28	3	1147
1	4015	0	0	0	0	0	0
1	4015	1	2	1	4	0	0
1	4015	1	2	2	39	3	1617
1	4015	1	2	3	19	1	858
1	4015	1	2	4	27	2	1138
1	4015	1	2	5	15	2	1783
1	4015	1	2	6	9	2	1165
1	4015	1	2	7	34	3	1053
1	4015	1	2	8	45	0	0
1	4015	0	0	0	0	0	0
1	4015	1	3	1	12	3	806
1	4015	1	3	2	29	2	971
1	4015	1	3	3	44	3	1167
1	4015	1	3	4	17	2	1310
1	4015	1	3	5	2	0	0
1	4015	1	3	6	31	1	1590
1	4015	1	3	7	40	2	806
1	4015	1	3	8	22	0	0
1	4015	0	0	0	0	0	0
1	4015	1	4	1	25	1	944
1	4015	1	4	2	14	3	1255
1	4015	1	4	3	20	2	1348
1	4015	1	4	4	48	2	1363
1	4015	1	4	5	42	1	1369
1	4015	1	4	6	35	2	1552
1	4015	1	4	7	3	2	1817
1	4015	1	4	8	7	1	1512
1	4015	0	0	0	0	0	0
1	4015	1	5	1	47	3	1172
1	4015	1	5	2	1	3	1065
1	4015	1	5	3	18	0	0
1	4015	1	5	4	23	3	1429
1	4015	1	5	5	38	2	915
1	4015	1	5	6	26	3	1408
1	4015	1	5	7	32	1	944
1	4015	1	5	8	11	1	1710
1	4015	0	0	0	0	0	0
1	4015	1	6	1	41	1	1135
1	4015	1	6	2	8	3	1078
1	4015	1	6	3	30	2	1149
1	4015	1	6	4	21	2	811
1	4015	1	6	5	16	3	1013
1	4015	1	6	6	33	2	873
1	4015	1	6	7	43	2	937
1	4015	1	6	8	5	1	1003
1	4015	0	0	0	0	0	0
1	4015	1	7	1	36	3	1317
1	4015	1	7	2	12	3	791
1	4015	1	7	3	3	2	899
1	4015	1	7	4	15	3	1966
1	4015	1	7	5	42	1	898
1	4015	1	7	6	46	1	689
1	4015	1	7	7	29	2	980
1	4015	1	7	8	22	3	1109
1	4015	0	0	0	0	0	0
1	4015	1	8	1	27	1	950
1	4015	1	8	2	7	1	1426
1	4015	1	8	3	45	0	0
1	4015	1	8	4	23	1	945
1	4015	1	8	5	34	3	921
1	4015	1	8	6	18	3	1749
1	4015	1	8	7	6	3	1756
1	4015	1	8	8	37	3	861
1	4015	0	0	0	0	0	0
1	4015	1	9	1	30	3	655
1	4015	1	9	2	39	3	839
1	4015	1	9	3	1	1	1215
1	4015	1	9	4	16	2	1786
1	4015	1	9	5	19	3	911
1	4015	1	9	6	35	2	1386
1	4015	1	9	7	47	3	1802
1	4015	1	9	8	11	2	1818
1	4015	0	0	0	0	0	0
1	4015	1	10	1	13	1	1442
1	4015	1	10	2	44	3	940
1	4015	1	10	3	4	3	1029
1	4015	1	10	4	9	3	1395
1	4015	1	10	5	21	3	1427
1	4015	1	10	6	31	1	852
1	4015	1	10	7	26	3	1180
1	4015	1	10	8	40	1	945
1	4015	0	0	0	0	0	0
1	4015	1	11	1	17	3	1669
1	4015	1	11	2	20	3	765
1	4015	1	11	3	48	2	837
1	4015	1	11	4	10	0	0
1	4015	1	11	5	25	1	859
1	4015	1	11	6	41	1	1099
1	4015	1	11	7	5	3	1311
1	4015	1	11	8	33	1	1170
1	4015	0	0	0	0	0	0
1	4015	1	12	1	24	3	691
1	4015	1	12	2	2	1	772
1	4015	1	12	3	8	2	1074
1	4015	1	12	4	28	1	1429
1	4015	1	12	5	43	2	875
1	4015	1	12	6	38	1	1039
1	4015	1	12	7	14	3	1332
1	4015	1	12	8	32	1	1622
1	4015	2	1	1	0	4	9001
1	4015	2	1	2	0	2	7127
1	4015	2	1	3	0	1	5232
1	4015	2	1	4	0	2	4037
1	4015	2	1	5	0	1	3287
1	4015	2	1	6	0	1	2025
1	4015	2	1	7	0	2	3532
1	4015	2	1	8	0	4	5140
1	4015	2	1	9	0	3	2476
1	4015	2	1	10	0	4	2700
1	4015	2	1	11	0	1	4485
1	4015	2	1	12	0	4	4647
1	4015	2	1	13	0	3	4170
1	4015	2	1	14	0	2	2896
1	4015	2	1	15	0	2	2297
1	4015	2	1	16	0	2	4170
1	4015	2	1	17	0	2	2472
1	4015	2	1	18	0	2	4512
1	4015	2	1	19	0	2	4513
1	4015	2	1	20	0	2	3162
1	4015	2	1	21	0	1	3608
1	4015	2	1	22	0	1	3292
1	4015	2	1	23	0	1	3646
1	4015	2	1	24	0	1	2425
1	4015	2	1	25	0	1	6275
1	4015	2	1	26	0	2	4934
1	4015	2	1	27	0	1	4895
1	4015	2	1	28	0	1	3200
1	4015	2	1	29	0	3	2789
1	4015	2	1	30	0	4	2098
1	4021	0	0	0	0	0	0
1	4021	1	1	1	1	2	1156
1	4021	1	1	2	33	3	953
1	4021	1	1	3	40	2	1482
1	4021	1	1	4	8	2	1566
1	4021	1	1	5	14	2	1373
1	4021	1	1	6	20	2	1093
1	4021	1	1	7	29	3	1611
1	4021	1	1	8	48	2	1431
1	4021	0	0	0	0	0	0
1	4021	1	2	1	25	2	945
1	4021	1	2	2	42	1	1458
1	4021	1	2	3	15	3	838
1	4021	1	2	4	7	3	1097
1	4021	1	2	5	21	1	1406
1	4021	1	2	6	45	2	1273
1	4021	1	2	7	6	1	1077
1	4021	1	2	8	32	2	1184
1	4021	0	0	0	0	0	0
1	4021	1	3	1	13	3	751
1	4021	1	3	2	30	1	1044
1	4021	1	3	3	36	2	1375
1	4021	1	3	4	10	3	1026
1	4021	1	3	5	37	1	1977
1	4021	1	3	6	47	0	0
1	4021	1	3	7	23	1	675
1	4021	1	3	8	2	2	670
1	4021	0	0	0	0	0	0
1	4021	1	4	1	39	3	602
1	4021	1	4	2	24	3	1059
1	4021	1	4	3	43	2	879
1	4021	1	4	4	11	2	813
1	4021	1	4	5	28	3	1860
1	4021	1	4	6	31	1	941
1	4021	1	4	7	18	1	1004
1	4021	1	4	8	5	1	958
1	4021	0	0	0	0	0	0
1	4021	1	5	1	16	2	734
1	4021	1	5	2	41	3	1349
1	4021	1	5	3	19	3	859
1	4021	1	5	4	9	3	1160
1	4021	1	5	5	4	2	993
1	4021	1	5	6	26	2	1631
1	4021	1	5	7	44	2	1581
1	4021	1	5	8	35	1	1283
1	4021	0	0	0	0	0	0
1	4021	1	6	1	17	1	661
1	4021	1	6	2	46	2	543
1	4021	1	6	3	12	3	1307
1	4021	1	6	4	3	2	988
1	4021	1	6	5	22	3	915
1	4021	1	6	6	38	1	1567
1	4021	1	6	7	34	3	1144
1	4021	1	6	8	27	2	986
1	4021	0	0	0	0	0	0
1	4021	1	7	1	16	2	565
1	4021	1	7	2	32	1	1099
1	4021	1	7	3	2	1	1069
1	4021	1	7	4	29	2	1048
1	4021	1	7	5	20	1	1907
1	4021	1	7	6	10	2	1636
1	4021	1	7	7	45	3	1318
1	4021	1	7	8	37	3	1189
1	4021	0	0	0	0	0	0
1	4021	1	8	1	1	3	700
1	4021	1	8	2	39	3	1604
1	4021	1	8	3	47	1	1009
1	4021	1	8	4	22	2	764
1	4021	1	8	5	7	3	1235
1	4021	1	8	6	25	1	1357
1	4021	1	8	7	13	3	1295
1	4021	1	8	8	36	2	403
1	4021	0	0	0	0	0	0
1	4021	1	9	1	48	1	572
1	4021	1	9	2	27	3	877
1	4021	1	9	3	33	2	717
1	4021	1	9	4	3	2	1390
1	4021	1	9	5	11	2	1468
1	4021	1	9	6	40	2	1394
1	4021	1	9	7	21	3	1199
1	4021	1	9	8	14	2	1066
1	4021	0	0	0	0	0	0
1	4021	1	10	1	4	2	878
1	4021	1	10	2	42	1	879
1	4021	1	10	3	23	1	775
1	4021	1	10	4	18	1	691
1	4021	1	10	5	44	2	689
1	4021	1	10	6	9	3	767
1	4021	1	10	7	31	2	1386
1	4021	1	10	8	26	3	1698
1	4021	0	0	0	0	0	0
1	4021	1	11	1	12	1	734
1	4021	1	11	2	41	1	1274
1	4021	1	11	3	24	1	627
1	4021	1	11	4	15	3	773
1	4021	1	11	5	46	3	1758
1	4021	1	11	6	34	3	1289
1	4021	1	11	7	5	2	1745
1	4021	1	11	8	30	3	1632
1	4021	0	0	0	0	0	0
1	4021	1	12	1	19	3	746
1	4021	1	12	2	8	2	760
1	4021	1	12	3	6	1	771
1	4021	1	12	4	43	2	753
1	4021	1	12	5	28	3	1887
1	4021	1	12	6	17	1	734
1	4021	1	12	7	35	1	1396
1	4021	1	12	8	38	2	670
1	4021	2	1	1	0	4	16632
1	4021	2	1	2	0	3	28815
1	4021	2	1	3	0	1	5910
1	4021	2	1	4	0	4	6511
1	4021	2	1	5	0	1	7640
1	4021	2	1	6	0	1	6749
1	4021	2	1	7	0	1	5477
1	4021	2	1	8	0	4	2104
1	4021	2	1	9	0	4	1448
1	4021	2	1	10	0	2	5297
1	4021	2	1	11	0	1	4275
1	4021	2	1	12	0	4	3198
1	4021	2	1	13	0	2	2682
1	4021	2	1	14	0	2	3771
1	4021	2	1	15	0	4	3289
1	4021	2	1	16	0	1	2466
1	4021	2	1	17	0	3	3307
1	4021	2	1	18	0	1	5508
1	4021	2	1	19	0	2	3165
1	4021	2	1	20	0	2	2370
1	4021	2	1	21	0	1	5944
1	4021	2	1	22	0	4	3761
1	4021	2	1	23	0	1	2278
1	4021	2	1	24	0	1	2160
1	4021	2	1	25	0	4	2582
1	4021	2	1	26	0	3	2915
1	4021	2	1	27	0	1	2706
1	4021	2	1	28	0	1	2978
1	4021	2	1	29	0	2	10839
1	4021	2	1	30	0	4	6181
1	4022	0	0	0	0	0	0
1	4022	1	1	1	1	0	0
1	4022	1	1	2	35	0	0
1	4022	1	1	3	27	0	0
1	4022	1	1	4	39	3	1130
1	4022	1	1	5	23	2	1008
1	4022	1	1	6	43	2	1172
1	4022	1	1	7	8	2	1332
1	4022	1	1	8	18	1	1856
1	4022	0	0	0	0	0	0
1	4022	1	2	1	37	2	1157
1	4022	1	2	2	28	2	1628
1	4022	1	2	3	15	0	0
1	4022	1	2	4	32	1	1187
1	4022	1	2	5	44	2	1090
1	4022	1	2	6	9	2	945
1	4022	1	2	7	21	0	0
1	4022	1	2	8	4	3	1606
1	4022	0	0	0	0	0	0
1	4022	1	3	1	11	0	0
1	4022	1	3	2	2	1	1284
1	4022	1	3	3	14	3	1289
1	4022	1	3	4	42	1	1377
1	4022	1	3	5	24	3	939
1	4022	1	3	6	45	1	1154
1	4022	1	3	7	26	3	1183
1	4022	1	3	8	33	1	1078
1	4022	0	0	0	0	0	0
1	4022	1	4	1	40	2	1348
1	4022	1	4	2	31	1	935
1	4022	1	4	3	30	2	1798
1	4022	1	4	4	48	2	1553
1	4022	1	4	5	22	1	1540
1	4022	1	4	6	16	0	0
1	4022	1	4	7	6	0	0
1	4022	1	4	8	7	1	1782
1	4022	0	0	0	0	0	0
1	4022	1	5	1	17	3	1983
1	4022	1	5	2	47	3	1313
1	4022	1	5	3	38	2	1305
1	4022	1	5	4	20	2	1416
1	4022	1	5	5	3	0	0
1	4022	1	5	6	12	3	1947
1	4022	1	5	7	34	0	0
1	4022	1	5	8	29	2	1904
1	4022	0	0	0	0	0	0
1	4022	1	6	1	36	3	988
1	4022	1	6	2	46	1	1315
1	4022	1	6	3	5	2	1402
1	4022	1	6	4	41	1	1013
1	4022	1	6	5	19	1	1798
1	4022	1	6	6	10	3	1366
1	4022	1	6	7	13	1	1058
1	4022	1	6	8	25	2	1370
1	4022	0	0	0	0	0	0
1	4022	1	7	1	21	2	1563
1	4022	1	7	2	14	2	1950
1	4022	1	7	3	32	1	1206
1	4022	1	7	4	29	3	1297
1	4022	1	7	5	45	3	1548
1	4022	1	7	6	6	2	1900
1	4022	1	7	7	42	1	907
1	4022	1	7	8	8	1	1445
1	4022	0	0	0	0	0	0
1	4022	1	8	1	22	3	1570
1	4022	1	8	2	3	0	0
1	4022	1	8	3	34	3	925
1	4022	1	8	4	28	3	676
1	4022	1	8	5	44	3	1210
1	4022	1	8	6	40	2	1748
1	4022	1	8	7	15	1	1701
1	4022	1	8	8	12	3	1346
1	4022	0	0	0	0	0	0
1	4022	1	9	1	36	3	1074
1	4022	1	9	2	11	2	783
1	4022	1	9	3	39	3	1340
1	4022	1	9	4	30	3	1365
1	4022	1	9	5	43	2	1635
1	4022	1	9	6	13	2	1695
1	4022	1	9	7	1	1	1059
1	4022	1	9	8	23	0	0
1	4022	0	0	0	0	0	0
1	4022	1	10	1	10	3	951
1	4022	1	10	2	31	1	751
1	4022	1	10	3	24	3	816
1	4022	1	10	4	41	1	1108
1	4022	1	10	5	48	2	1008
1	4022	1	10	6	27	1	943
1	4022	1	10	7	2	1	1299
1	4022	1	10	8	17	2	1303
1	4022	0	0	0	0	0	0
1	4022	1	11	1	47	2	1757
1	4022	1	11	2	20	0	0
1	4022	1	11	3	16	3	975
1	4022	1	11	4	25	2	1121
1	4022	1	11	5	33	0	0
1	4022	1	11	6	37	3	1308
1	4022	1	11	7	4	3	1285
1	4022	1	11	8	9	2	850
1	4022	0	0	0	0	0	0
1	4022	1	12	1	18	3	1054
1	4022	1	12	2	46	1	1041
1	4022	1	12	3	5	2	1526
1	4022	1	12	4	35	2	1661
1	4022	1	12	5	38	2	1635
1	4022	1	12	6	7	1	1768
1	4022	1	12	7	26	2	1909
1	4022	1	12	8	19	1	1108
1	4022	2	1	1	0	3	12599
1	4022	2	1	2	0	1	7983
1	4022	2	1	3	0	3	6967
1	4022	2	1	4	0	2	14510
1	4022	2	1	5	0	2	6211
1	4022	2	1	6	0	4	4232
1	4022	2	1	7	0	2	5413
1	4022	2	1	8	0	4	3385
1	4022	2	1	9	0	3	3959
1	4022	2	1	10	0	2	3206
1	4022	2	1	11	0	1	5058
1	4022	2	1	12	0	3	9316
1	4022	2	1	13	0	4	2600
1	4022	2	1	14	0	1	3716
1	4022	2	1	15	0	4	3244
1	4022	2	1	16	0	1	6815
1	4022	2	1	17	0	1	2853
1	4022	2	1	18	0	1	4319
1	4022	2	1	19	0	1	2576
1	4022	2	1	20	0	3	3486
1	4022	2	1	21	0	1	2087
1	4022	2	1	22	0	4	2241
1	4022	2	1	23	0	1	5978
1	4022	2	1	24	0	1	2409
1	4022	2	1	25	0	1	6581
1	4022	2	1	26	0	4	3468
1	4022	2	1	27	0	2	5078
1	4022	2	1	28	0	1	4169
1	4022	2	1	29	0	3	3343
1	4022	2	1	30	0	3	3606
1	4023	0	0	0	0	0	0
1	4023	1	1	1	10	0	0
1	4023	1	1	2	3	3	1274
1	4023	1	1	3	21	2	985
1	4023	1	1	4	46	0	0
1	4023	1	1	5	37	3	1569
1	4023	1	1	6	16	3	1484
1	4023	1	1	7	28	1	1919
1	4023	1	1	8	32	0	0
1	4023	0	0	0	0	0	0
1	4023	1	2	1	27	2	1028
1	4023	1	2	2	40	2	1473
1	4023	1	2	3	15	3	1538
1	4023	1	2	4	24	1	1266
1	4023	1	2	5	33	2	1751
1	4023	1	2	6	8	1	1392
1	4023	1	2	7	2	1	1851
1	4023	1	2	8	47	0	0
1	4023	0	0	0	0	0	0
1	4023	1	3	1	18	1	1424
1	4023	1	3	2	20	1	1594
1	4023	1	3	3	36	3	1420
1	4023	1	3	4	45	3	1762
1	4023	1	3	5	11	2	1182
1	4023	1	3	6	25	0	0
1	4023	1	3	7	41	1	1805
1	4023	1	3	8	6	3	1465
1	4023	0	0	0	0	0	0
1	4023	1	4	1	17	1	1519
1	4023	1	4	2	39	3	1274
1	4023	1	4	3	23	2	1569
1	4023	1	4	4	44	2	1715
1	4023	1	4	5	12	3	1535
1	4023	1	4	6	4	3	1787
1	4023	1	4	7	30	0	0
1	4023	1	4	8	35	2	1475
1	4023	0	0	0	0	0	0
1	4023	1	5	1	19	1	1265
1	4023	1	5	2	48	1	1697
1	4023	1	5	3	9	2	1152
1	4023	1	5	4	38	2	1569
1	4023	1	5	5	31	1	1445
1	4023	1	5	6	26	3	1782
1	4023	1	5	7	1	1	1733
1	4023	1	5	8	14	2	1388
1	4023	0	0	0	0	0	0
1	4023	1	6	1	34	2	1555
1	4023	1	6	2	22	3	1336
1	4023	1	6	3	7	1	1382
1	4023	1	6	4	43	2	1753
1	4023	1	6	5	42	3	1621
1	4023	1	6	6	5	2	1688
1	4023	1	6	7	29	3	1893
1	4023	1	6	8	13	3	1720
1	4023	0	0	0	0	0	0
1	4023	1	7	1	19	1	1146
1	4023	1	7	2	14	2	1012
1	4023	1	7	3	12	3	1359
1	4023	1	7	4	2	2	1803
1	4023	1	7	5	46	2	1598
1	4023	1	7	6	39	3	1775
1	4023	1	7	7	32	2	1435
1	4023	1	7	8	25	2	1619
1	4023	0	0	0	0	0	0
1	4023	1	8	1	44	3	1037
1	4023	1	8	2	16	1	1375
1	4023	1	8	3	22	3	1294
1	4023	1	8	4	40	2	1052
1	4023	1	8	5	31	1	1290
1	4023	1	8	6	9	2	1498
1	4023	1	8	7	6	1	1157
1	4023	1	8	8	30	2	1240
1	4023	0	0	0	0	0	0
1	4023	1	9	1	36	3	1597
1	4023	1	9	2	24	3	1153
1	4023	1	9	3	13	3	1136
1	4023	1	9	4	10	3	1495
1	4023	1	9	5	26	3	1576
1	4023	1	9	6	43	2	1113
1	4023	1	9	7	4	2	1254
1	4023	1	9	8	38	2	1066
1	4023	0	0	0	0	0	0
1	4023	1	10	1	45	3	1540
1	4023	1	10	2	8	1	1731
1	4023	1	10	3	23	2	1272
1	4023	1	10	4	27	2	1415
1	4023	1	10	5	17	2	1488
1	4023	1	10	6	37	1	1810
1	4023	1	10	7	3	2	1753
1	4023	1	10	8	34	3	1762
1	4023	0	0	0	0	0	0
1	4023	1	11	1	5	1	1180
1	4023	1	11	2	11	2	1311
1	4023	1	11	3	33	2	1675
1	4023	1	11	4	21	2	1067
1	4023	1	11	5	47	3	1282
1	4023	1	11	6	28	1	1425
1	4023	1	11	7	41	1	1828
1	4023	1	11	8	18	3	1240
1	4023	0	0	0	0	0	0
1	4023	1	12	1	1	3	1535
1	4023	1	12	2	42	1	973
1	4023	1	12	3	15	3	1185
1	4023	1	12	4	48	2	1232
1	4023	1	12	5	20	2	1059
1	4023	1	12	6	35	2	1136
1	4023	1	12	7	7	1	956
1	4023	1	12	8	29	3	1201
1	4023	2	1	1	0	3	5662
1	4023	2	1	2	0	2	3185
1	4023	2	1	3	0	4	2839
1	4023	2	1	4	0	2	2977
1	4023	2	1	5	0	3	2399
1	4023	2	1	6	0	1	2603
1	4023	2	1	7	0	3	1954
1	4023	2	1	8	0	4	1781
1	4023	2	1	9	0	2	2210
1	4023	2	1	10	0	3	1950
1	4023	2	1	11	0	1	4332
1	4023	2	1	12	0	4	2699
1	4023	2	1	13	0	3	3068
1	4023	2	1	14	0	2	2318
1	4023	2	1	15	0	3	2374
1	4023	2	1	16	0	1	1883
1	4023	2	1	17	0	1	1876
1	4023	2	1	18	0	3	6701
1	4023	2	1	19	0	1	5079
1	4023	2	1	20	0	3	4769
1	4023	2	1	21	0	1	1728
1	4023	2	1	22	0	1	1879
1	4023	2	1	23	0	2	3712
1	4023	2	1	24	0	1	1776
1	4023	2	1	25	0	1	2676
1	4023	2	1	26	0	2	5222
1	4023	2	1	27	0	1	5339
1	4023	2	1	28	0	3	4747
1	4023	2	1	29	0	1	1721
1	4023	2	1	30	0	3	1761
1	4024	0	0	0	0	0	0
1	4024	1	1	1	43	0	0
1	4024	1	1	2	32	1	1579
1	4024	1	1	3	10	3	1199
1	4024	1	1	4	20	1	941
1	4024	1	1	5	16	2	978
1	4024	1	1	6	39	3	1172
1	4024	1	1	7	5	2	995
1	4024	1	1	8	30	2	1635
1	4024	0	0	0	0	0	0
1	4024	1	2	1	9	2	878
1	4024	1	2	2	2	1	776
1	4024	1	2	3	21	2	711
1	4024	1	2	4	33	2	1334
1	4024	1	2	5	41	2	1138
1	4024	1	2	6	47	0	0
1	4024	1	2	7	17	2	878
1	4024	1	2	8	28	1	963
1	4024	0	0	0	0	0	0
1	4024	1	3	1	37	3	1239
1	4024	1	3	2	13	3	1162
1	4024	1	3	3	36	2	1343
1	4024	1	3	4	48	2	984
1	4024	1	3	5	27	1	1605
1	4024	1	3	6	22	2	1720
1	4024	1	3	7	11	2	1476
1	4024	1	3	8	1	3	1239
1	4024	0	0	0	0	0	0
1	4024	1	4	1	31	1	1275
1	4024	1	4	2	15	3	1155
1	4024	1	4	3	8	1	1766
1	4024	1	4	4	40	2	1745
1	4024	1	4	5	23	2	1859
1	4024	1	4	6	44	2	1898
1	4024	1	4	7	26	3	1587
1	4024	1	4	8	6	0	0
1	4024	0	0	0	0	0	0
1	4024	1	5	1	45	1	1443
1	4024	1	5	2	18	1	1561
1	4024	1	5	3	38	2	1474
1	4024	1	5	4	3	3	1148
1	4024	1	5	5	34	0	0
1	4024	1	5	6	19	3	1372
1	4024	1	5	7	29	3	1342
1	4024	1	5	8	7	1	1508
1	4024	0	0	0	0	0	0
1	4024	1	6	1	14	2	1094
1	4024	1	6	2	46	1	1069
1	4024	1	6	3	35	0	0
1	4024	1	6	4	24	0	0
1	4024	1	6	5	4	0	0
1	4024	1	6	6	25	2	1740
1	4024	1	6	7	42	1	1414
1	4024	1	6	8	12	3	1378
1	4024	0	0	0	0	0	0
1	4024	1	7	1	28	1	1119
1	4024	1	7	2	33	2	775
1	4024	1	7	3	2	2	1178
1	4024	1	7	4	44	2	1401
1	4024	1	7	5	10	3	1151
1	4024	1	7	6	17	2	1160
1	4024	1	7	7	22	2	1646
1	4024	1	7	8	37	3	1819
1	4024	0	0	0	0	0	0
1	4024	1	8	1	43	3	1127
1	4024	1	8	2	14	2	1262
1	4024	1	8	3	8	2	1300
1	4024	1	8	4	3	2	1768
1	4024	1	8	5	26	0	0
1	4024	1	8	6	41	1	1130
1	4024	1	8	7	31	1	1389
1	4024	1	8	8	24	3	1689
1	4024	0	0	0	0	0	0
1	4024	1	9	1	40	1	746
1	4024	1	9	2	30	2	841
1	4024	1	9	3	11	2	1091
1	4024	1	9	4	1	0	0
1	4024	1	9	5	45	1	1020
1	4024	1	9	6	34	0	0
1	4024	1	9	7	15	3	966
1	4024	1	9	8	23	2	861
1	4024	0	0	0	0	0	0
1	4024	1	10	1	47	3	1041
1	4024	1	10	2	12	3	1383
1	4024	1	10	3	20	1	1156
1	4024	1	10	4	13	3	1267
1	4024	1	10	5	42	1	1505
1	4024	1	10	6	29	3	941
1	4024	1	10	7	4	3	1274
1	4024	1	10	8	36	3	1243
1	4024	0	0	0	0	0	0
1	4024	1	11	1	6	1	1554
1	4024	1	11	2	19	3	1298
1	4024	1	11	3	18	1	1625
1	4024	1	11	4	48	2	923
1	4024	1	11	5	9	3	1774
1	4024	1	11	6	25	0	0
1	4024	1	11	7	32	0	0
1	4024	1	11	8	39	3	1348
1	4024	0	0	0	0	0	0
1	4024	1	12	1	35	2	1496
1	4024	1	12	2	21	2	1084
1	4024	1	12	3	46	1	1822
1	4024	1	12	4	27	2	1627
1	4024	1	12	5	38	2	1642
1	4024	1	12	6	7	0	0
1	4024	1	12	7	5	0	0
1	4024	1	12	8	16	2	799
1	4024	2	1	1	0	3	8001
1	4024	2	1	2	0	2	6527
1	4024	2	1	3	0	1	7888
1	4024	2	1	4	0	3	4835
1	4024	2	1	5	0	2	3950
1	4024	2	1	6	0	2	3621
1	4024	2	1	7	0	4	4609
1	4024	2	1	8	0	3	2726
1	4024	2	1	9	0	4	4877
1	4024	2	1	10	0	4	4719
1	4024	2	1	11	0	2	4750
1	4024	2	1	12	0	3	2774
1	4024	2	1	13	0	3	3636
1	4024	2	1	14	0	1	3063
1	4024	2	1	15	0	2	2498
1	4024	2	1	16	0	1	2425
1	4024	2	1	17	0	1	1949
1	4024	2	1	18	0	2	2883
1	4024	2	1	19	0	1	4621
1	4024	2	1	20	0	3	2552
1	4024	2	1	21	0	1	2022
1	4024	2	1	22	0	2	1977
1	4024	2	1	23	0	2	4502
1	4024	2	1	24	0	1	1951
1	4024	2	1	25	0	1	3572
1	4024	2	1	26	0	2	4698
1	4024	2	1	27	0	2	6284
1	4024	2	1	28	0	2	5037
1	4024	2	1	29	0	4	2913
1	4024	2	1	30	0	2	4913
2	4001	0	0	0	0	0	0
2	4001	1	1	1	2	2	11513
2	4001	1	1	2	44	2	5815
2	4001	1	1	3	41	1	2113
2	4001	1	1	4	22	2	23058
2	4001	1	1	5	8	3	9707
2	4001	1	1	6	18	2	6544
2	4001	1	1	7	28	1	2768
2	4001	1	1	8	32	1	19500
2	4001	0	0	0	0	0	0
2	4001	1	2	1	14	3	2261
2	4001	1	2	2	37	3	6855
2	4001	1	2	3	33	2	1190
2	4001	1	2	4	29	3	13149
2	4001	1	2	5	12	2	9813
2	4001	1	2	6	4	2	17224
2	4001	1	2	7	24	2	2594
2	4001	1	2	8	48	2	573
2	4001	0	0	0	0	0	0
2	4001	1	3	1	23	2	4641
2	4001	1	3	2	9	1	884
2	4001	1	3	3	38	2	4983
2	4001	1	3	4	36	3	1543
2	4001	1	3	5	13	2	4066
2	4001	1	3	6	5	2	512
2	4001	1	3	7	45	1	737
2	4001	1	3	8	30	2	4909
2	4001	0	0	0	0	0	0
2	4001	1	4	1	21	3	14687
2	4001	1	4	2	17	3	1814
2	4001	1	4	3	10	1	2356
2	4001	1	4	4	31	1	4363
2	4001	1	4	5	40	2	1080
2	4001	1	4	6	26	3	17028
2	4001	1	4	7	43	2	61127
2	4001	1	4	8	6	3	124
2	4001	0	0	0	0	0	0
2	4001	1	5	1	16	1	1432
2	4001	1	5	2	19	2	491
2	4001	1	5	3	3	1	1793
2	4001	1	5	4	34	3	407
2	4001	1	5	5	11	2	1091
2	4001	1	5	6	25	2	937
2	4001	1	5	7	42	1	1577
2	4001	1	5	8	46	1	2850
2	4001	0	0	0	0	0	0
2	4001	1	6	1	15	1	3085
2	4001	1	6	2	47	3	1428
2	4001	1	6	3	20	3	6363
2	4001	1	6	4	35	2	1659
2	4001	1	6	5	39	3	4093
2	4001	1	6	6	7	2	2267
2	4001	1	6	7	1	2	6642
2	4001	1	6	8	27	1	2888
2	4001	0	0	0	0	0	0
2	4001	1	7	1	42	1	12281
2	4001	1	7	2	16	2	6294
2	4001	1	7	3	11	2	11240
2	4001	1	7	4	26	3	3781
2	4001	1	7	5	45	1	5836
2	4001	1	7	6	4	1	5347
2	4001	1	7	7	19	2	11340
2	4001	1	7	8	33	2	13579
2	4001	0	0	0	0	0	0
2	4001	1	8	1	41	1	5597
2	4001	1	8	2	6	2	1978
2	4001	1	8	3	29	3	4044
2	4001	1	8	4	22	1	4286
2	4001	1	8	5	32	1	4712
2	4001	1	8	6	48	2	30868
2	4001	1	8	7	8	1	5225
2	4001	1	8	8	17	1	3320
2	4001	0	0	0	0	0	0
2	4001	1	9	1	30	2	1136
2	4001	1	9	2	13	3	4960
2	4001	1	9	3	38	2	2559
2	4001	1	9	4	21	2	6208
2	4001	1	9	5	44	3	3946
2	4001	1	9	6	9	2	3361
2	4001	1	9	7	5	3	4614
2	4001	1	9	8	35	1	14648
2	4001	0	0	0	0	0	0
2	4001	1	10	1	10	3	8663
2	4001	1	10	2	20	3	36703
2	4001	1	10	3	1	2	6880
2	4001	1	10	4	25	3	9236
2	4001	1	10	5	43	3	12612
2	4001	1	10	6	39	3	3765
2	4001	1	10	7	34	2	9218
2	4001	1	10	8	18	1	28284
2	4001	0	0	0	0	0	0
2	4001	1	11	1	24	1	18747
2	4001	1	11	2	15	2	25853
2	4001	1	11	3	31	3	6096
2	4001	1	11	4	46	3	8674
2	4001	1	11	5	37	3	1131
2	4001	1	11	6	28	2	2011
2	4001	1	11	7	12	3	6044
2	4001	1	11	8	3	1	10303
2	4001	0	0	0	0	0	0
2	4001	1	12	1	36	2	2490
2	4001	1	12	2	14	3	672
2	4001	1	12	3	47	3	533
2	4001	1	12	4	7	1	544
2	4001	1	12	5	2	3	800
2	4001	1	12	6	23	1	1059
2	4001	1	12	7	40	2	2011
2	4001	1	12	8	27	1	2067
2	4002	0	0	0	0	0	0
2	4002	1	1	1	18	1	4496
2	4002	1	1	2	40	2	4056
2	4002	1	1	3	45	2	33254
2	4002	1	1	4	35	1	21316
2	4002	1	1	5	2	3	33287
2	4002	1	1	6	22	3	44503
2	4002	1	1	7	7	1	5476
2	4002	1	1	8	25	3	6634
2	4002	0	0	0	0	0	0
2	4002	1	2	1	23	1	18281
2	4002	1	2	2	34	2	3681
2	4002	1	2	3	39	3	3199
2	4002	1	2	4	1	2	5818
2	4002	1	2	5	30	1	1776
2	4002	1	2	6	13	3	45625
2	4002	1	2	7	46	2	21026
2	4002	1	2	8	8	1	1286
2	4002	0	0	0	0	0	0
2	4002	1	3	1	5	3	2486
2	4002	1	3	2	24	1	7420
2	4002	1	3	3	14	2	25062
2	4002	1	3	4	28	2	1356
2	4002	1	3	5	41	1	1804
2	4002	1	3	6	12	3	3732
2	4002	1	3	7	36	1	2245
2	4002	1	3	8	48	1	5349
2	4002	0	0	0	0	0	0
2	4002	1	4	1	38	2	10134
2	4002	1	4	2	11	2	168
2	4002	1	4	3	17	1	20296
2	4002	1	4	4	26	2	588
2	4002	1	4	5	21	3	16482
2	4002	1	4	6	32	2	2324
2	4002	1	4	7	3	1	1595
2	4002	1	4	8	44	2	23237
2	4002	0	0	0	0	0	0
2	4002	1	5	1	33	3	9280
2	4002	1	5	2	29	1	2589
2	4002	1	5	3	9	2	6418
2	4002	1	5	4	47	1	5485
2	4002	1	5	5	37	3	4109
2	4002	1	5	6	20	2	6990
2	4002	1	5	7	6	2	918
2	4002	1	5	8	16	2	8598
2	4002	0	0	0	0	0	0
2	4002	1	6	1	42	1	357
2	4002	1	6	2	4	1	728
2	4002	1	6	3	27	3	198
2	4002	1	6	4	19	3	10046
2	4002	1	6	5	31	3	4545
2	4002	1	6	6	15	3	6732
2	4002	1	6	7	10	3	1189
2	4002	1	6	8	43	3	11117
2	4002	0	0	0	0	0	0
2	4002	1	7	1	9	2	758
2	4002	1	7	2	28	2	918
2	4002	1	7	3	20	2	6171
2	4002	1	7	4	14	2	4836
2	4002	1	7	5	5	3	623
2	4002	1	7	6	45	3	4529
2	4002	1	7	7	34	2	1989
2	4002	1	7	8	37	3	1201
2	4002	0	0	0	0	0	0
2	4002	1	8	1	26	2	314
2	4002	1	8	2	16	2	483
2	4002	1	8	3	46	2	4542
2	4002	1	8	4	33	2	3758
2	4002	1	8	5	12	3	1507
2	4002	1	8	6	2	3	272
2	4002	1	8	7	42	1	1629
2	4002	1	8	8	19	3	9508
2	4002	0	0	0	0	0	0
2	4002	1	9	1	1	2	805
2	4002	1	9	2	17	1	2122
2	4002	1	9	3	32	2	5801
2	4002	1	9	4	47	1	5507
2	4002	1	9	5	29	1	35
2	4002	1	9	6	10	3	2018
2	4002	1	9	7	23	1	5789
2	4002	1	9	8	41	1	1794
2	4002	0	0	0	0	0	0
2	4002	1	10	1	11	2	1152
2	4002	1	10	2	24	1	5752
2	4002	1	10	3	39	3	301
2	4002	1	10	4	44	2	8625
2	4002	1	10	5	36	1	2475
2	4002	1	10	6	27	3	657
2	4002	1	10	7	3	2	2515
2	4002	1	10	8	13	3	3736
2	4002	0	0	0	0	0	0
2	4002	1	11	1	25	3	392
2	4002	1	11	2	31	3	3450
2	4002	1	11	3	38	2	2085
2	4002	1	11	4	8	1	761
2	4002	1	11	5	21	3	6388
2	4002	1	11	6	48	1	6077
2	4002	1	11	7	4	1	1196
2	4002	1	11	8	15	3	1557
2	4002	0	0	0	0	0	0
2	4002	1	12	1	40	2	2152
2	4002	1	12	2	35	1	5526
2	4002	1	12	3	30	1	1148
2	4002	1	12	4	7	1	80
2	4002	1	12	5	18	1	5566
2	4002	1	12	6	22	2	6018
2	4002	1	12	7	6	2	557
2	4002	1	12	8	43	3	8679
2	4003	0	0	0	0	0	0
2	4003	1	1	1	26	3	11880
2	4003	1	1	2	37	3	12584
2	4003	1	1	3	14	3	13781
2	4003	1	1	4	33	2	1307
2	4003	1	1	5	21	1	9643
2	4003	1	1	6	43	2	10298
2	4003	1	1	7	5	1	18871
2	4003	1	1	8	11	2	7612
2	4003	0	0	0	0	0	0
2	4003	1	2	1	28	1	5899
2	4003	1	2	2	17	3	976
2	4003	1	2	3	46	1	524
2	4003	1	2	4	22	1	324
2	4003	1	2	5	7	2	573
2	4003	1	2	6	6	2	7868
2	4003	1	2	7	31	1	25514
2	4003	1	2	8	40	2	945
2	4003	0	0	0	0	0	0
2	4003	1	3	1	9	2	10660
2	4003	1	3	2	29	3	1789
2	4003	1	3	3	20	3	653
2	4003	1	3	4	35	2	1164
2	4003	1	3	5	48	1	42632
2	4003	1	3	6	42	1	10920
2	4003	1	3	7	4	1	5248
2	4003	1	3	8	18	2	29906
2	4003	0	0	0	0	0	0
2	4003	1	4	1	19	3	27325
2	4003	1	4	2	41	1	2170
2	4003	1	4	3	45	3	34008
2	4003	1	4	4	3	1	8972
2	4003	1	4	5	10	3	8889
2	4003	1	4	6	34	2	13849
2	4003	1	4	7	27	3	9956
2	4003	1	4	8	13	2	456
2	4003	0	0	0	0	0	0
2	4003	1	5	1	44	3	2200
2	4003	1	5	2	1	2	544
2	4003	1	5	3	8	3	351
2	4003	1	5	4	24	2	521
2	4003	1	5	5	39	3	3291
2	4003	1	5	6	32	2	11548
2	4003	1	5	7	30	1	8939
2	4003	1	5	8	15	1	422
2	4003	0	0	0	0	0	0
2	4003	1	6	1	47	3	355
2	4003	1	6	2	36	3	324
2	4003	1	6	3	16	1	442
2	4003	1	6	4	38	2	7096
2	4003	1	6	5	23	3	72
2	4003	1	6	6	2	3	3325
2	4003	1	6	7	25	3	8852
2	4003	1	6	8	12	2	180
2	4003	0	0	0	0	0	0
2	4003	1	7	1	15	1	411
2	4003	1	7	2	30	1	1926
2	4003	1	7	3	37	3	228
2	4003	1	7	4	21	1	392
2	4003	1	7	5	48	1	14280
2	4003	1	7	6	3	1	297
2	4003	1	7	7	33	3	9663
2	4003	1	7	8	7	2	1024
2	4003	0	0	0	0	0	0
2	4003	1	8	1	6	2	361
2	4003	1	8	2	42	1	3949
2	4003	1	8	3	32	2	8788
2	4003	1	8	4	17	3	1410
2	4003	1	8	5	26	2	6082
2	4003	1	8	6	11	3	1310
2	4003	1	8	7	23	3	1647
2	4003	1	8	8	44	2	2560
2	4003	0	0	0	0	0	0
2	4003	1	9	1	19	2	509
2	4003	1	9	2	4	1	459
2	4003	1	9	3	34	2	7765
2	4003	1	9	4	28	2	2290
2	4003	1	9	5	8	3	999
2	4003	1	9	6	14	3	551
2	4003	1	9	7	46	3	744
2	4003	1	9	8	38	2	6883
2	4003	0	0	0	0	0	0
2	4003	1	10	1	47	1	5249
2	4003	1	10	2	13	2	93
2	4003	1	10	3	40	2	8789
2	4003	1	10	4	12	2	471
2	4003	1	10	5	31	3	8715
2	4003	1	10	6	27	3	2656
2	4003	1	10	7	2	3	5123
2	4003	1	10	8	24	2	203
2	4003	0	0	0	0	0	0
2	4003	1	11	1	1	2	442
2	4003	1	11	2	20	3	378
2	4003	1	11	3	18	2	340
2	4003	1	11	4	43	3	485
2	4003	1	11	5	29	1	494
2	4003	1	11	6	39	3	613
2	4003	1	11	7	10	1	735
2	4003	1	11	8	36	3	12248
2	4003	0	0	0	0	0	0
2	4003	1	12	1	16	1	469
2	4003	1	12	2	5	3	167
2	4003	1	12	3	45	3	375
2	4003	1	12	4	22	1	50
2	4003	1	12	5	41	1	1314
2	4003	1	12	6	9	2	5008
2	4003	1	12	7	25	1	330
2	4003	1	12	8	35	2	2202
2	4004	0	0	0	0	0	0
2	4004	1	1	1	46	1	4297
2	4004	1	1	2	16	1	3928
2	4004	1	1	3	12	3	4854
2	4004	1	1	4	22	2	2324
2	4004	1	1	5	25	3	4758
2	4004	1	1	6	4	3	1669
2	4004	1	1	7	38	1	4870
2	4004	1	1	8	31	3	1216
2	4004	0	0	0	0	0	0
2	4004	1	2	1	45	2	1960
2	4004	1	2	2	30	1	8293
2	4004	1	2	3	35	1	6337
2	4004	1	2	4	8	3	6821
2	4004	1	2	5	23	3	5799
2	4004	1	2	6	40	3	2536
2	4004	1	2	7	6	3	7451
2	4004	1	2	8	15	1	2572
2	4004	0	0	0	0	0	0
2	4004	1	3	1	26	3	3020
2	4004	1	3	2	41	2	1417
2	4004	1	3	3	17	3	1281
2	4004	1	3	4	24	2	1624
2	4004	1	3	5	2	2	3753
2	4004	1	3	6	32	2	9173
2	4004	1	3	7	48	3	798
2	4004	1	3	8	11	2	3531
2	4004	0	0	0	0	0	0
2	4004	1	4	1	43	1	904
2	4004	1	4	2	10	1	6122
2	4004	1	4	3	42	1	998
2	4004	1	4	4	28	1	1935
2	4004	1	4	5	33	2	1248
2	4004	1	4	6	3	1	6354
2	4004	1	4	7	14	3	947
2	4004	1	4	8	21	1	720
2	4004	0	0	0	0	0	0
2	4004	1	5	1	18	2	755
2	4004	1	5	2	34	2	1271
2	4004	1	5	3	47	2	1028
2	4004	1	5	4	37	3	5761
2	4004	1	5	5	7	1	3755
2	4004	1	5	6	5	1	2144
2	4004	1	5	7	19	1	1884
2	4004	1	5	8	27	1	1228
2	4004	0	0	0	0	0	0
2	4004	1	6	1	9	2	858
2	4004	1	6	2	13	2	1127
2	4004	1	6	3	20	3	1662
2	4004	1	6	4	39	3	1264
2	4004	1	6	5	44	1	1060
2	4004	1	6	6	36	1	1393
2	4004	1	6	7	29	3	4604
2	4004	1	6	8	1	3	9087
2	4004	0	0	0	0	0	0
2	4004	1	7	1	38	2	1469
2	4004	1	7	2	5	1	710
2	4004	1	7	3	15	1	688
2	4004	1	7	4	22	2	2244
2	4004	1	7	5	28	1	788
2	4004	1	7	6	7	1	2175
2	4004	1	7	7	46	3	922
2	4004	1	7	8	35	2	1241
2	4004	0	0	0	0	0	0
2	4004	1	8	1	10	3	3899
2	4004	1	8	2	41	1	525
2	4004	1	8	3	48	2	636
2	4004	1	8	4	1	3	1023
2	4004	1	8	5	14	3	667
2	4004	1	8	6	26	3	617
2	4004	1	8	7	36	1	1617
2	4004	1	8	8	24	2	3264
2	4004	0	0	0	0	0	0
2	4004	1	9	1	9	2	573
2	4004	1	9	2	20	3	697
2	4004	1	9	3	40	2	1210
2	4004	1	9	4	31	1	1600
2	4004	1	9	5	44	1	916
2	4004	1	9	6	29	1	837
2	4004	1	9	7	13	2	962
2	4004	1	9	8	3	1	5962
2	4004	0	0	0	0	0	0
2	4004	1	10	1	33	2	948
2	4004	1	10	2	21	1	1344
2	4004	1	10	3	2	3	6674
2	4004	1	10	4	8	2	5618
2	4004	1	10	5	16	1	1590
2	4004	1	10	6	42	1	632
2	4004	1	10	7	47	2	3320
2	4004	1	10	8	30	1	2942
2	4004	0	0	0	0	0	0
2	4004	1	11	1	12	3	11543
2	4004	1	11	2	17	3	4969
2	4004	1	11	3	23	3	1091
2	4004	1	11	4	39	2	646
2	4004	1	11	5	27	3	4973
2	4004	1	11	6	6	2	2607
2	4004	1	11	7	43	2	676
2	4004	1	11	8	34	2	4451
2	4004	0	0	0	0	0	0
2	4004	1	12	1	19	2	582
2	4004	1	12	2	18	2	777
2	4004	1	12	3	4	1	2625
2	4004	1	12	4	45	2	1059
2	4004	1	12	5	25	2	1530
2	4004	1	12	6	11	2	2930
2	4004	1	12	7	37	3	3205
2	4004	1	12	8	32	2	4594
2	4009	0	0	0	0	0	0
2	4009	1	1	1	46	3	2887
2	4009	1	1	2	22	3	4058
2	4009	1	1	3	7	1	1437
2	4009	1	1	4	40	2	594
2	4009	1	1	5	32	2	1320
2	4009	1	1	6	27	1	6653
2	4009	1	1	7	13	3	3610
2	4009	1	1	8	5	2	7381
2	4009	0	0	0	0	0	0
2	4009	1	2	1	16	1	2348
2	4009	1	2	2	6	3	3808
2	4009	1	2	3	10	1	3156
2	4009	1	2	4	29	3	381
2	4009	1	2	5	39	2	515
2	4009	1	2	6	44	1	1229
2	4009	1	2	7	33	3	5071
2	4009	1	2	8	19	2	741
2	4009	0	0	0	0	0	0
2	4009	1	3	1	9	1	2170
2	4009	1	3	2	41	2	861
2	4009	1	3	3	26	3	1970
2	4009	1	3	4	18	1	7067
2	4009	1	3	5	36	3	4356
2	4009	1	3	6	24	2	339
2	4009	1	3	7	45	2	499
2	4009	1	3	8	2	3	615
2	4009	0	0	0	0	0	0
2	4009	1	4	1	11	3	618
2	4009	1	4	2	23	3	382
2	4009	1	4	3	48	3	320
2	4009	1	4	4	1	2	336
2	4009	1	4	5	17	3	551
2	4009	1	4	6	31	3	3515
2	4009	1	4	7	30	1	1151
2	4009	1	4	8	42	3	2795
2	4009	0	0	0	0	0	0
2	4009	1	5	1	20	3	380
2	4009	1	5	2	35	1	6985
2	4009	1	5	3	14	3	335
2	4009	1	5	4	38	1	979
2	4009	1	5	5	43	1	584
2	4009	1	5	6	12	2	582
2	4009	1	5	7	25	3	784
2	4009	1	5	8	3	1	908
2	4009	0	0	0	0	0	0
2	4009	1	6	1	15	1	693
2	4009	1	6	2	34	2	3492
2	4009	1	6	3	47	2	6653
2	4009	1	6	4	8	3	360
2	4009	1	6	5	4	1	296
2	4009	1	6	6	28	2	3193
2	4009	1	6	7	21	1	561
2	4009	1	6	8	37	1	446
2	4009	0	0	0	0	0	0
2	4009	1	7	1	2	2	4022
2	4009	1	7	2	22	1	916
2	4009	1	7	3	35	1	1207
2	4009	1	7	4	42	3	1501
2	4009	1	7	5	16	1	7483
2	4009	1	7	6	43	1	2498
2	4009	1	7	7	30	1	4731
2	4009	1	7	8	9	1	10951
2	4009	0	0	0	0	0	0
2	4009	1	8	1	26	2	2848
2	4009	1	8	2	40	3	2709
2	4009	1	8	3	14	3	294
2	4009	1	8	4	45	2	395
2	4009	1	8	5	4	1	1383
2	4009	1	8	6	23	3	559
2	4009	1	8	7	11	3	3695
2	4009	1	8	8	31	3	341
2	4009	0	0	0	0	0	0
2	4009	1	9	1	17	3	4307
2	4009	1	9	2	25	3	308
2	4009	1	9	3	41	2	4012
2	4009	1	9	4	34	2	282
2	4009	1	9	5	44	1	1105
2	4009	1	9	6	24	2	473
2	4009	1	9	7	10	1	320
2	4009	1	9	8	1	2	1020
2	4009	0	0	0	0	0	0
2	4009	1	10	1	46	3	4525
2	4009	1	10	2	12	2	710
2	4009	1	10	3	28	2	434
2	4009	1	10	4	33	2	4363
2	4009	1	10	5	18	2	1426
2	4009	1	10	6	19	2	304
2	4009	1	10	7	38	1	317
2	4009	1	10	8	5	3	2380
2	4009	0	0	0	0	0	0
2	4009	1	11	1	15	1	1284
2	4009	1	11	2	47	2	1648
2	4009	1	11	3	21	1	325
2	4009	1	11	4	3	1	2377
2	4009	1	11	5	8	3	300
2	4009	1	11	6	39	2	729
2	4009	1	11	7	29	1	968
2	4009	1	11	8	32	2	372
2	4009	0	0	0	0	0	0
2	4009	1	12	1	48	3	4186
2	4009	1	12	2	13	2	305
2	4009	1	12	3	6	2	334
2	4009	1	12	4	36	1	581
2	4009	1	12	5	37	1	299
2	4009	1	12	6	20	3	271
2	4009	1	12	7	7	2	313
2	4009	1	12	8	27	3	237
2	4010	0	0	0	0	0	0
2	4010	1	1	1	39	3	3005
2	4010	1	1	2	9	2	611
2	4010	1	1	3	26	3	1543
2	4010	1	1	4	14	2	2561
2	4010	1	1	5	5	3	7956
2	4010	1	1	6	24	2	1086
2	4010	1	1	7	32	1	997
2	4010	1	1	8	46	2	1783
2	4010	0	0	0	0	0	0
2	4010	1	2	1	8	3	7365
2	4010	1	2	2	13	2	1379
2	4010	1	2	3	3	1	1726
2	4010	1	2	4	48	2	370
2	4010	1	2	5	35	2	443
2	4010	1	2	6	22	1	910
2	4010	1	2	7	42	1	1389
2	4010	1	2	8	29	3	2155
2	4010	0	0	0	0	0	0
2	4010	1	3	1	11	3	12294
2	4010	1	3	2	47	3	541
2	4010	1	3	3	33	2	1471
2	4010	1	3	4	21	1	3364
2	4010	1	3	5	16	2	634
2	4010	1	3	6	38	2	578
2	4010	1	3	7	30	2	2867
2	4010	1	3	8	6	1	13940
2	4010	0	0	0	0	0	0
2	4010	1	4	1	45	1	730
2	4010	1	4	2	19	2	700
2	4010	1	4	3	31	1	5168
2	4010	1	4	4	18	3	1705
2	4010	1	4	5	28	1	586
2	4010	1	4	6	37	3	399
2	4010	1	4	7	2	3	2823
2	4010	1	4	8	12	3	4798
2	4010	0	0	0	0	0	0
2	4010	1	5	1	44	3	956
2	4010	1	5	2	20	3	464
2	4010	1	5	3	7	1	1309
2	4010	1	5	4	40	2	787
2	4010	1	5	5	36	3	922
2	4010	1	5	6	25	2	317
2	4010	1	5	7	1	2	1907
2	4010	1	5	8	17	3	1395
2	4010	0	0	0	0	0	0
2	4010	1	6	1	34	3	261
2	4010	1	6	2	4	2	341
2	4010	1	6	3	23	3	770
2	4010	1	6	4	10	1	756
2	4010	1	6	5	15	1	324
2	4010	1	6	6	43	2	357
2	4010	1	6	7	41	1	538
2	4010	1	6	8	27	1	483
2	4010	0	0	0	0	0	0
2	4010	1	7	1	40	2	526
2	4010	1	7	2	25	2	418
2	4010	1	7	3	17	3	425
2	4010	1	7	4	11	3	355
2	4010	1	7	5	19	2	383
2	4010	1	7	6	3	1	4080
2	4010	1	7	7	33	2	301
2	4010	1	7	8	47	3	297
2	4010	0	0	0	0	0	0
2	4010	1	8	1	28	1	267
2	4010	1	8	2	41	1	752
2	4010	1	8	3	8	3	6825
2	4010	1	8	4	46	2	6512
2	4010	1	8	5	31	1	276
2	4010	1	8	6	20	3	1378
2	4010	1	8	7	14	3	279
2	4010	1	8	8	2	3	3205
2	4010	0	0	0	0	0	0
2	4010	1	9	1	9	2	374
2	4010	1	9	2	30	2	372
2	4010	1	9	3	15	3	1934
2	4010	1	9	4	38	2	255
2	4010	1	9	5	36	3	1874
2	4010	1	9	6	21	1	335
2	4010	1	9	7	6	3	6591
2	4010	1	9	8	43	2	404
2	4010	0	0	0	0	0	0
2	4010	1	10	1	7	2	3832
2	4010	1	10	2	1	3	588
2	4010	1	10	3	34	3	281
2	4010	1	10	4	37	3	258
2	4010	1	10	5	16	1	248
2	4010	1	10	6	27	1	661
2	4010	1	10	7	22	2	2821
2	4010	1	10	8	48	2	872
2	4010	0	0	0	0	0	0
2	4010	1	11	1	42	1	1339
2	4010	1	11	2	18	2	2711
2	4010	1	11	3	45	1	377
2	4010	1	11	4	23	3	1007
2	4010	1	11	5	35	2	667
2	4010	1	11	6	10	3	1570
2	4010	1	11	7	4	2	1621
2	4010	1	11	8	26	3	292
2	4010	0	0	0	0	0	0
2	4010	1	12	1	24	2	484
2	4010	1	12	2	39	3	669
2	4010	1	12	3	12	3	719
2	4010	1	12	4	5	2	2619
2	4010	1	12	5	13	2	1347
2	4010	1	12	6	29	3	418
2	4010	1	12	7	44	3	265
2	4010	1	12	8	32	1	440
2	4017	0	0	0	0	0	0
2	4017	1	1	1	42	1	2850
2	4017	1	1	2	27	1	12218
2	4017	1	1	3	7	1	298
2	4017	1	1	4	22	3	382
2	4017	1	1	5	34	3	227
2	4017	1	1	6	4	2	193
2	4017	1	1	7	14	2	247
2	4017	1	1	8	46	1	2225
2	4017	0	0	0	0	0	0
2	4017	1	2	1	6	3	6868
2	4017	1	2	2	38	2	192
2	4017	1	2	3	19	1	496
2	4017	1	2	4	18	1	234
2	4017	1	2	5	28	1	4115
2	4017	1	2	6	33	2	2911
2	4017	1	2	7	11	2	211
2	4017	1	2	8	44	3	533
2	4017	0	0	0	0	0	0
2	4017	1	3	1	26	3	207
2	4017	1	3	2	35	2	206
2	4017	1	3	3	10	3	313
2	4017	1	3	4	5	1	200
2	4017	1	3	5	16	2	189
2	4017	1	3	6	20	1	37
2	4017	1	3	7	43	2	225
2	4017	1	3	8	40	2	217
2	4017	0	0	0	0	0	0
2	4017	1	4	1	1	3	310
2	4017	1	4	2	12	3	370
2	4017	1	4	3	47	3	185
2	4017	1	4	4	13	3	266
2	4017	1	4	5	29	3	223
2	4017	1	4	6	41	1	120
2	4017	1	4	7	23	2	184
2	4017	1	4	8	32	2	200
2	4017	0	0	0	0	0	0
2	4017	1	5	1	17	1	272
2	4017	1	5	2	45	1	175
2	4017	1	5	3	31	1	216
2	4017	1	5	4	24	3	377
2	4017	1	5	5	8	1	311
2	4017	1	5	6	2	2	225
2	4017	1	5	7	30	2	295
2	4017	1	5	8	37	3	269
2	4017	0	0	0	0	0	0
2	4017	1	6	1	25	2	16402
2	4017	1	6	2	9	2	258
2	4017	1	6	3	48	2	259
2	4017	1	6	4	36	3	273
2	4017	1	6	5	39	3	359
2	4017	1	6	6	21	2	287
2	4017	1	6	7	3	3	204
2	4017	1	6	8	15	3	250
2	4017	0	0	0	0	0	0
2	4017	1	7	1	8	1	316
2	4017	1	7	2	33	2	264
2	4017	1	7	3	4	2	214
2	4017	1	7	4	42	1	222
2	4017	1	7	5	29	3	326
2	4017	1	7	6	22	2	360
2	4017	1	7	7	45	1	293
2	4017	1	7	8	17	1	297
2	4017	0	0	0	0	0	0
2	4017	1	8	1	20	1	283
2	4017	1	8	2	44	3	319
2	4017	1	8	3	41	1	185
2	4017	1	8	4	31	1	215
2	4017	1	8	5	25	2	208
2	4017	1	8	6	16	2	283
2	4017	1	8	7	3	3	314
2	4017	1	8	8	11	2	186
2	4017	0	0	0	0	0	0
2	4017	1	9	1	1	3	375
2	4017	1	9	2	46	1	196
2	4017	1	9	3	18	1	203
2	4017	1	9	4	36	3	258
2	4017	1	9	5	10	3	412
2	4017	1	9	6	19	1	263
2	4017	1	9	7	28	1	182
2	4017	1	9	8	40	2	883
2	4017	0	0	0	0	0	0
2	4017	1	10	1	27	1	225
2	4017	1	10	2	43	2	326
2	4017	1	10	3	37	3	218
2	4017	1	10	4	13	3	252
2	4017	1	10	5	24	3	243
2	4017	1	10	6	12	3	219
2	4017	1	10	7	5	1	10
2	4017	1	10	8	32	1	258
2	4017	0	0	0	0	0	0
2	4017	1	11	1	48	2	265
2	4017	1	11	2	9	2	208
2	4017	1	11	3	30	3	282
2	4017	1	11	4	39	3	331
2	4017	1	11	5	23	2	369
2	4017	1	11	6	14	2	45
2	4017	1	11	7	34	3	198
2	4017	1	11	8	6	1	129
2	4017	0	0	0	0	0	0
2	4017	1	12	1	38	2	213
2	4017	1	12	2	15	3	375
2	4017	1	12	3	35	2	466
2	4017	1	12	4	21	2	273
2	4017	1	12	5	47	3	252
2	4017	1	12	6	2	1	2987
2	4017	1	12	7	26	3	452
2	4017	1	12	8	7	1	385
2	4018	0	0	0	0	0	0
2	4018	1	1	1	5	1	22752
2	4018	1	1	2	33	2	45
2	4018	1	1	3	24	1	17092
2	4018	1	1	4	29	3	2378
2	4018	1	1	5	14	3	829
2	4018	1	1	6	12	2	2806
2	4018	1	1	7	45	1	4991
2	4018	1	1	8	38	2	564
2	4018	0	0	0	0	0	0
2	4018	1	2	1	3	3	4299
2	4018	1	2	2	11	3	8041
2	4018	1	2	3	39	3	374
2	4018	1	2	4	36	3	1005
2	4018	1	2	5	20	3	922
2	4018	1	2	6	44	3	380
2	4018	1	2	7	25	2	543
2	4018	1	2	8	13	2	410
2	4018	0	0	0	0	0	0
2	4018	1	3	1	1	2	3006
2	4018	1	3	2	26	3	375
2	4018	1	3	3	42	3	5893
2	4018	1	3	4	47	2	1997
2	4018	1	3	5	21	1	1794
2	4018	1	3	6	32	1	2698
2	4018	1	3	7	15	1	2013
2	4018	1	3	8	7	2	354
2	4018	0	0	0	0	0	0
2	4018	1	4	1	17	3	356
2	4018	1	4	2	10	1	3595
2	4018	1	4	3	48	2	2803
2	4018	1	4	4	37	3	505
2	4018	1	4	5	28	1	3799
2	4018	1	4	6	6	2	1719
2	4018	1	4	7	34	3	12081
2	4018	1	4	8	22	1	361
2	4018	0	0	0	0	0	0
2	4018	1	5	1	31	3	2996
2	4018	1	5	2	4	1	2654
2	4018	1	5	3	19	2	616
2	4018	1	5	4	30	2	493
2	4018	1	5	5	8	3	659
2	4018	1	5	6	46	1	2549
2	4018	1	5	7	16	1	5006
2	4018	1	5	8	40	3	14206
2	4018	0	0	0	0	0	0
2	4018	1	6	1	43	2	468
2	4018	1	6	2	2	3	4918
2	4018	1	6	3	27	1	1531
2	4018	1	6	4	23	3	8037
2	4018	1	6	5	35	2	337
2	4018	1	6	6	18	2	431
2	4018	1	6	7	41	2	1814
2	4018	1	6	8	9	1	1688
2	4018	0	0	0	0	0	0
2	4018	1	7	1	38	1	625
2	4018	1	7	2	48	3	730
2	4018	1	7	3	26	2	504
2	4018	1	7	4	10	1	590
2	4018	1	7	5	31	3	1641
2	4018	1	7	6	4	1	2048
2	4018	1	7	7	21	1	426
2	4018	1	7	8	15	1	342
2	4018	0	0	0	0	0	0
2	4018	1	8	1	42	3	1730
2	4018	1	8	2	6	2	5688
2	4018	1	8	3	19	2	1698
2	4018	1	8	4	34	2	445
2	4018	1	8	5	29	1	5845
2	4018	1	8	6	44	1	622
2	4018	1	8	7	18	2	5701
2	4018	1	8	8	9	1	3365
2	4018	0	0	0	0	0	0
2	4018	1	9	1	13	2	739
2	4018	1	9	2	47	2	2595
2	4018	1	9	3	23	3	410
2	4018	1	9	4	11	3	1228
2	4018	1	9	5	37	1	781
2	4018	1	9	6	2	3	2542
2	4018	1	9	7	28	2	427
2	4018	1	9	8	36	1	333
2	4018	0	0	0	0	0	0
2	4018	1	10	1	7	2	422
2	4018	1	10	2	43	1	2861
2	4018	1	10	3	41	2	737
2	4018	1	10	4	22	1	389
2	4018	1	10	5	32	2	268
2	4018	1	10	6	3	1	630
2	4018	1	10	7	30	1	787
2	4018	1	10	8	16	1	727
2	4018	0	0	0	0	0	0
2	4018	1	11	1	35	1	1137
2	4018	1	11	2	5	3	1253
2	4018	1	11	3	17	3	1008
2	4018	1	11	4	46	3	684
2	4018	1	11	5	8	3	2862
2	4018	1	11	6	20	3	337
2	4018	1	11	7	40	3	1759
2	4018	1	11	8	27	3	300
2	4018	0	0	0	0	0	0
2	4018	1	12	1	14	3	2361
2	4018	1	12	2	39	2	241
2	4018	1	12	3	33	3	360
2	4018	1	12	4	12	2	325
2	4018	1	12	5	45	2	1286
2	4018	1	12	6	1	2	328
2	4018	1	12	7	24	2	370
2	4018	1	12	8	25	3	233
2	4019	0	0	0	0	0	0
2	4019	1	1	1	4	1	8922
2	4019	1	1	2	32	2	8894
2	4019	1	1	3	20	3	25721
2	4019	1	1	4	47	1	29228
2	4019	1	1	5	27	3	5715
2	4019	1	1	6	16	2	13998
2	4019	1	1	7	40	2	4141
2	4019	1	1	8	9	2	5272
2	4019	0	0	0	0	0	0
2	4019	1	2	1	41	1	12149
2	4019	1	2	2	3	1	2689
2	4019	1	2	3	26	2	988
2	4019	1	2	4	36	2	9404
2	4019	1	2	5	13	1	29780
2	4019	1	2	6	8	1	2547
2	4019	1	2	7	23	1	36024
2	4019	1	2	8	48	1	12433
2	4019	0	0	0	0	0	0
2	4019	1	3	1	37	3	2183
2	4019	1	3	2	5	3	3184
2	4019	1	3	3	19	3	5140
2	4019	1	3	4	18	1	28730
2	4019	1	3	5	7	1	1185
2	4019	1	3	6	30	1	716
2	4019	1	3	7	44	2	14194
2	4019	1	3	8	31	3	2164
2	4019	0	0	0	0	0	0
2	4019	1	4	1	14	3	6469
2	4019	1	4	2	22	3	14418
2	4019	1	4	3	2	3	1659
2	4019	1	4	4	28	2	4871
2	4019	1	4	5	45	3	8883
2	4019	1	4	6	11	2	2771
2	4019	1	4	7	33	3	2905
2	4019	1	4	8	38	2	3037
2	4019	0	0	0	0	0	0
2	4019	1	5	1	35	1	2897
2	4019	1	5	2	17	3	3835
2	4019	1	5	3	42	1	3505
2	4019	1	5	4	1	2	626
2	4019	1	5	5	46	2	21709
2	4019	1	5	6	12	3	3054
2	4019	1	5	7	29	1	986
2	4019	1	5	8	24	1	15724
2	4019	0	0	0	0	0	0
2	4019	1	6	1	6	2	351
2	4019	1	6	2	25	3	477
2	4019	1	6	3	39	3	5230
2	4019	1	6	4	15	1	6120
2	4019	1	6	5	21	3	6179
2	4019	1	6	6	34	2	4357
2	4019	1	6	7	43	3	7945
2	4019	1	6	8	10	3	3055
2	4019	0	0	0	0	0	0
2	4019	1	7	1	33	3	1331
2	4019	1	7	2	13	3	3999
2	4019	1	7	3	20	2	3822
2	4019	1	7	4	45	3	4847
2	4019	1	7	5	7	1	4007
2	4019	1	7	6	26	2	402
2	4019	1	7	7	37	3	1414
2	4019	1	7	8	3	1	360
2	4019	0	0	0	0	0	0
2	4019	1	8	1	30	1	1293
2	4019	1	8	2	17	3	1574
2	4019	1	8	3	39	3	5292
2	4019	1	8	4	8	1	997
2	4019	1	8	5	43	3	6884
2	4019	1	8	6	19	3	7730
2	4019	1	8	7	1	2	234
2	4019	1	8	8	35	1	2823
2	4019	0	0	0	0	0	0
2	4019	1	9	1	12	3	1520
2	4019	1	9	2	18	1	5309
2	4019	1	9	3	21	3	11957
2	4019	1	9	4	36	1	4617
2	4019	1	9	5	41	1	5436
2	4019	1	9	6	27	3	240
2	4019	1	9	7	2	3	2877
2	4019	1	9	8	46	2	9852
2	4019	0	0	0	0	0	0
2	4019	1	10	1	6	2	1287
2	4019	1	10	2	11	2	3947
2	4019	1	10	3	29	1	1330
2	4019	1	10	4	16	1	13948
2	4019	1	10	5	47	1	7217
2	4019	1	10	6	38	2	1131
2	4019	1	10	7	22	2	6666
2	4019	1	10	8	32	2	1059
2	4019	0	0	0	0	0	0
2	4019	1	11	1	24	1	10777
2	4019	1	11	2	48	1	20117
2	4019	1	11	3	14	3	4436
2	4019	1	11	4	42	1	1933
2	4019	1	11	5	34	2	2325
2	4019	1	11	6	25	3	255
2	4019	1	11	7	10	3	1284
2	4019	1	11	8	5	3	287
2	4019	0	0	0	0	0	0
2	4019	1	12	1	28	2	2102
2	4019	1	12	2	4	1	2035
2	4019	1	12	3	40	2	1126
2	4019	1	12	4	15	1	3122
2	4019	1	12	5	23	1	5574
2	4019	1	12	6	31	3	12132
2	4019	1	12	7	44	2	11595
2	4019	1	12	8	9	3	344
2	4020	0	0	0	0	0	0
2	4020	1	1	1	47	3	2144
2	4020	1	1	2	24	2	1743
2	4020	1	1	3	36	1	4482
2	4020	1	1	4	3	1	5408
2	4020	1	1	5	11	3	866
2	4020	1	1	6	28	2	2501
2	4020	1	1	7	39	2	727
2	4020	1	1	8	13	2	671
2	4020	0	0	0	0	0	0
2	4020	1	2	1	4	1	1212
2	4020	1	2	2	44	1	1015
2	4020	1	2	3	27	3	533
2	4020	1	2	4	34	2	312
2	4020	1	2	5	15	1	1089
2	4020	1	2	6	41	2	955
2	4020	1	2	7	9	1	3636
2	4020	1	2	8	23	3	715
2	4020	0	0	0	0	0	0
2	4020	1	3	1	33	3	630
2	4020	1	3	2	48	3	801
2	4020	1	3	3	12	2	617
2	4020	1	3	4	5	3	2422
2	4020	1	3	5	40	3	514
2	4020	1	3	6	16	1	1664
2	4020	1	3	7	20	3	832
2	4020	1	3	8	30	1	1558
2	4020	0	0	0	0	0	0
2	4020	1	4	1	6	2	4526
2	4020	1	4	2	35	2	885
2	4020	1	4	3	45	2	916
2	4020	1	4	4	22	1	1202
2	4020	1	4	5	38	1	673
2	4020	1	4	6	29	1	1739
2	4020	1	4	7	8	3	3690
2	4020	1	4	8	17	1	805
2	4020	0	0	0	0	0	0
2	4020	1	5	1	1	2	343
2	4020	1	5	2	43	1	783
2	4020	1	5	3	19	2	593
2	4020	1	5	4	25	1	1107
2	4020	1	5	5	7	2	569
2	4020	1	5	6	14	3	760
2	4020	1	5	7	37	1	2439
2	4020	1	5	8	32	2	1637
2	4020	0	0	0	0	0	0
2	4020	1	6	1	46	3	608
2	4020	1	6	2	10	1	1858
2	4020	1	6	3	31	3	498
2	4020	1	6	4	26	2	745
2	4020	1	6	5	42	3	574
2	4020	1	6	6	2	1	407
2	4020	1	6	7	18	2	598
2	4020	1	6	8	21	1	1065
2	4020	0	0	0	0	0	0
2	4020	1	7	1	16	1	629
2	4020	1	7	2	39	2	703
2	4020	1	7	3	44	1	925
2	4020	1	7	4	23	3	485
2	4020	1	7	5	32	2	516
2	4020	1	7	6	27	2	2091
2	4020	1	7	7	1	2	343
2	4020	1	7	8	9	1	652
2	4020	0	0	0	0	0	0
2	4020	1	8	1	45	2	596
2	4020	1	8	2	40	3	511
2	4020	1	8	3	11	3	2255
2	4020	1	8	4	13	2	881
2	4020	1	8	5	34	2	6637
2	4020	1	8	6	6	2	1988
2	4020	1	8	7	25	3	909
2	4020	1	8	8	20	3	369
2	4020	0	0	0	0	0	0
2	4020	1	9	1	28	2	674
2	4020	1	9	2	46	3	821
2	4020	1	9	3	19	2	1814
2	4020	1	9	4	35	1	1210
2	4020	1	9	5	17	3	1009
2	4020	1	9	6	3	1	262
2	4020	1	9	7	37	1	1059
2	4020	1	9	8	7	2	756
2	4020	0	0	0	0	0	0
2	4020	1	10	1	15	1	1451
2	4020	1	10	2	24	2	2079
2	4020	1	10	3	5	3	125
2	4020	1	10	4	36	1	4771
2	4020	1	10	5	47	2	541
2	4020	1	10	6	8	3	494
2	4020	1	10	7	30	1	806
2	4020	1	10	8	38	1	932
2	4020	0	0	0	0	0	0
2	4020	1	11	1	4	1	1599
2	4020	1	11	2	41	2	838
2	4020	1	11	3	22	2	442
2	4020	1	11	4	48	3	1791
2	4020	1	11	5	26	2	528
2	4020	1	11	6	14	3	2337
2	4020	1	11	7	33	3	2140
2	4020	1	11	8	10	1	1556
2	4020	0	0	0	0	0	0
2	4020	1	12	1	42	3	1472
2	4020	1	12	2	18	2	825
2	4020	1	12	3	2	3	333
2	4020	1	12	4	29	1	456
2	4020	1	12	5	21	1	2048
2	4020	1	12	6	31	3	377
2	4020	1	12	7	43	1	655
2	4020	1	12	8	12	2	984
1	4025	0	0	0	0	0	0
1	4025	1	1	1	3	2	1454
1	4025	1	1	2	26	0	0
1	4025	1	1	3	9	2	961
1	4025	1	1	4	47	3	733
1	4025	1	1	5	42	2	1003
1	4025	1	1	6	16	2	801
1	4025	1	1	7	33	3	785
1	4025	1	1	8	24	3	646
1	4025	0	0	0	0	0	0
1	4025	1	2	1	11	2	876
1	4025	1	2	2	18	1	1212
1	4025	1	2	3	20	1	1479
1	4025	1	2	4	27	3	1709
1	4025	1	2	5	38	1	1727
1	4025	1	2	6	4	2	1120
1	4025	1	2	7	31	3	1195
1	4025	1	2	8	46	3	1219
1	4025	0	0	0	0	0	0
1	4025	1	3	1	29	3	786
1	4025	1	3	2	8	2	917
1	4025	1	3	3	40	3	1178
1	4025	1	3	4	6	1	1628
1	4025	1	3	5	15	3	1439
1	4025	1	3	6	36	1	1465
1	4025	1	3	7	48	2	1871
1	4025	1	3	8	23	2	1370
1	4025	0	0	0	0	0	0
1	4025	1	4	1	43	1	1399
1	4025	1	4	2	39	2	807
1	4025	1	4	3	21	2	979
1	4025	1	4	4	10	3	1957
1	4025	1	4	5	1	0	0
1	4025	1	4	6	17	3	1354
1	4025	1	4	7	32	0	0
1	4025	1	4	8	28	0	0
1	4025	0	0	0	0	0	0
1	4025	1	5	1	34	2	787
1	4025	1	5	2	30	2	796
1	4025	1	5	3	14	2	959
1	4025	1	5	4	2	2	1129
1	4025	1	5	5	44	2	1131
1	4025	1	5	6	22	3	982
1	4025	1	5	7	41	2	1458
1	4025	1	5	8	12	0	0
1	4025	0	0	0	0	0	0
1	4025	1	6	1	45	2	859
1	4025	1	6	2	13	3	1970
1	4025	1	6	3	35	0	0
1	4025	1	6	4	7	1	1564
1	4025	1	6	5	5	1	1403
1	4025	1	6	6	19	0	0
1	4025	1	6	7	37	0	0
1	4025	1	6	8	25	3	1185
1	4025	0	0	0	0	0	0
1	4025	1	7	1	14	2	1298
1	4025	1	7	2	6	2	1931
1	4025	1	7	3	41	1	1419
1	4025	1	7	4	31	1	1835
1	4025	1	7	5	44	3	1604
1	4025	1	7	6	12	0	0
1	4025	1	7	7	21	2	1094
1	4025	1	7	8	30	0	0
1	4025	0	0	0	0	0	0
1	4025	1	8	1	34	2	1290
1	4025	1	8	2	3	2	1898
1	4025	1	8	3	46	3	1865
1	4025	1	8	4	22	3	1027
1	4025	1	8	5	39	2	1575
1	4025	1	8	6	7	0	0
1	4025	1	8	7	16	3	895
1	4025	1	8	8	26	1	1389
1	4025	0	0	0	0	0	0
1	4025	1	9	1	2	1	1286
1	4025	1	9	2	15	3	1760
1	4025	1	9	3	47	3	1290
1	4025	1	9	4	36	0	0
1	4025	1	9	5	40	0	0
1	4025	1	9	6	29	3	1016
1	4025	1	9	7	20	1	878
1	4025	1	9	8	9	2	1064
1	4025	0	0	0	0	0	0
1	4025	1	10	1	35	3	1029
1	4025	1	10	2	4	2	1020
1	4025	1	10	3	43	1	1427
1	4025	1	10	4	38	1	1390
1	4025	1	10	5	24	3	1095
1	4025	1	10	6	25	3	1321
1	4025	1	10	7	18	1	1066
1	4025	1	10	8	8	0	0
1	4025	0	0	0	0	0	0
1	4025	1	11	1	23	2	1150
1	4025	1	11	2	33	3	908
1	4025	1	11	3	48	3	1354
1	4025	1	11	4	17	1	1322
1	4025	1	11	5	42	3	1921
1	4025	1	11	6	1	3	1042
1	4025	1	11	7	27	3	1241
1	4025	1	11	8	11	2	1493
1	4025	0	0	0	0	0	0
1	4025	1	12	1	45	2	1345
1	4025	1	12	2	13	3	1895
1	4025	1	12	3	37	1	1336
1	4025	1	12	4	5	2	1718
1	4025	1	12	5	10	3	1874
1	4025	1	12	6	32	0	0
1	4025	1	12	7	19	1	1668
1	4025	1	12	8	28	2	1691
1	4025	2	1	1	0	2	16546
1	4025	2	1	2	0	3	11581
1	4025	2	1	3	0	4	7302
1	4025	2	1	4	0	3	6190
1	4025	2	1	5	0	2	5326
1	4025	2	1	6	0	4	5348
1	4025	2	1	7	0	1	5515
1	4025	2	1	8	0	2	5180
1	4025	2	1	9	0	1	7586
1	4025	2	1	10	0	2	7401
1	4025	2	1	11	0	3	7751
1	4025	2	1	12	0	2	9246
1	4025	2	1	13	0	4	6219
1	4025	2	1	14	0	2	5704
1	4025	2	1	15	0	1	4889
1	4025	2	1	16	0	2	3994
1	4025	2	1	17	0	3	11055
1	4025	2	1	18	0	3	5309
1	4025	2	1	19	0	3	4517
1	4025	2	1	20	0	2	2725
1	4025	2	1	21	0	2	6955
1	4025	2	1	22	0	3	1978
1	4025	2	1	23	0	3	4631
1	4025	2	1	24	0	2	7243
1	4025	2	1	25	0	2	5903
1	4025	2	1	26	0	3	8009
1	4025	2	1	27	0	3	8438
1	4025	2	1	28	0	2	9171
1	4025	2	1	29	0	2	2067
1	4025	2	1	30	0	3	4107
1	4026	0	0	0	0	0	0
1	4026	1	1	1	18	0	0
1	4026	1	1	2	7	1	1544
1	4026	1	1	3	32	1	1214
1	4026	1	1	4	29	2	1906
1	4026	1	1	5	42	1	1854
1	4026	1	1	6	4	3	1541
1	4026	1	1	7	44	2	1566
1	4026	1	1	8	19	1	1342
1	4026	0	0	0	0	0	0
1	4026	1	2	1	45	0	0
1	4026	1	2	2	2	1	1180
1	4026	1	2	3	30	3	1498
1	4026	1	2	4	34	3	1751
1	4026	1	2	5	16	0	0
1	4026	1	2	6	12	3	1044
1	4026	1	2	7	39	3	1293
1	4026	1	2	8	24	3	940
1	4026	0	0	0	0	0	0
1	4026	1	3	1	14	1	1275
1	4026	1	3	2	41	1	1340
1	4026	1	3	3	43	1	1185
1	4026	1	3	4	22	3	1507
1	4026	1	3	5	36	3	1940
1	4026	1	3	6	5	2	1194
1	4026	1	3	7	11	2	1214
1	4026	1	3	8	27	1	1624
1	4026	0	0	0	0	0	0
1	4026	1	4	1	8	1	1292
1	4026	1	4	2	40	2	1431
1	4026	1	4	3	6	3	1527
1	4026	1	4	4	15	2	1813
1	4026	1	4	5	28	1	1738
1	4026	1	4	6	21	2	1863
1	4026	1	4	7	35	2	1851
1	4026	1	4	8	48	2	1368
1	4026	0	0	0	0	0	0
1	4026	1	5	1	38	2	1323
1	4026	1	5	2	10	3	1620
1	4026	1	5	3	1	0	0
1	4026	1	5	4	46	1	1310
1	4026	1	5	5	17	1	1429
1	4026	1	5	6	25	2	1751
1	4026	1	5	7	33	2	1402
1	4026	1	5	8	20	0	0
1	4026	0	0	0	0	0	0
1	4026	1	6	1	37	3	1242
1	4026	1	6	2	23	2	1196
1	4026	1	6	3	47	3	1374
1	4026	1	6	4	31	1	1241
1	4026	1	6	5	3	3	1545
1	4026	1	6	6	26	3	1390
1	4026	1	6	7	13	3	1696
1	4026	1	6	8	9	2	1665
1	4026	0	0	0	0	0	0
1	4026	1	7	1	2	2	1495
1	4026	1	7	2	29	3	1205
1	4026	1	7	3	15	3	1220
1	4026	1	7	4	40	2	1019
1	4026	1	7	5	44	3	1735
1	4026	1	7	6	7	1	1660
1	4026	1	7	7	32	1	1425
1	4026	1	7	8	24	3	1608
1	4026	0	0	0	0	0	0
1	4026	1	8	1	4	0	0
1	4026	1	8	2	27	1	1288
1	4026	1	8	3	36	3	1339
1	4026	1	8	4	45	1	1666
1	4026	1	8	5	21	2	1239
1	4026	1	8	6	39	3	1144
1	4026	1	8	7	10	3	1229
1	4026	1	8	8	14	2	1460
1	4026	0	0	0	0	0	0
1	4026	1	9	1	34	3	1095
1	4026	1	9	2	37	3	943
1	4026	1	9	3	43	2	1389
1	4026	1	9	4	19	1	1774
1	4026	1	9	5	28	1	1051
1	4026	1	9	6	12	3	1454
1	4026	1	9	7	3	3	1351
1	4026	1	9	8	13	3	1074
1	4026	0	0	0	0	0	0
1	4026	1	10	1	6	3	1670
1	4026	1	10	2	18	1	1262
1	4026	1	10	3	47	3	1421
1	4026	1	10	4	22	3	1261
1	4026	1	10	5	11	2	1219
1	4026	1	10	6	31	1	1001
1	4026	1	10	7	25	2	1184
1	4026	1	10	8	41	1	857
1	4026	0	0	0	0	0	0
1	4026	1	11	1	17	3	1351
1	4026	1	11	2	35	2	1126
1	4026	1	11	3	23	2	1093
1	4026	1	11	4	26	3	1447
1	4026	1	11	5	8	1	1057
1	4026	1	11	6	1	1	948
1	4026	1	11	7	46	1	1025
1	4026	1	11	8	42	1	831
1	4026	0	0	0	0	0	0
1	4026	1	12	1	16	2	1543
1	4026	1	12	2	48	2	1237
1	4026	1	12	3	5	1	1569
1	4026	1	12	4	20	1	1230
1	4026	1	12	5	30	2	1259
1	4026	1	12	6	9	2	1217
1	4026	1	12	7	38	2	1269
1	4026	1	12	8	33	2	1063
1	4026	2	1	1	0	3	9205
1	4026	2	1	2	0	2	5899
1	4026	2	1	3	0	3	3933
1	4026	2	1	4	0	4	3644
1	4026	2	1	5	0	2	2799
1	4026	2	1	6	0	3	3548
1	4026	2	1	7	0	2	2873
1	4026	2	1	8	0	2	3140
1	4026	2	1	9	0	1	2570
1	4026	2	1	10	0	1	2047
1	4026	2	1	11	0	2	4137
1	4026	2	1	12	0	2	2137
1	4026	2	1	13	0	2	3056
1	4026	2	1	14	0	2	2778
1	4026	2	1	15	0	3	3111
1	4026	2	1	16	0	1	1879
1	4026	2	1	17	0	2	1624
1	4026	2	1	18	0	2	3099
1	4026	2	1	19	0	2	1795
1	4026	2	1	20	0	2	2231
1	4026	2	1	21	0	2	2906
1	4026	2	1	22	0	2	1363
1	4026	2	1	23	0	2	2682
1	4026	2	1	24	0	1	2225
1	4026	2	1	25	0	2	2844
1	4026	2	1	26	0	2	2983
1	4026	2	1	27	0	2	3132
1	4026	2	1	28	0	3	2667
1	4026	2	1	29	0	1	1758
1	4026	2	1	30	0	1	2138
1	4027	0	0	0	0	0	0
1	4027	1	1	1	11	2	1288
1	4027	1	1	2	34	3	1219
1	4027	1	1	3	38	2	1353
1	4027	1	1	4	44	3	1211
1	4027	1	1	5	23	2	1224
1	4027	1	1	6	16	3	1499
1	4027	1	1	7	2	1	1274
1	4027	1	1	8	25	0	0
1	4027	0	0	0	0	0	0
1	4027	1	2	1	5	2	829
1	4027	1	2	2	17	1	959
1	4027	1	2	3	47	3	1192
1	4027	1	2	4	21	2	767
1	4027	1	2	5	9	2	856
1	4027	1	2	6	33	2	1608
1	4027	1	2	7	41	1	811
1	4027	1	2	8	29	3	871
1	4027	0	0	0	0	0	0
1	4027	1	3	1	3	3	1214
1	4027	1	3	2	35	1	1466
1	4027	1	3	3	30	3	1372
1	4027	1	3	4	8	1	1562
1	4027	1	3	5	39	3	1539
1	4027	1	3	6	45	1	1455
1	4027	1	3	7	13	1	1285
1	4027	1	3	8	19	3	1622
1	4027	0	0	0	0	0	0
1	4027	1	4	1	28	1	859
1	4027	1	4	2	40	2	1299
1	4027	1	4	3	22	3	1209
1	4027	1	4	4	46	1	1312
1	4027	1	4	5	14	1	1447
1	4027	1	4	6	12	3	1047
1	4027	1	4	7	32	1	949
1	4027	1	4	8	1	1	999
1	4027	0	0	0	0	0	0
1	4027	1	5	1	31	1	1169
1	4027	1	5	2	7	1	1864
1	4027	1	5	3	27	2	1403
1	4027	1	5	4	48	2	1688
1	4027	1	5	5	18	1	1540
1	4027	1	5	6	20	1	1707
1	4027	1	5	7	4	3	1522
1	4027	1	5	8	37	3	1223
1	4027	0	0	0	0	0	0
1	4027	1	6	1	24	3	1317
1	4027	1	6	2	36	3	1254
1	4027	1	6	3	42	1	1706
1	4027	1	6	4	43	3	1942
1	4027	1	6	5	10	3	1503
1	4027	1	6	6	15	3	1326
1	4027	1	6	7	26	3	1801
1	4027	1	6	8	6	2	1913
1	4027	0	0	0	0	0	0
1	4027	1	7	1	45	3	1478
1	4027	1	7	2	16	3	1328
1	4027	1	7	3	19	2	1600
1	4027	1	7	4	8	1	1626
1	4027	1	7	5	32	0	0
1	4027	1	7	6	27	0	0
1	4027	1	7	7	5	2	729
1	4027	1	7	8	37	3	1228
1	4027	0	0	0	0	0	0
1	4027	1	8	1	1	1	1246
1	4027	1	8	2	44	3	1103
1	4027	1	8	3	35	3	1531
1	4027	1	8	4	41	1	1058
1	4027	1	8	5	15	3	1351
1	4027	1	8	6	29	3	1342
1	4027	1	8	7	12	3	1507
1	4027	1	8	8	22	2	1602
1	4027	0	0	0	0	0	0
1	4027	1	9	1	14	3	1280
1	4027	1	9	2	20	1	1198
1	4027	1	9	3	33	2	1097
1	4027	1	9	4	11	3	1585
1	4027	1	9	5	47	3	1710
1	4027	1	9	6	39	3	1084
1	4027	1	9	7	2	1	1248
1	4027	1	9	8	25	2	1425
1	4027	0	0	0	0	0	0
1	4027	1	10	1	34	3	1080
1	4027	1	10	2	3	1	1816
1	4027	1	10	3	26	3	1285
1	4027	1	10	4	48	2	1510
1	4027	1	10	5	17	3	1384
1	4027	1	10	6	24	1	1451
1	4027	1	10	7	40	2	1298
1	4027	1	10	8	7	1	1493
1	4027	0	0	0	0	0	0
1	4027	1	11	1	18	2	1587
1	4027	1	11	2	23	3	1365
1	4027	1	11	3	6	2	1499
1	4027	1	11	4	43	2	1717
1	4027	1	11	5	38	2	1277
1	4027	1	11	6	31	1	1302
1	4027	1	11	7	30	2	1298
1	4027	1	11	8	10	3	1412
1	4027	0	0	0	0	0	0
1	4027	1	12	1	42	1	1079
1	4027	1	12	2	13	3	1146
1	4027	1	12	3	36	3	1028
1	4027	1	12	4	21	1	1748
1	4027	1	12	5	9	3	1598
1	4027	1	12	6	46	1	1120
1	4027	1	12	7	4	3	1090
1	4027	1	12	8	28	1	1374
1	4027	2	1	1	0	3	8645
1	4027	2	1	2	0	3	5249
1	4027	2	1	3	0	1	7965
1	4027	2	1	4	0	2	4116
1	4027	2	1	5	0	2	2342
1	4027	2	1	6	0	2	1851
1	4027	2	1	7	0	3	2525
1	4027	2	1	8	0	3	2900
1	4027	2	1	9	0	2	2501
1	4027	2	1	10	0	2	2501
1	4027	2	1	11	0	2	4143
1	4027	2	1	12	0	2	1581
1	4027	2	1	13	0	2	2432
1	4027	2	1	14	0	2	1972
1	4027	2	1	15	0	3	2681
1	4027	2	1	16	0	1	2370
1	4027	2	1	17	0	2	2192
1	4027	2	1	18	0	2	6372
1	4027	2	1	19	0	3	1994
1	4027	2	1	20	0	3	1742
1	4027	2	1	21	0	1	2405
1	4027	2	1	22	0	2	2081
1	4027	2	1	23	0	2	2130
1	4027	2	1	24	0	2	2073
1	4027	2	1	25	0	2	3626
1	4027	2	1	26	0	2	1920
1	4027	2	1	27	0	3	5029
1	4027	2	1	28	0	3	3049
1	4027	2	1	29	0	3	1395
1	4027	2	1	30	0	2	2105
1	4028	0	0	0	0	0	0
1	4028	1	1	1	40	2	1781
1	4028	1	1	2	1	3	837
1	4028	1	1	3	31	1	814
1	4028	1	1	4	46	1	778
1	4028	1	1	5	27	1	1322
1	4028	1	1	6	7	1	807
1	4028	1	1	7	24	3	856
1	4028	1	1	8	17	2	683
1	4028	0	0	0	0	0	0
1	4028	1	2	1	23	2	654
1	4028	1	2	2	38	1	1151
1	4028	1	2	3	4	3	1593
1	4028	1	2	4	16	2	758
1	4028	1	2	5	30	2	1081
1	4028	1	2	6	10	3	1457
1	4028	1	2	7	35	2	1011
1	4028	1	2	8	48	2	922
1	4028	0	0	0	0	0	0
1	4028	1	3	1	42	1	1169
1	4028	1	3	2	26	3	1935
1	4028	1	3	3	19	1	1276
1	4028	1	3	4	14	2	727
1	4028	1	3	5	9	2	857
1	4028	1	3	6	43	2	759
1	4028	1	3	7	6	1	959
1	4028	1	3	8	34	3	1009
1	4028	0	0	0	0	0	0
1	4028	1	4	1	45	1	1175
1	4028	1	4	2	3	3	748
1	4028	1	4	3	18	1	705
1	4028	1	4	4	8	1	906
1	4028	1	4	5	20	1	1073
1	4028	1	4	6	37	3	1089
1	4028	1	4	7	28	1	1218
1	4028	1	4	8	33	2	1054
1	4028	0	0	0	0	0	0
1	4028	1	5	1	29	3	788
1	4028	1	5	2	39	3	926
1	4028	1	5	3	13	3	673
1	4028	1	5	4	47	3	756
1	4028	1	5	5	22	3	1101
1	4028	1	5	6	2	1	824
1	4028	1	5	7	36	3	729
1	4028	1	5	8	12	3	744
1	4028	0	0	0	0	0	0
1	4028	1	6	1	15	3	719
1	4028	1	6	2	41	1	990
1	4028	1	6	3	11	2	620
1	4028	1	6	4	25	2	1143
1	4028	1	6	5	32	1	679
1	4028	1	6	6	21	2	658
1	4028	1	6	7	5	2	841
1	4028	1	6	8	44	3	693
1	4028	0	0	0	0	0	0
1	4028	1	7	1	1	3	572
1	4028	1	7	2	27	1	781
1	4028	1	7	3	22	3	540
1	4028	1	7	4	40	2	884
1	4028	1	7	5	7	1	716
1	4028	1	7	6	16	2	663
1	4028	1	7	7	33	3	924
1	4028	1	7	8	46	1	893
1	4028	0	0	0	0	0	0
1	4028	1	8	1	31	1	690
1	4028	1	8	2	41	1	1058
1	4028	1	8	3	21	1	701
1	4028	1	8	4	48	2	602
1	4028	1	8	5	6	3	937
1	4028	1	8	6	30	2	795
1	4028	1	8	7	15	3	713
1	4028	1	8	8	10	3	1204
1	4028	0	0	0	0	0	0
1	4028	1	9	1	19	1	613
1	4028	1	9	2	34	3	894
1	4028	1	9	3	17	1	708
1	4028	1	9	4	25	2	1323
1	4028	1	9	5	44	3	818
1	4028	1	9	6	4	2	694
1	4028	1	9	7	8	1	927
1	4028	1	9	8	42	1	945
1	4028	0	0	0	0	0	0
1	4028	1	10	1	23	2	684
1	4028	1	10	2	45	1	704
1	4028	1	10	3	39	3	985
1	4028	1	10	4	18	1	1327
1	4028	1	10	5	5	1	1064
1	4028	1	10	6	32	1	1094
1	4028	1	10	7	11	2	1334
1	4028	1	10	8	28	1	1431
1	4028	0	0	0	0	0	0
1	4028	1	11	1	38	2	869
1	4028	1	11	2	24	1	710
1	4028	1	11	3	47	3	870
1	4028	1	11	4	13	1	708
1	4028	1	11	5	36	3	787
1	4028	1	11	6	29	3	1431
1	4028	1	11	7	2	2	1211
1	4028	1	11	8	9	2	935
1	4028	0	0	0	0	0	0
1	4028	1	12	1	20	1	1230
1	4028	1	12	2	14	2	793
1	4028	1	12	3	35	2	878
1	4028	1	12	4	37	3	961
1	4028	1	12	5	12	3	1620
1	4028	1	12	6	43	2	693
1	4028	1	12	7	26	3	1022
1	4028	1	12	8	3	3	672
1	4028	2	1	1	0	4	8604
1	4028	2	1	2	0	2	6602
1	4028	2	1	3	0	2	2608
1	4028	2	1	4	0	2	2756
1	4028	2	1	5	0	2	2969
1	4028	2	1	6	0	3	1807
1	4028	2	1	7	0	4	2995
1	4028	2	1	8	0	2	3071
1	4028	2	1	9	0	3	2457
1	4028	2	1	10	0	4	1387
1	4028	2	1	11	0	1	5711
1	4028	2	1	12	0	3	3384
1	4028	2	1	13	0	1	5109
1	4028	2	1	14	0	2	1982
1	4028	2	1	15	0	3	2163
1	4028	2	1	16	0	1	1825
1	4028	2	1	17	0	2	1379
1	4028	2	1	18	0	2	7696
1	4028	2	1	19	0	2	1674
1	4028	2	1	20	0	3	2035
1	4028	2	1	21	0	1	2918
1	4028	2	1	22	0	2	1966
1	4028	2	1	23	0	2	2626
1	4028	2	1	24	0	1	2757
1	4028	2	1	25	0	1	7251
1	4028	2	1	26	0	2	4543
1	4028	2	1	27	0	2	5470
1	4028	2	1	28	0	2	5705
1	4028	2	1	29	0	4	1890
1	4028	2	1	30	0	3	2123
1	4035	0	0	0	0	0	0
1	4035	1	1	1	48	0	0
1	4035	1	1	2	18	2	93
1	4035	1	1	3	4	2	905
1	4035	1	1	4	32	0	0
1	4035	1	1	5	41	0	0
1	4035	1	1	6	26	0	0
1	4035	1	1	7	22	0	0
1	4035	1	1	8	12	0	0
1	4035	0	0	0	0	0	0
1	4035	1	2	1	34	2	1282
1	4035	1	2	2	16	0	0
1	4035	1	2	3	5	0	0
1	4035	1	2	4	38	1	1417
1	4035	1	2	5	28	2	975
1	4035	1	2	6	44	3	899
1	4035	1	2	7	23	2	1699
1	4035	1	2	8	7	0	0
1	4035	0	0	0	0	0	0
1	4035	1	3	1	6	3	1206
1	4035	1	3	2	11	0	0
1	4035	1	3	3	33	0	0
1	4035	1	3	4	29	0	0
1	4035	1	3	5	47	3	1671
1	4035	1	3	6	13	2	940
1	4035	1	3	7	21	3	1061
1	4035	1	3	8	40	1	915
1	4035	0	0	0	0	0	0
1	4035	1	4	1	35	2	691
1	4035	1	4	2	9	2	760
1	4035	1	4	3	14	2	834
1	4035	1	4	4	3	2	1000
1	4035	1	4	5	42	3	1260
1	4035	1	4	6	27	1	981
1	4035	1	4	7	45	3	1288
1	4035	1	4	8	20	1	1841
1	4035	0	0	0	0	0	0
1	4035	1	5	1	1	0	0
1	4035	1	5	2	24	3	1657
1	4035	1	5	3	25	1	846
1	4035	1	5	4	8	0	0
1	4035	1	5	5	36	3	1392
1	4035	1	5	6	37	3	1425
1	4035	1	5	7	43	3	859
1	4035	1	5	8	15	0	0
1	4035	0	0	0	0	0	0
1	4035	1	6	1	19	0	0
1	4035	1	6	2	17	1	1886
1	4035	1	6	3	10	1	1926
1	4035	1	6	4	2	0	0
1	4035	1	6	5	30	3	70
1	4035	1	6	6	31	1	908
1	4035	1	6	7	39	3	1098
1	4035	1	6	8	46	1	894
1	4035	0	0	0	0	0	0
1	4035	1	7	1	20	3	1189
1	4035	1	7	2	25	2	1377
1	4035	1	7	3	3	0	0
1	4035	1	7	4	7	0	0
1	4035	1	7	5	14	0	0
1	4035	1	7	6	35	2	1426
1	4035	1	7	7	44	3	1322
1	4035	1	7	8	38	2	1115
1	4035	0	0	0	0	0	0
1	4035	1	8	1	5	0	0
1	4035	1	8	2	12	1	1356
1	4035	1	8	3	48	2	769
1	4035	1	8	4	24	0	0
1	4035	1	8	5	36	3	1010
1	4035	1	8	6	18	2	1731
1	4035	1	8	7	26	3	1162
1	4035	1	8	8	40	2	1371
1	4035	0	0	0	0	0	0
1	4035	1	9	1	16	0	0
1	4035	1	9	2	6	3	1002
1	4035	1	9	3	42	1	1037
1	4035	1	9	4	43	3	808
1	4035	1	9	5	27	1	944
1	4035	1	9	6	31	2	1651
1	4035	1	9	7	23	3	1968
1	4035	1	9	8	11	0	0
1	4035	0	0	0	0	0	0
1	4035	1	10	1	17	1	1320
1	4035	1	10	2	45	1	1093
1	4035	1	10	3	19	0	0
1	4035	1	10	4	29	3	1112
1	4035	1	10	5	2	1	1172
1	4035	1	10	6	39	3	731
1	4035	1	10	7	10	0	0
1	4035	1	10	8	33	0	0
1	4035	0	0	0	0	0	0
1	4035	1	11	1	46	1	733
1	4035	1	11	2	21	0	0
1	4035	1	11	3	4	3	1202
1	4035	1	11	4	32	1	1063
1	4035	1	11	5	13	3	1471
1	4035	1	11	6	8	2	1764
1	4035	1	11	7	30	2	1355
1	4035	1	11	8	41	1	904
1	4035	0	0	0	0	0	0
1	4035	1	12	1	9	0	0
1	4035	1	12	2	37	3	777
1	4035	1	12	3	1	0	0
1	4035	1	12	4	15	0	0
1	4035	1	12	5	34	3	1034
1	4035	1	12	6	22	0	0
1	4035	1	12	7	28	1	1746
1	4035	1	12	8	47	3	1141
1	4035	2	1	1	0	3	6112
1	4035	2	1	2	0	3	2497
1	4035	2	1	3	0	3	2802
1	4035	2	1	4	0	4	2550
1	4035	2	1	5	0	3	1645
1	4035	2	1	6	0	3	1223
1	4035	2	1	7	0	2	1761
1	4035	2	1	8	0	1	1648
1	4035	2	1	9	0	1	1420
1	4035	2	1	10	0	4	2188
1	4035	2	1	11	0	2	4257
1	4035	2	1	12	0	3	1317
1	4035	2	1	13	0	3	1835
1	4035	2	1	14	0	3	1646
1	4035	2	1	15	0	3	3112
1	4035	2	1	16	0	2	2496
1	4035	2	1	17	0	3	1192
1	4035	2	1	18	0	2	4654
1	4035	2	1	19	0	3	918
1	4035	2	1	20	0	3	2093
1	4035	2	1	21	0	2	2733
1	4035	2	1	22	0	2	1742
1	4035	2	1	23	0	3	3635
1	4035	2	1	24	0	3	766
1	4035	2	1	25	0	2	2627
1	4035	2	1	26	0	3	5238
1	4035	2	1	27	0	4	3266
1	4035	2	1	28	0	3	2604
1	4035	2	1	29	0	3	1873
1	4035	2	1	30	0	3	1773
1	4036	0	0	0	0	0	0
1	4036	1	1	1	19	0	0
1	4036	1	1	2	35	2	667
1	4036	1	1	3	42	3	1418
1	4036	1	1	4	30	2	1045
1	4036	1	1	5	43	2	1354
1	4036	1	1	6	3	2	796
1	4036	1	1	7	16	3	1044
1	4036	1	1	8	12	3	632
1	4036	0	0	0	0	0	0
1	4036	1	2	1	1	2	567
1	4036	1	2	2	47	2	843
1	4036	1	2	3	11	2	526
1	4036	1	2	4	15	1	1041
1	4036	1	2	5	33	2	1007
1	4036	1	2	6	38	1	908
1	4036	1	2	7	25	1	1274
1	4036	1	2	8	21	2	1049
1	4036	0	0	0	0	0	0
1	4036	1	3	1	27	2	517
1	4036	1	3	2	9	2	559
1	4036	1	3	3	40	3	926
1	4036	1	3	4	5	2	664
1	4036	1	3	5	36	3	1408
1	4036	1	3	6	22	3	1051
1	4036	1	3	7	46	1	741
1	4036	1	3	8	17	2	612
1	4036	0	0	0	0	0	0
1	4036	1	4	1	48	2	543
1	4036	1	4	2	26	1	827
1	4036	1	4	3	32	1	637
1	4036	1	4	4	20	1	1657
1	4036	1	4	5	13	2	1836
1	4036	1	4	6	39	2	928
1	4036	1	4	7	2	1	622
1	4036	1	4	8	7	1	631
1	4036	0	0	0	0	0	0
1	4036	1	5	1	18	2	900
1	4036	1	5	2	24	2	1837
1	4036	1	5	3	28	2	878
1	4036	1	5	4	8	1	764
1	4036	1	5	5	6	3	899
1	4036	1	5	6	37	1	1400
1	4036	1	5	7	31	1	846
1	4036	1	5	8	45	1	756
1	4036	0	0	0	0	0	0
1	4036	1	6	1	41	2	665
1	4036	1	6	2	23	1	1262
1	4036	1	6	3	34	2	939
1	4036	1	6	4	44	3	1370
1	4036	1	6	5	4	3	950
1	4036	1	6	6	10	3	901
1	4036	1	6	7	14	3	1889
1	4036	1	6	8	29	2	950
1	4036	0	0	0	0	0	0
1	4036	1	7	1	1	1	679
1	4036	1	7	2	46	3	993
1	4036	1	7	3	33	2	630
1	4036	1	7	4	18	2	880
1	4036	1	7	5	11	2	602
1	4036	1	7	6	19	1	702
1	4036	1	7	7	30	3	1030
1	4036	1	7	8	40	3	1730
1	4036	0	0	0	0	0	0
1	4036	1	8	1	47	1	656
1	4036	1	8	2	26	1	859
1	4036	1	8	3	32	1	713
1	4036	1	8	4	10	3	1440
1	4036	1	8	5	23	2	1737
1	4036	1	8	6	4	1	799
1	4036	1	8	7	41	2	1047
1	4036	1	8	8	17	3	1038
1	4036	0	0	0	0	0	0
1	4036	1	9	1	6	2	684
1	4036	1	9	2	35	2	480
1	4036	1	9	3	8	1	642
1	4036	1	9	4	37	1	1447
1	4036	1	9	5	45	1	763
1	4036	1	9	6	25	1	696
1	4036	1	9	7	16	3	1332
1	4036	1	9	8	21	1	1086
1	4036	0	0	0	0	0	0
1	4036	1	10	1	28	2	723
1	4036	1	10	2	20	1	1588
1	4036	1	10	3	15	2	1547
1	4036	1	10	4	2	1	1029
1	4036	1	10	5	34	3	1170
1	4036	1	10	6	39	2	743
1	4036	1	10	7	7	1	639
1	4036	1	10	8	44	3	923
1	4036	0	0	0	0	0	0
1	4036	1	11	1	14	1	1837
1	4036	1	11	2	3	2	666
1	4036	1	11	3	38	1	1006
1	4036	1	11	4	9	2	643
1	4036	1	11	5	43	2	610
1	4036	1	11	6	29	2	564
1	4036	1	11	7	24	2	779
1	4036	1	11	8	36	3	986
1	4036	0	0	0	0	0	0
1	4036	1	12	1	27	2	602
1	4036	1	12	2	5	2	490
1	4036	1	12	3	48	2	659
1	4036	1	12	4	13	2	798
1	4036	1	12	5	12	3	1093
1	4036	1	12	6	31	1	783
1	4036	1	12	7	42	2	765
1	4036	1	12	8	22	3	861
1	4036	2	1	1	0	3	11570
1	4036	2	1	2	0	2	7106
1	4036	2	1	3	0	2	7630
1	4036	2	1	4	0	3	7416
1	4036	2	1	5	0	2	4638
1	4036	2	1	6	0	2	4032
1	4036	2	1	7	0	2	4876
1	4036	2	1	8	0	2	4486
1	4036	2	1	9	0	3	2895
1	4036	2	1	10	0	3	3736
1	4036	2	1	11	0	3	4911
1	4036	2	1	12	0	3	2144
1	4036	2	1	13	0	3	2406
1	4036	2	1	14	0	2	2898
1	4036	2	1	15	0	3	5058
1	4036	2	1	16	0	3	4589
1	4036	2	1	17	0	3	2162
1	4036	2	1	18	0	2	4016
1	4036	2	1	19	0	3	2756
1	4036	2	1	20	0	3	4098
1	4036	2	1	21	0	3	2362
1	4036	2	1	22	0	3	1808
1	4036	2	1	23	0	3	4236
1	4036	2	1	24	0	3	3527
1	4036	2	1	25	0	2	4054
1	4036	2	1	26	0	2	2560
1	4036	2	1	27	0	3	7422
1	4036	2	1	28	0	3	2243
1	4036	2	1	29	0	4	3245
1	4036	2	1	30	0	4	2370
1	4037	0	0	0	0	0	0
1	4037	1	1	1	7	0	0
1	4037	1	1	2	16	2	1212
1	4037	1	1	3	23	2	855
1	4037	1	1	4	48	2	822
1	4037	1	1	5	32	1	1161
1	4037	1	1	6	29	3	1179
1	4037	1	1	7	6	1	1739
1	4037	1	1	8	41	1	1283
1	4037	0	0	0	0	0	0
1	4037	1	2	1	5	2	1561
1	4037	1	2	2	25	2	996
1	4037	1	2	3	33	2	1189
1	4037	1	2	4	18	1	958
1	4037	1	2	5	9	2	1184
1	4037	1	2	6	37	3	1382
1	4037	1	2	7	20	1	1322
1	4037	1	2	8	45	1	972
1	4037	0	0	0	0	0	0
1	4037	1	3	1	42	1	1320
1	4037	1	3	2	1	2	1720
1	4037	1	3	3	10	2	1598
1	4037	1	3	4	30	2	1368
1	4037	1	3	5	35	3	1129
1	4037	1	3	6	17	1	1759
1	4037	1	3	7	44	3	1510
1	4037	1	3	8	19	1	1859
1	4037	0	0	0	0	0	0
1	4037	1	4	1	34	3	832
1	4037	1	4	2	21	2	1367
1	4037	1	4	3	40	2	1513
1	4037	1	4	4	26	0	0
1	4037	1	4	5	47	2	1525
1	4037	1	4	6	12	3	1245
1	4037	1	4	7	13	3	1461
1	4037	1	4	8	3	3	1477
1	4037	0	0	0	0	0	0
1	4037	1	5	1	38	2	882
1	4037	1	5	2	22	2	1572
1	4037	1	5	3	36	3	1669
1	4037	1	5	4	11	3	1943
1	4037	1	5	5	15	2	1684
1	4037	1	5	6	4	2	1997
1	4037	1	5	7	46	0	0
1	4037	1	5	8	27	1	1325
1	4037	0	0	0	0	0	0
1	4037	1	6	1	39	3	957
1	4037	1	6	2	8	1	1527
1	4037	1	6	3	43	3	1228
1	4037	1	6	4	2	2	1426
1	4037	1	6	5	24	3	1444
1	4037	1	6	6	28	1	1365
1	4037	1	6	7	14	2	1458
1	4037	1	6	8	31	1	1712
1	4037	0	0	0	0	0	0
1	4037	1	7	1	11	2	1246
1	4037	1	7	2	26	3	1017
1	4037	1	7	3	42	1	1400
1	4037	1	7	4	20	1	1355
1	4037	1	7	5	16	2	1413
1	4037	1	7	6	6	1	1542
1	4037	1	7	7	48	2	1301
1	4037	1	7	8	35	2	1345
1	4037	0	0	0	0	0	0
1	4037	1	8	1	19	1	1441
1	4037	1	8	2	32	1	1205
1	4037	1	8	3	30	2	1035
1	4037	1	8	4	2	2	1420
1	4037	1	8	5	7	1	1358
1	4037	1	8	6	46	1	1250
1	4037	1	8	7	15	3	1598
1	4037	1	8	8	39	3	1384
1	4037	0	0	0	0	0	0
1	4037	1	9	1	28	1	1313
1	4037	1	9	2	47	3	1438
1	4037	1	9	3	4	2	1505
1	4037	1	9	4	37	3	1326
1	4037	1	9	5	23	2	1214
1	4037	1	9	6	34	3	1331
1	4037	1	9	7	8	1	1481
1	4037	1	9	8	14	2	1444
1	4037	0	0	0	0	0	0
1	4037	1	10	1	38	2	1085
1	4037	1	10	2	5	2	1262
1	4037	1	10	3	13	3	1237
1	4037	1	10	4	33	2	1369
1	4037	1	10	5	22	0	0
1	4037	1	10	6	29	3	756
1	4037	1	10	7	44	3	1518
1	4037	1	10	8	12	3	1407
1	4037	0	0	0	0	0	0
1	4037	1	11	1	27	1	1361
1	4037	1	11	2	1	3	1242
1	4037	1	11	3	24	3	1248
1	4037	1	11	4	41	1	1604
1	4037	1	11	5	31	1	1800
1	4037	1	11	6	18	1	1460
1	4037	1	11	7	43	2	1397
1	4037	1	11	8	10	3	1361
1	4037	0	0	0	0	0	0
1	4037	1	12	1	21	2	1020
1	4037	1	12	2	3	3	1022
1	4037	1	12	3	17	1	1345
1	4037	1	12	4	25	1	1413
1	4037	1	12	5	40	2	1186
1	4037	1	12	6	9	2	1445
1	4037	1	12	7	36	3	1273
1	4037	1	12	8	45	1	1488
1	4037	2	1	1	0	3	9016
1	4037	2	1	2	0	2	8318
1	4037	2	1	3	0	4	3831
1	4037	2	1	4	0	2	2435
1	4037	2	1	5	0	2	4166
1	4037	2	1	6	0	2	2988
1	4037	2	1	7	0	4	2745
1	4037	2	1	8	0	3	2047
1	4037	2	1	9	0	2	2553
1	4037	2	1	10	0	2	2567
1	4037	2	1	11	0	3	4789
1	4037	2	1	12	0	3	2666
1	4037	2	1	13	0	4	3836
1	4037	2	1	14	0	4	1376
1	4037	2	1	15	0	2	2108
1	4037	2	1	16	0	1	1980
1	4037	2	1	17	0	2	2225
1	4037	2	1	18	0	2	4132
1	4037	2	1	19	0	3	1907
1	4037	2	1	20	0	3	1587
1	4037	2	1	21	0	1	2536
1	4037	2	1	22	0	4	2103
1	4037	2	1	23	0	3	2311
1	4037	2	1	24	0	1	2438
1	4037	2	1	25	0	4	6649
1	4037	2	1	26	0	3	2068
1	4037	2	1	27	0	1	3606
1	4037	2	1	28	0	1	2834
1	4037	2	1	29	0	1	3413
1	4037	2	1	30	0	4	1521
1	4039	0	0	0	0	0	0
1	4039	1	1	1	22	0	0
1	4039	1	1	2	2	0	0
1	4039	1	1	3	34	3	1801
1	4039	1	1	4	45	1	1199
1	4039	1	1	5	25	0	0
1	4039	1	1	6	37	0	0
1	4039	1	1	7	14	0	0
1	4039	1	1	8	8	0	0
1	4039	0	0	0	0	0	0
1	4039	1	2	1	44	3	1411
1	4039	1	2	2	33	2	1081
1	4039	1	2	3	28	1	1647
1	4039	1	2	4	1	3	996
1	4039	1	2	5	21	2	1113
1	4039	1	2	6	13	3	1084
1	4039	1	2	7	38	2	1687
1	4039	1	2	8	9	2	1103
1	4039	0	0	0	0	0	0
1	4039	1	3	1	16	0	0
1	4039	1	3	2	36	0	0
1	4039	1	3	3	42	0	0
1	4039	1	3	4	12	3	1549
1	4039	1	3	5	4	3	1624
1	4039	1	3	6	24	3	1406
1	4039	1	3	7	26	1	1891
1	4039	1	3	8	43	2	1530
1	4039	0	0	0	0	0	0
1	4039	1	4	1	27	2	1661
1	4039	1	4	2	47	2	1822
1	4039	1	4	3	40	2	1757
1	4039	1	4	4	3	2	1418
1	4039	1	4	5	17	1	1448
1	4039	1	4	6	11	2	1175
1	4039	1	4	7	19	1	1279
1	4039	1	4	8	35	2	1327
1	4039	0	0	0	0	0	0
1	4039	1	5	1	20	1	1338
1	4039	1	5	2	39	3	1502
1	4039	1	5	3	48	1	1085
1	4039	1	5	4	30	3	1936
1	4039	1	5	5	18	3	1509
1	4039	1	5	6	5	1	1170
1	4039	1	5	7	10	3	1358
1	4039	1	5	8	31	1	1066
1	4039	0	0	0	0	0	0
1	4039	1	6	1	46	1	1357
1	4039	1	6	2	6	3	996
1	4039	1	6	3	32	1	1325
1	4039	1	6	4	29	2	1246
1	4039	1	6	5	15	3	1182
1	4039	1	6	6	41	1	1149
1	4039	1	6	7	23	2	1180
1	4039	1	6	8	7	1	1049
1	4039	0	0	0	0	0	0
1	4039	1	7	1	24	1	1781
1	4039	1	7	2	5	2	1299
1	4039	1	7	3	37	3	1397
1	4039	1	7	4	10	3	1211
1	4039	1	7	5	28	3	1386
1	4039	1	7	6	47	0	0
1	4039	1	7	7	31	1	1811
1	4039	1	7	8	17	1	1508
1	4039	0	0	0	0	0	0
1	4039	1	8	1	36	3	1770
1	4039	1	8	2	41	1	1711
1	4039	1	8	3	48	1	1391
1	4039	1	8	4	8	1	1370
1	4039	1	8	5	19	1	1303
1	4039	1	8	6	18	3	1547
1	4039	1	8	7	30	3	1850
1	4039	1	8	8	4	3	1503
1	4039	0	0	0	0	0	0
1	4039	1	9	1	33	2	1672
1	4039	1	9	2	12	3	1695
1	4039	1	9	3	20	1	1500
1	4039	1	9	4	39	3	1171
1	4039	1	9	5	43	2	1385
1	4039	1	9	6	14	2	1224
1	4039	1	9	7	6	2	1803
1	4039	1	9	8	26	3	1700
1	4039	0	0	0	0	0	0
1	4039	1	10	1	21	2	1519
1	4039	1	10	2	45	1	1630
1	4039	1	10	3	13	3	1391
1	4039	1	10	4	42	1	1141
1	4039	1	10	5	9	1	1867
1	4039	1	10	6	35	2	1223
1	4039	1	10	7	25	2	1321
1	4039	1	10	8	3	0	0
1	4039	0	0	0	0	0	0
1	4039	1	11	1	34	0	0
1	4039	1	11	2	2	2	1766
1	4039	1	11	3	11	2	1293
1	4039	1	11	4	29	3	1092
1	4039	1	11	5	46	1	1478
1	4039	1	11	6	22	3	1720
1	4039	1	11	7	38	2	1232
1	4039	1	11	8	16	2	1401
1	4039	0	0	0	0	0	0
1	4039	1	12	1	40	2	1646
1	4039	1	12	2	23	2	1537
1	4039	1	12	3	44	2	1217
1	4039	1	12	4	15	3	1014
1	4039	1	12	5	27	1	1174
1	4039	1	12	6	7	1	1962
1	4039	1	12	7	32	1	1506
1	4039	1	12	8	1	3	1734
1	4039	2	1	1	0	2	7233
1	4039	2	1	2	0	2	6950
1	4039	2	1	3	0	1	6711
1	4039	2	1	4	0	2	3415
1	4039	2	1	5	0	3	7899
1	4039	2	1	6	0	2	4109
1	4039	2	1	7	0	2	5204
1	4039	2	1	8	0	2	5890
1	4039	2	1	9	0	3	6819
1	4039	2	1	10	0	3	6120
1	4039	2	1	11	0	1	6105
1	4039	2	1	12	0	3	2747
1	4039	2	1	13	0	2	3961
1	4039	2	1	14	0	2	3808
1	4039	2	1	15	0	3	3356
1	4039	2	1	16	0	3	2842
1	4039	2	1	17	0	3	2669
1	4039	2	1	18	0	2	6799
1	4039	2	1	19	0	2	2685
1	4039	2	1	20	0	3	4558
1	4039	2	1	21	0	3	3020
1	4039	2	1	22	0	2	2792
1	4039	2	1	23	0	3	6651
1	4039	2	1	24	0	2	8591
1	4039	2	1	25	0	3	8494
1	4039	2	1	26	0	2	7288
1	4039	2	1	27	0	3	3955
1	4039	2	1	28	0	2	9170
1	4039	2	1	29	0	1	2002
1	4039	2	1	30	0	2	5518
1	4045	0	0	0	0	0	0
1	4045	1	1	1	37	0	0
1	4045	1	1	2	27	2	530
1	4045	1	1	3	15	3	980
1	4045	1	1	4	9	1	230
1	4045	1	1	5	6	1	327
1	4045	1	1	6	36	2	1453
1	4045	1	1	7	21	3	850
1	4045	1	1	8	45	3	516
1	4045	0	0	0	0	0	0
1	4045	1	2	1	13	1	520
1	4045	1	2	2	19	2	269
1	4045	1	2	3	3	0	0
1	4045	1	2	4	48	3	871
1	4045	1	2	5	32	2	977
1	4045	1	2	6	42	2	921
1	4045	1	2	7	11	3	777
1	4045	1	2	8	30	3	714
1	4045	0	0	0	0	0	0
1	4045	1	3	1	40	2	827
1	4045	1	3	2	46	1	464
1	4045	1	3	3	16	2	478
1	4045	1	3	4	34	3	735
1	4045	1	3	5	22	1	406
1	4045	1	3	6	5	2	741
1	4045	1	3	7	29	1	757
1	4045	1	3	8	8	3	322
1	4045	0	0	0	0	0	0
1	4045	1	4	1	2	3	447
1	4045	1	4	2	17	2	375
1	4045	1	4	3	43	1	1067
1	4045	1	4	4	31	2	849
1	4045	1	4	5	23	3	510
1	4045	1	4	6	25	1	786
1	4045	1	4	7	38	2	638
1	4045	1	4	8	12	3	1291
1	4045	0	0	0	0	0	0
1	4045	1	5	1	28	2	1076
1	4045	1	5	2	44	2	401
1	4045	1	5	3	14	2	499
1	4045	1	5	4	7	1	494
1	4045	1	5	5	35	3	854
1	4045	1	5	6	24	1	419
1	4045	1	5	7	41	2	1358
1	4045	1	5	8	1	3	452
1	4045	0	0	0	0	0	0
1	4045	1	6	1	39	0	0
1	4045	1	6	2	20	2	778
1	4045	1	6	3	18	3	428
1	4045	1	6	4	33	2	286
1	4045	1	6	5	26	2	351
1	4045	1	6	6	10	1	262
1	4045	1	6	7	4	1	862
1	4045	1	6	8	47	3	801
1	4045	0	0	0	0	0	0
1	4045	1	7	1	36	2	659
1	4045	1	7	2	45	3	1174
1	4045	1	7	3	23	1	322
1	4045	1	7	4	12	2	560
1	4045	1	7	5	41	3	938
1	4045	1	7	6	14	3	718
1	4045	1	7	7	3	2	1877
1	4045	1	7	8	30	1	853
1	4045	0	0	0	0	0	0
1	4045	1	8	1	39	1	639
1	4045	1	8	2	18	1	869
1	4045	1	8	3	46	1	668
1	4045	1	8	4	9	1	874
1	4045	1	8	5	27	1	828
1	4045	1	8	6	6	1	523
1	4045	1	8	7	35	1	400
1	4045	1	8	8	21	3	430
1	4045	0	0	0	0	0	0
1	4045	1	9	1	4	0	0
1	4045	1	9	2	13	1	389
1	4045	1	9	3	19	1	644
1	4045	1	9	4	26	1	251
1	4045	1	9	5	37	3	482
1	4045	1	9	6	43	1	349
1	4045	1	9	7	31	2	491
1	4045	1	9	8	8	1	517
1	4045	0	0	0	0	0	0
1	4045	1	10	1	47	3	560
1	4045	1	10	2	34	3	468
1	4045	1	10	3	1	3	625
1	4045	1	10	4	42	3	567
1	4045	1	10	5	10	3	393
1	4045	1	10	6	15	3	565
1	4045	1	10	7	20	3	394
1	4045	1	10	8	25	3	471
1	4045	0	0	0	0	0	0
1	4045	1	11	1	38	1	662
1	4045	1	11	2	22	2	457
1	4045	1	11	3	2	3	313
1	4045	1	11	4	29	1	238
1	4045	1	11	5	7	2	326
1	4045	1	11	6	32	3	297
1	4045	1	11	7	44	0	0
1	4045	1	11	8	16	1	283
1	4045	0	0	0	0	0	0
1	4045	1	12	1	48	3	650
1	4045	1	12	2	17	2	824
1	4045	1	12	3	11	2	986
1	4045	1	12	4	5	0	0
1	4045	1	12	5	40	3	894
1	4045	1	12	6	28	1	890
1	4045	1	12	7	24	2	586
1	4045	1	12	8	33	3	681
1	4045	2	1	1	0	4	8040
1	4045	2	1	2	0	2	9212
1	4045	2	1	3	0	2	3074
1	4045	2	1	4	0	2	9434
1	4045	2	1	5	0	1	5256
1	4045	2	1	6	0	1	3178
1	4045	2	1	7	0	3	7456
1	4045	2	1	8	0	3	4475
1	4045	2	1	9	0	3	5837
1	4045	2	1	10	0	2	5529
1	4045	2	1	11	0	4	8665
1	4045	2	1	12	0	1	3120
1	4045	2	1	13	0	2	2165
1	4045	2	1	14	0	2	5609
1	4045	2	1	15	0	4	5814
1	4045	2	1	16	0	1	4027
1	4045	2	1	17	0	1	3983
1	4045	2	1	18	0	1	4876
1	4045	2	1	19	0	1	6054
1	4045	2	1	20	0	1	2522
1	4045	2	1	21	0	1	825
1	4045	2	1	22	0	4	3644
1	4045	2	1	23	0	3	5799
1	4045	2	1	24	0	1	5556
1	4045	2	1	25	0	4	8466
1	4045	2	1	26	0	1	4366
1	4045	2	1	27	0	2	6396
1	4045	2	1	28	0	2	890
1	4045	2	1	29	0	1	1092
1	4045	2	1	30	0	3	4523
1	4046	0	0	0	0	0	0
1	4046	1	1	1	19	3	1767
1	4046	1	1	2	48	2	1170
1	4046	1	1	3	7	1	977
1	4046	1	1	4	32	2	1109
1	4046	1	1	5	39	3	697
1	4046	1	1	6	4	2	880
1	4046	1	1	7	27	1	1608
1	4046	1	1	8	15	3	752
1	4046	0	0	0	0	0	0
1	4046	1	2	1	28	1	1276
1	4046	1	2	2	5	1	1068
1	4046	1	2	3	45	3	932
1	4046	1	2	4	14	2	818
1	4046	1	2	5	9	3	994
1	4046	1	2	6	38	2	1488
1	4046	1	2	7	22	3	750
1	4046	1	2	8	31	3	1532
1	4046	0	0	0	0	0	0
1	4046	1	3	1	21	2	1060
1	4046	1	3	2	47	2	1391
1	4046	1	3	3	13	1	913
1	4046	1	3	4	12	3	780
1	4046	1	3	5	2	2	673
1	4046	1	3	6	33	3	847
1	4046	1	3	7	25	2	1824
1	4046	1	3	8	40	2	1453
1	4046	0	0	0	0	0	0
1	4046	1	4	1	1	3	854
1	4046	1	4	2	41	1	1026
1	4046	1	4	3	34	3	811
1	4046	1	4	4	8	1	1164
1	4046	1	4	5	24	3	1234
1	4046	1	4	6	44	2	1145
1	4046	1	4	7	17	1	927
1	4046	1	4	8	29	3	909
1	4046	0	0	0	0	0	0
1	4046	1	5	1	35	2	1227
1	4046	1	5	2	16	2	758
1	4046	1	5	3	43	3	1344
1	4046	1	5	4	10	1	1030
1	4046	1	5	5	6	3	1222
1	4046	1	5	6	42	1	1526
1	4046	1	5	7	30	2	1056
1	4046	1	5	8	23	1	1285
1	4046	0	0	0	0	0	0
1	4046	1	6	1	18	3	1392
1	4046	1	6	2	26	3	1363
1	4046	1	6	3	46	1	1257
1	4046	1	6	4	36	2	1407
1	4046	1	6	5	11	2	1624
1	4046	1	6	6	37	3	1026
1	4046	1	6	7	3	3	1057
1	4046	1	6	8	20	1	894
1	4046	0	0	0	0	0	0
1	4046	1	7	1	40	2	1103
1	4046	1	7	2	9	2	1211
1	4046	1	7	3	22	3	970
1	4046	1	7	4	29	3	1329
1	4046	1	7	5	4	2	1027
1	4046	1	7	6	48	2	1264
1	4046	1	7	7	35	3	908
1	4046	1	7	8	13	1	966
1	4046	0	0	0	0	0	0
1	4046	1	8	1	25	1	1710
1	4046	1	8	2	39	3	1452
1	4046	1	8	3	11	2	804
1	4046	1	8	4	1	3	1323
1	4046	1	8	5	21	2	1597
1	4046	1	8	6	31	1	1009
1	4046	1	8	7	44	3	1005
1	4046	1	8	8	15	3	1298
1	4046	0	0	0	0	0	0
1	4046	1	9	1	34	3	1146
1	4046	1	9	2	24	3	997
1	4046	1	9	3	30	2	1625
1	4046	1	9	4	38	2	1222
1	4046	1	9	5	10	3	996
1	4046	1	9	6	3	3	1268
1	4046	1	9	7	47	3	1664
1	4046	1	9	8	16	2	1311
1	4046	0	0	0	0	0	0
1	4046	1	10	1	42	1	1087
1	4046	1	10	2	7	1	1148
1	4046	1	10	3	23	2	922
1	4046	1	10	4	2	2	1062
1	4046	1	10	5	28	1	1177
1	4046	1	10	6	36	3	1423
1	4046	1	10	7	18	1	1277
1	4046	1	10	8	45	1	1688
1	4046	0	0	0	0	0	0
1	4046	1	11	1	37	3	1062
1	4046	1	11	2	27	1	1112
1	4046	1	11	3	43	2	1307
1	4046	1	11	4	14	2	1980
1	4046	1	11	5	19	1	1030
1	4046	1	11	6	8	1	1356
1	4046	1	11	7	5	1	1314
1	4046	1	11	8	33	3	1354
1	4046	0	0	0	0	0	0
1	4046	1	12	1	20	1	1057
1	4046	1	12	2	6	1	1261
1	4046	1	12	3	46	1	1031
1	4046	1	12	4	17	1	1261
1	4046	1	12	5	12	3	1274
1	4046	1	12	6	26	3	1574
1	4046	1	12	7	41	1	1790
1	4046	1	12	8	32	1	1855
1	4046	2	1	1	0	4	4769
1	4046	2	1	2	0	2	5528
1	4046	2	1	3	0	2	4760
1	4046	2	1	4	0	2	4190
1	4046	2	1	5	0	1	2523
1	4046	2	1	6	0	2	2475
1	4046	2	1	7	0	4	2332
1	4046	2	1	8	0	3	2098
1	4046	2	1	9	0	3	1818
1	4046	2	1	10	0	4	3198
1	4046	2	1	11	0	2	5386
1	4046	2	1	12	0	4	2688
1	4046	2	1	13	0	3	2726
1	4046	2	1	14	0	2	2176
1	4046	2	1	15	0	2	5007
1	4046	2	1	16	0	1	4786
1	4046	2	1	17	0	1	2907
1	4046	2	1	18	0	2	4703
1	4046	2	1	19	0	1	3453
1	4046	2	1	20	0	3	2979
1	4046	2	1	21	0	1	1976
1	4046	2	1	22	0	1	2374
1	4046	2	1	23	0	3	5076
1	4046	2	1	24	0	1	2180
1	4046	2	1	25	0	1	4521
1	4046	2	1	26	0	2	3596
1	4046	2	1	27	0	2	3878
1	4046	2	1	28	0	1	3408
1	4046	2	1	29	0	3	3541
1	4046	2	1	30	0	2	3025
1	4047	0	0	0	0	0	0
1	4047	1	1	1	13	0	0
1	4047	1	1	2	40	3	830
1	4047	1	1	3	25	1	625
1	4047	1	1	4	23	2	568
1	4047	1	1	5	43	3	591
1	4047	1	1	6	1	1	482
1	4047	1	1	7	35	2	602
1	4047	1	1	8	12	3	601
1	4047	0	0	0	0	0	0
1	4047	1	2	1	30	3	756
1	4047	1	2	2	32	1	632
1	4047	1	2	3	48	2	659
1	4047	1	2	4	2	1	568
1	4047	1	2	5	41	3	671
1	4047	1	2	6	10	3	632
1	4047	1	2	7	21	2	759
1	4047	1	2	8	16	3	726
1	4047	0	0	0	0	0	0
1	4047	1	3	1	20	1	639
1	4047	1	3	2	27	2	669
1	4047	1	3	3	8	1	823
1	4047	1	3	4	14	1	802
1	4047	1	3	5	39	3	834
1	4047	1	3	6	6	3	762
1	4047	1	3	7	36	3	871
1	4047	1	3	8	45	1	851
1	4047	0	0	0	0	0	0
1	4047	1	4	1	38	2	836
1	4047	1	4	2	29	3	700
1	4047	1	4	3	18	1	608
1	4047	1	4	4	9	3	686
1	4047	1	4	5	19	3	841
1	4047	1	4	6	5	2	679
1	4047	1	4	7	44	2	1007
1	4047	1	4	8	34	2	965
1	4047	0	0	0	0	0	0
1	4047	1	5	1	4	2	786
1	4047	1	5	2	28	1	1131
1	4047	1	5	3	37	3	682
1	4047	1	5	4	31	1	1114
1	4047	1	5	5	46	2	804
1	4047	1	5	6	17	1	770
1	4047	1	5	7	22	2	770
1	4047	1	5	8	7	3	949
1	4047	0	0	0	0	0	0
1	4047	1	6	1	47	1	1030
1	4047	1	6	2	42	1	775
1	4047	1	6	3	15	3	1086
1	4047	1	6	4	11	2	748
1	4047	1	6	5	26	3	994
1	4047	1	6	6	33	2	1014
1	4047	1	6	7	24	1	879
1	4047	1	6	8	3	3	1215
1	4047	0	0	0	0	0	0
1	4047	1	7	1	29	3	850
1	4047	1	7	2	2	2	855
1	4047	1	7	3	7	1	1312
1	4047	1	7	4	14	2	665
1	4047	1	7	5	38	2	854
1	4047	1	7	6	19	3	846
1	4047	1	7	7	46	2	798
1	4047	1	7	8	32	1	935
1	4047	0	0	0	0	0	0
1	4047	1	8	1	21	2	1059
1	4047	1	8	2	26	3	969
1	4047	1	8	3	35	2	941
1	4047	1	8	4	41	1	964
1	4047	1	8	5	4	2	681
1	4047	1	8	6	12	3	832
1	4047	1	8	7	13	3	660
1	4047	1	8	8	48	2	821
1	4047	0	0	0	0	0	0
1	4047	1	9	1	10	3	818
1	4047	1	9	2	3	3	987
1	4047	1	9	3	30	2	718
1	4047	1	9	4	45	1	1169
1	4047	1	9	5	23	2	928
1	4047	1	9	6	36	3	702
1	4047	1	9	7	42	2	658
1	4047	1	9	8	16	2	772
1	4047	0	0	0	0	0	0
1	4047	1	10	1	9	2	1105
1	4047	1	10	2	1	3	808
1	4047	1	10	3	40	2	781
1	4047	1	10	4	22	3	779
1	4047	1	10	5	33	2	1261
1	4047	1	10	6	28	1	1192
1	4047	1	10	7	15	3	726
1	4047	1	10	8	43	2	1772
1	4047	0	0	0	0	0	0
1	4047	1	11	1	11	2	610
1	4047	1	11	2	24	3	1040
1	4047	1	11	3	5	2	548
1	4047	1	11	4	17	1	825
1	4047	1	11	5	27	1	1102
1	4047	1	11	6	44	3	767
1	4047	1	11	7	37	2	662
1	4047	1	11	8	34	2	1168
1	4047	0	0	0	0	0	0
1	4047	1	12	1	47	3	1004
1	4047	1	12	2	39	3	918
1	4047	1	12	3	25	1	1046
1	4047	1	12	4	20	2	812
1	4047	1	12	5	8	1	988
1	4047	1	12	6	18	1	1481
1	4047	1	12	7	31	1	923
1	4047	1	12	8	6	1	1357
1	4047	2	1	1	0	3	6957
1	4047	2	1	2	0	2	4476
1	4047	2	1	3	0	4	4142
1	4047	2	1	4	0	4	3237
1	4047	2	1	5	0	2	3520
1	4047	2	1	6	0	2	2376
1	4047	2	1	7	0	4	2844
1	4047	2	1	8	0	3	2119
1	4047	2	1	9	0	3	2207
1	4047	2	1	10	0	3	2362
1	4047	2	1	11	0	2	3864
1	4047	2	1	12	0	3	2274
1	4047	2	1	13	0	2	3979
1	4047	2	1	14	0	2	2489
1	4047	2	1	15	0	3	3122
1	4047	2	1	16	0	1	2258
1	4047	2	1	17	0	2	1939
1	4047	2	1	18	0	1	3602
1	4047	2	1	19	0	2	1871
1	4047	2	1	20	0	3	1064
1	4047	2	1	21	0	2	4490
1	4047	2	1	22	0	1	2618
1	4047	2	1	23	0	3	4973
1	4047	2	1	24	0	1	3043
1	4047	2	1	25	0	2	7334
1	4047	2	1	26	0	1	3999
1	4047	2	1	27	0	2	2764
1	4047	2	1	28	0	2	4409
1	4047	2	1	29	0	4	1990
1	4047	2	1	30	0	2	2650
1	4048	0	0	0	0	0	0
1	4048	1	1	1	38	0	0
1	4048	1	1	2	18	0	0
1	4048	1	1	3	24	3	1054
1	4048	1	1	4	7	1	1143
1	4048	1	1	5	1	2	1633
1	4048	1	1	6	36	0	0
1	4048	1	1	7	44	3	1960
1	4048	1	1	8	30	2	1691
1	4048	0	0	0	0	0	0
1	4048	1	2	1	13	3	1364
1	4048	1	2	2	42	1	1712
1	4048	1	2	3	4	3	1636
1	4048	1	2	4	32	1	1346
1	4048	1	2	5	21	2	1361
1	4048	1	2	6	11	2	1701
1	4048	1	2	7	27	1	1482
1	4048	1	2	8	43	2	1163
1	4048	0	0	0	0	0	0
1	4048	1	3	1	28	1	1353
1	4048	1	3	2	45	3	1702
1	4048	1	3	3	19	1	1486
1	4048	1	3	4	12	0	0
1	4048	1	3	5	6	3	1740
1	4048	1	3	6	35	2	1118
1	4048	1	3	7	17	2	1284
1	4048	1	3	8	39	3	1720
1	4048	0	0	0	0	0	0
1	4048	1	4	1	47	3	1297
1	4048	1	4	2	37	3	1394
1	4048	1	4	3	8	1	1586
1	4048	1	4	4	16	3	1713
1	4048	1	4	5	20	1	1983
1	4048	1	4	6	2	2	1708
1	4048	1	4	7	26	3	1377
1	4048	1	4	8	33	2	1323
1	4048	0	0	0	0	0	0
1	4048	1	5	1	14	1	1139
1	4048	1	5	2	41	1	942
1	4048	1	5	3	10	3	917
1	4048	1	5	4	23	2	950
1	4048	1	5	5	3	3	1225
1	4048	1	5	6	34	0	0
1	4048	1	5	7	48	2	995
1	4048	1	5	8	25	2	1009
1	4048	0	0	0	0	0	0
1	4048	1	6	1	5	2	718
1	4048	1	6	2	9	2	847
1	4048	1	6	3	15	3	1681
1	4048	1	6	4	29	3	1872
1	4048	1	6	5	31	1	1067
1	4048	1	6	6	22	3	1692
1	4048	1	6	7	40	2	1337
1	4048	1	6	8	46	1	1326
1	4048	0	0	0	0	0	0
1	4048	1	7	1	7	1	1388
1	4048	1	7	2	4	2	1704
1	4048	1	7	3	27	2	1322
1	4048	1	7	4	37	3	948
1	4048	1	7	5	48	2	1117
1	4048	1	7	6	16	2	1517
1	4048	1	7	7	24	3	1060
1	4048	1	7	8	32	1	999
1	4048	0	0	0	0	0	0
1	4048	1	8	1	41	1	816
1	4048	1	8	2	25	1	1855
1	4048	1	8	3	1	3	1469
1	4048	1	8	4	21	2	1529
1	4048	1	8	5	44	3	1058
1	4048	1	8	6	15	2	1386
1	4048	1	8	7	9	2	1886
1	4048	1	8	8	31	1	966
1	4048	0	0	0	0	0	0
1	4048	1	9	1	38	2	1125
1	4048	1	9	2	14	2	1141
1	4048	1	9	3	45	1	815
1	4048	1	9	4	6	3	1676
1	4048	1	9	5	36	3	1239
1	4048	1	9	6	10	2	1806
1	4048	1	9	7	28	0	0
1	4048	1	9	8	22	2	1195
1	4048	0	0	0	0	0	0
1	4048	1	10	1	42	1	793
1	4048	1	10	2	5	1	1882
1	4048	1	10	3	35	2	1013
1	4048	1	10	4	47	3	926
1	4048	1	10	5	19	3	1730
1	4048	1	10	6	30	2	1269
1	4048	1	10	7	13	2	1284
1	4048	1	10	8	8	3	1878
1	4048	0	0	0	0	0	0
1	4048	1	11	1	39	3	1189
1	4048	1	11	2	20	3	1178
1	4048	1	11	3	2	2	1244
1	4048	1	11	4	17	2	1204
1	4048	1	11	5	29	3	1322
1	4048	1	11	6	11	0	0
1	4048	1	11	7	46	1	1483
1	4048	1	11	8	34	3	1303
1	4048	0	0	0	0	0	0
1	4048	1	12	1	3	2	938
1	4048	1	12	2	18	2	1638
1	4048	1	12	3	12	3	1875
1	4048	1	12	4	43	2	1418
1	4048	1	12	5	33	2	1060
1	4048	1	12	6	23	2	1459
1	4048	1	12	7	26	3	1905
1	4048	1	12	8	40	2	1354
1	4048	2	1	1	0	3	11595
1	4048	2	1	2	0	2	3570
1	4048	2	1	3	0	1	3904
1	4048	2	1	4	0	2	3377
1	4048	2	1	5	0	1	5294
1	4048	2	1	6	0	2	7311
1	4048	2	1	7	0	2	4432
1	4048	2	1	8	0	2	4436
1	4048	2	1	9	0	2	4384
1	4048	2	1	10	0	3	3405
1	4048	2	1	11	0	3	4786
1	4048	2	1	12	0	3	4352
1	4048	2	1	13	0	3	2951
1	4048	2	1	14	0	2	4533
1	4048	2	1	15	0	2	4125
1	4048	2	1	16	0	2	5813
1	4048	2	1	17	0	3	3265
1	4048	2	1	18	0	3	2835
1	4048	2	1	19	0	2	1902
1	4048	2	1	20	0	3	2006
1	4048	2	1	21	0	4	3169
1	4048	2	1	22	0	1	1887
1	4048	2	1	23	0	2	4808
1	4048	2	1	24	0	1	3725
1	4048	2	1	25	0	1	6172
1	4048	2	1	26	0	2	6291
1	4048	2	1	27	0	2	4525
1	4048	2	1	28	0	2	5365
1	4048	2	1	29	0	3	3667
1	4048	2	1	30	0	2	2205
1	4049	0	0	0	0	0	0
1	4049	1	1	1	22	0	0
1	4049	1	1	2	12	3	1027
1	4049	1	1	3	47	2	1284
1	4049	1	1	4	38	3	1605
1	4049	1	1	5	17	2	1519
1	4049	1	1	6	5	1	1649
1	4049	1	1	7	29	3	1975
1	4049	1	1	8	35	1	1128
1	4049	0	0	0	0	0	0
1	4049	1	2	1	45	3	1089
1	4049	1	2	2	9	3	1202
1	4049	1	2	3	33	3	1169
1	4049	1	2	4	3	3	1238
1	4049	1	2	5	21	2	1288
1	4049	1	2	6	28	1	1381
1	4049	1	2	7	13	3	1206
1	4049	1	2	8	40	1	1464
1	4049	0	0	0	0	0	0
1	4049	1	3	1	43	3	1260
1	4049	1	3	2	26	3	1105
1	4049	1	3	3	41	1	1088
1	4049	1	3	4	34	2	1285
1	4049	1	3	5	4	2	1111
1	4049	1	3	6	10	3	1177
1	4049	1	3	7	18	1	1281
1	4049	1	3	8	24	3	1343
1	4049	0	0	0	0	0	0
1	4049	1	4	1	37	3	1676
1	4049	1	4	2	11	1	1093
1	4049	1	4	3	46	3	1402
1	4049	1	4	4	31	3	1076
1	4049	1	4	5	16	2	1261
1	4049	1	4	6	2	2	1353
1	4049	1	4	7	23	2	1459
1	4049	1	4	8	25	2	1527
1	4049	0	0	0	0	0	0
1	4049	1	5	1	7	3	1406
1	4049	1	5	2	6	1	1110
1	4049	1	5	3	14	2	895
1	4049	1	5	4	44	1	1858
1	4049	1	5	5	36	2	1634
1	4049	1	5	6	27	2	1055
1	4049	1	5	7	42	1	1537
1	4049	1	5	8	19	1	1615
1	4049	0	0	0	0	0	0
1	4049	1	6	1	30	3	1485
1	4049	1	6	2	15	1	1325
1	4049	1	6	3	1	3	1390
1	4049	1	6	4	20	2	1294
1	4049	1	6	5	8	1	1212
1	4049	1	6	6	32	2	1209
1	4049	1	6	7	39	2	1549
1	4049	1	6	8	48	1	1329
1	4049	0	0	0	0	0	0
1	4049	1	7	1	31	1	1611
1	4049	1	7	2	4	3	1283
1	4049	1	7	3	42	1	1561
1	4049	1	7	4	22	2	1445
1	4049	1	7	5	28	0	0
1	4049	1	7	6	10	3	1145
1	4049	1	7	7	14	2	933
1	4049	1	7	8	43	3	1486
1	4049	0	0	0	0	0	0
1	4049	1	8	1	6	1	909
1	4049	1	8	2	27	0	0
1	4049	1	8	3	38	2	1412
1	4049	1	8	4	11	1	1715
1	4049	1	8	5	35	1	1261
1	4049	1	8	6	44	2	1285
1	4049	1	8	7	20	2	1161
1	4049	1	8	8	17	1	1018
1	4049	0	0	0	0	0	0
1	4049	1	9	1	26	3	1411
1	4049	1	9	2	9	1	1509
1	4049	1	9	3	2	2	1487
1	4049	1	9	4	34	2	1463
1	4049	1	9	5	23	3	1569
1	4049	1	9	6	37	3	1680
1	4049	1	9	7	47	3	1902
1	4049	1	9	8	16	2	1350
1	4049	0	0	0	0	0	0
1	4049	1	10	1	19	3	1572
1	4049	1	10	2	32	1	1822
1	4049	1	10	3	8	1	1143
1	4049	1	10	4	1	1	1008
1	4049	1	10	5	30	3	1938
1	4049	1	10	6	41	1	1294
1	4049	1	10	7	13	1	1351
1	4049	1	10	8	45	0	0
1	4049	0	0	0	0	0	0
1	4049	1	11	1	5	1	898
1	4049	1	11	2	15	3	982
1	4049	1	11	3	46	2	838
1	4049	1	11	4	29	3	893
1	4049	1	11	5	36	2	1287
1	4049	1	11	6	7	1	1326
1	4049	1	11	7	39	3	1323
1	4049	1	11	8	24	3	1320
1	4049	0	0	0	0	0	0
1	4049	1	12	1	48	3	1469
1	4049	1	12	2	33	2	932
1	4049	1	12	3	21	2	790
1	4049	1	12	4	12	1	1236
1	4049	1	12	5	18	1	1188
1	4049	1	12	6	40	1	1853
1	4049	1	12	7	3	3	1496
1	4049	1	12	8	25	2	1882
1	4049	2	1	1	0	3	8847
1	4049	2	1	2	0	2	3748
1	4049	2	1	3	0	2	6674
1	4049	2	1	4	0	2	9100
1	4049	2	1	5	0	1	3822
1	4049	2	1	6	0	2	2178
1	4049	2	1	7	0	3	2623
1	4049	2	1	8	0	3	3194
1	4049	2	1	9	0	3	3399
1	4049	2	1	10	0	2	3603
1	4049	2	1	11	0	1	3208
1	4049	2	1	12	0	4	2716
1	4049	2	1	13	0	3	2644
1	4049	2	1	14	0	1	2582
1	4049	2	1	15	0	2	3075
1	4049	2	1	16	0	4	4164
1	4049	2	1	17	0	2	2571
1	4049	2	1	18	0	2	2776
1	4049	2	1	19	0	1	1974
1	4049	2	1	20	0	3	3186
1	4049	2	1	21	0	1	4960
1	4049	2	1	22	0	3	3150
1	4049	2	1	23	0	1	3093
1	4049	2	1	24	0	4	2541
1	4049	2	1	25	0	2	4939
1	4049	2	1	26	0	3	3874
1	4049	2	1	27	0	2	3139
1	4049	2	1	28	0	1	6682
1	4049	2	1	29	0	2	1980
1	4049	2	1	30	0	4	2777
2	4030	0	0	0	0	0	0
2	4030	1	1	1	39	3	2177
2	4030	1	1	2	10	3	2249
2	4030	1	1	3	2	2	4896
2	4030	1	1	4	32	1	495
2	4030	1	1	5	13	2	60
2	4030	1	1	6	26	3	1334
2	4030	1	1	7	23	3	383
2	4030	1	1	8	45	1	1956
2	4030	0	0	0	0	0	0
2	4030	1	2	1	8	1	1434
2	4030	1	2	2	44	3	983
2	4030	1	2	3	3	2	418
2	4030	1	2	4	21	1	331
2	4030	1	2	5	40	2	908
2	4030	1	2	6	16	2	758
2	4030	1	2	7	29	3	1090
2	4030	1	2	8	36	3	402
2	4030	0	0	0	0	0	0
2	4030	1	3	1	18	1	846
2	4030	1	3	2	1	2	822
2	4030	1	3	3	41	1	571
2	4030	1	3	4	22	1	843
2	4030	1	3	5	12	3	498
2	4030	1	3	6	28	3	3948
2	4030	1	3	7	31	1	1008
2	4030	1	3	8	47	2	852
2	4030	0	0	0	0	0	0
2	4030	1	4	1	11	2	4676
2	4030	1	4	2	4	3	1832
2	4030	1	4	3	25	2	884
2	4030	1	4	4	15	3	1526
2	4030	1	4	5	24	2	2721
2	4030	1	4	6	43	2	627
2	4030	1	4	7	33	2	965
2	4030	1	4	8	42	1	367
2	4030	0	0	0	0	0	0
2	4030	1	5	1	20	3	515
2	4030	1	5	2	5	3	1568
2	4030	1	5	3	46	1	1768
2	4030	1	5	4	37	3	946
2	4030	1	5	5	9	1	1675
2	4030	1	5	6	30	2	456
2	4030	1	5	7	14	2	951
2	4030	1	5	8	35	2	970
2	4030	0	0	0	0	0	0
2	4030	1	6	1	6	3	1112
2	4030	1	6	2	34	3	773
2	4030	1	6	3	7	1	773
2	4030	1	6	4	17	2	1698
2	4030	1	6	5	27	1	1086
2	4030	1	6	6	38	2	1207
2	4030	1	6	7	19	2	1219
2	4030	1	6	8	48	2	1118
2	4030	0	0	0	0	0	0
2	4030	1	7	1	28	1	2365
2	4030	1	7	2	32	1	968
2	4030	1	7	3	15	3	1732
2	4030	1	7	4	3	1	1402
2	4030	1	7	5	41	1	1385
2	4030	1	7	6	23	3	2233
2	4030	1	7	7	43	3	1812
2	4030	1	7	8	11	2	887
2	4030	0	0	0	0	0	0
2	4030	1	8	1	5	2	2705
2	4030	1	8	2	10	3	1113
2	4030	1	8	3	36	3	1057
2	4030	1	8	4	17	3	2933
2	4030	1	8	5	37	3	879
2	4030	1	8	6	26	3	702
2	4030	1	8	7	21	1	3800
2	4030	1	8	8	48	1	974
2	4030	0	0	0	0	0	0
2	4030	1	9	1	8	1	2805
2	4030	1	9	2	16	1	914
2	4030	1	9	3	46	1	2198
2	4030	1	9	4	20	3	1306
2	4030	1	9	5	39	3	796
2	4030	1	9	6	4	3	1712
2	4030	1	9	7	27	1	832
2	4030	1	9	8	34	1	963
2	4030	0	0	0	0	0	0
2	4030	1	10	1	18	2	1304
2	4030	1	10	2	12	2	1190
2	4030	1	10	3	6	3	1635
2	4030	1	10	4	35	2	1366
2	4030	1	10	5	19	2	1728
2	4030	1	10	6	25	2	1559
2	4030	1	10	7	40	2	1095
2	4030	1	10	8	45	1	1254
2	4030	0	0	0	0	0	0
2	4030	1	11	1	29	3	1021
2	4030	1	11	2	9	2	940
2	4030	1	11	3	33	2	935
2	4030	1	11	4	24	3	953
2	4030	1	11	5	42	1	757
2	4030	1	11	6	2	2	980
2	4030	1	11	7	13	3	1609
2	4030	1	11	8	44	3	1392
2	4030	0	0	0	0	0	0
2	4030	1	12	1	7	1	2189
2	4030	1	12	2	31	1	862
2	4030	1	12	3	14	2	684
