subj	cond	cb	keyb	phase	blk	trial	stim	resp	rt	conf	confrt7101	1	1	1	1	1	1	7	0	4142	0	07101	1	1	1	1	1	2	2	0	2470	0	07101	1	1	1	1	1	3	5	1	1127	0	07101	1	1	1	1	1	4	4	1	521	0	07101	1	1	1	1	1	5	3	1	2294	0	07101	1	1	1	1	1	6	6	1	982	0	07101	1	1	1	1	1	7	8	1	742	0	07101	1	1	1	1	1	8	1	1	829	0	07101	1	1	1	1	2	9	2	1	1106	0	07101	1	1	1	1	2	10	1	0	549	0	07101	1	1	1	1	2	11	5	0	1081	0	07101	1	1	1	1	2	12	7	0	1078	0	07101	1	1	1	1	2	13	4	1	363	0	07101	1	1	1	1	2	14	8	1	670	0	07101	1	1	1	1	2	15	6	0	245	0	07101	1	1	1	1	2	16	3	1	261	0	07101	1	1	1	1	3	17	2	0	1445	0	07101	1	1	1	1	3	18	8	1	410	0	07101	1	1	1	1	3	19	3	1	308	0	07101	1	1	1	1	3	20	6	1	522	0	07101	1	1	1	1	3	21	7	1	670	0	07101	1	1	1	1	3	22	1	1	557	0	07101	1	1	1	1	3	23	4	1	560	0	07101	1	1	1	1	3	24	5	1	539	0	07101	1	1	1	2	1	1	6	0	867	0	07101	1	1	1	2	1	2	13	0	586	0	07101	1	1	1	2	1	3	11	0	517	0	07101	1	1	1	2	1	4	8	0	635	0	07101	1	1	1	2	1	5	4	1	508	0	07101	1	1	1	2	1	6	1	1	291	0	07101	1	1	1	2	1	7	7	0	323	0	07101	1	1	1	2	1	8	3	1	313	0	07101	1	1	1	2	1	9	12	1	255	0	07101	1	1	1	2	1	10	10	1	665	0	07101	1	1	1	2	1	11	2	1	392	0	07101	1	1	1	2	1	12	5	0	292	0	07101	1	1	1	2	1	13	14	1	300	0	07101	1	1	1	2	1	14	16	1	235	0	07101	1	1	1	2	1	15	15	0	309	0	07101	1	1	1	2	1	16	9	0	261	0	07101	1	1	1	2	2	17	12	1	254	0	07101	1	1	1	2	2	18	6	0	295	0	07101	1	1	1	2	2	19	2	1	505	0	07101	1	1	1	2	2	20	11	0	278	0	07101	1	1	1	2	2	21	13	0	422	0	07101	1	1	1	2	2	22	10	1	384	0	07101	1	1	1	2	2	23	1	1	300	0	07101	1	1	1	2	2	24	5	0	290	0	07101	1	1	1	2	2	25	16	1	402	0	07101	1	1	1	2	2	26	3	1	277	0	07101	1	1	1	2	2	27	8	0	398	0	07101	1	1	1	2	2	28	14	1	273	0	07101	1	1	1	2	2	29	15	0	153	0	07101	1	1	1	2	2	30	9	0	303	0	07101	1	1	1	2	2	31	7	0	838	0	07101	1	1	1	2	2	32	4	1	287	0	07101	1	1	1	2	3	33	2	1	687	0	07101	1	1	1	2	3	34	16	1	269	0	07101	1	1	1	2	3	35	9	0	502	0	07101	1	1	1	2	3	36	13	0	1965	0	07101	1	1	1	2	3	37	15	0	4572	0	07101	1	1	1	2	3	38	8	0	380	0	07101	1	1	1	2	3	39	4	1	312	0	07101	1	1	1	2	3	40	10	1	271	0	07101	1	1	1	2	3	41	6	0	328	0	07101	1	1	1	2	3	42	5	0	270	0	07101	1	1	1	2	3	43	12	1	295	0	07101	1	1	1	2	3	44	11	0	327	0	07101	1	1	1	2	3	45	1	1	446	0	07101	1	1	1	2	3	46	3	1	367	0	07101	1	1	1	2	3	47	14	1	467	0	07101	1	1	1	2	3	48	7	0	363	0	07101	1	1	1	2	4	49	5	0	305	0	07101	1	1	1	2	4	50	14	1	488	0	07101	1	1	1	2	4	51	13	0	550	0	07101	1	1	1	2	4	52	1	1	267	0	07101	1	1	1	2	4	53	7	0	314	0	07101	1	1	1	2	4	54	9	0	296	0	07101	1	1	1	2	4	55	10	1	306	0	07101	1	1	1	2	4	56	15	0	281	0	07101	1	1	1	2	4	57	6	0	457	0	07101	1	1	1	2	4	58	12	1	266	0	07101	1	1	1	2	4	59	4	1	994	0	07101	1	1	1	2	4	60	11	0	356	0	07101	1	1	1	2	4	61	2	1	297	0	07101	1	1	1	2	4	62	16	1	328	0	07101	1	1	1	2	4	63	8	0	327	0	07101	1	1	1	2	4	64	3	1	325	0	07101	1	1	1	2	5	65	4	1	323	0	07101	1	1	1	2	5	66	1	1	322	0	07101	1	1	1	2	5	67	11	0	240	0	07101	1	1	1	2	5	68	10	1	274	0	07101	1	1	1	2	5	69	8	0	283	0	07101	1	1	1	2	5	70	3	1	275	0	07101	1	1	1	2	5	71	16	1	355	0	07101	1	1	1	2	5	72	2	1	800	0	07101	1	1	1	2	5	73	15	0	330	0	07101	1	1	1	2	5	74	9	0	312	0	07101	1	1	1	2	5	75	6	0	1111	0	07101	1	1	1	2	5	76	12	1	340	0	07101	1	1	1	2	5	77	5	0	290	0	07101	1	1	1	2	5	78	13	0	369	0	07101	1	1	1	2	5	79	14	1	325	0	07101	1	1	1	2	5	80	7	0	348	0	07101	1	1	1	2	6	81	13	0	257	0	07101	1	1	1	2	6	82	3	1	274	0	07101	1	1	1	2	6	83	14	1	307	0	07101	1	1	1	2	6	84	16	1	258	0	07101	1	1	1	2	6	85	4	1	979	0	07101	1	1	1	2	6	86	11	0	478	0	07101	1	1	1	2	6	87	1	1	542	0	07101	1	1	1	2	6	88	2	1	331	0	07101	1	1	1	2	6	89	10	1	897	0	07101	1	1	1	2	6	90	6	0	391	0	07101	1	1	1	2	6	91	5	0	443	0	07101	1	1	1	2	6	92	12	1	323	0	07101	1	1	1	2	6	93	7	0	282	0	07101	1	1	1	2	6	94	9	0	346	0	07101	1	1	1	2	6	95	15	0	288	0	07101	1	1	1	2	6	96	8	0	487	0	07101	1	1	1	2	7	97	9	0	407	0	07101	1	1	1	2	7	98	8	0	314	0	07101	1	1	1	2	7	99	6	0	248	0	07101	1	1	1	2	7	100	2	1	242	0	07101	1	1	1	2	7	101	14	1	404	0	07101	1	1	1	2	7	102	10	1	263	0	07101	1	1	1	2	7	103	12	1	1455	0	07101	1	1	1	2	7	104	7	0	301	0	07101	1	1	1	2	7	105	16	1	468	0	07101	1	1	1	2	7	106	11	0	227	0	07101	1	1	1	2	7	107	13	0	358	0	07101	1	1	1	2	7	108	5	0	475	0	07101	1	1	1	2	7	109	1	1	283	0	07101	1	1	1	2	7	110	3	1	243	0	07101	1	1	1	2	7	111	4	1	245	0	07101	1	1	1	2	7	112	15	0	311	0	07101	1	1	1	2	8	113	16	1	255	0	07101	1	1	1	2	8	114	9	0	320	0	07101	1	1	1	2	8	115	12	1	383	0	07101	1	1	1	2	8	116	5	0	378	0	07101	1	1	1	2	8	117	7	0	399	0	07101	1	1	1	2	8	118	13	0	530	0	07101	1	1	1	2	8	119	11	0	615	0	07101	1	1	1	2	8	120	8	0	369	0	07101	1	1	1	2	8	121	10	1	252	0	07101	1	1	1	2	8	122	3	1	1862	0	07101	1	1	1	2	8	123	6	0	890	0	07101	1	1	1	2	8	124	4	1	296	0	07101	1	1	1	2	8	125	1	1	371	0	07101	1	1	1	2	8	126	15	0	268	0	07101	1	1	1	2	8	127	2	1	293	0	07101	1	1	1	2	8	128	14	1	293	0	07103	1	3	1	1	1	1	5	0	4496	0	07103	1	3	1	1	1	2	2	0	1730	0	07103	1	3	1	1	1	3	6	1	995	0	07103	1	3	1	1	1	4	4	0	2283	0	07103	1	3	1	1	1	5	7	1	325	0	07103	1	3	1	1	1	6	8	0	850	0	07103	1	3	1	1	1	7	1	1	1232	0	07103	1	3	1	1	1	8	3	1	261	0	07103	1	3	1	1	2	9	5	1	685	0	07103	1	3	1	1	2	10	6	1	667	0	07103	1	3	1	1	2	11	8	0	338	0	07103	1	3	1	1	2	12	1	1	2584	0	07103	1	3	1	1	2	13	2	1	716	0	07103	1	3	1	1	2	14	7	1	105	0	07103	1	3	1	1	2	15	4	1	134	0	07103	1	3	1	1	2	16	3	1	419	0	07103	1	3	1	1	3	17	2	1	919	0	07103	1	3	1	1	3	18	4	1	278	0	07103	1	3	1	1	3	19	6	1	367	0	07103	1	3	1	1	3	20	8	1	609	0	07103	1	3	1	1	3	21	5	1	354	0	07103	1	3	1	1	3	22	1	1	438	0	07103	1	3	1	1	3	23	7	1	750	0	07103	1	3	1	1	3	24	3	1	648	0	07103	1	3	1	2	1	1	11	0	395	0	07103	1	3	1	2	1	2	2	1	1708	0	07103	1	3	1	2	1	3	7	0	311	0	07103	1	3	1	2	1	4	13	0	839	0	07103	1	3	1	2	1	5	16	1	458	0	07103	1	3	1	2	1	6	8	0	1207	0	07103	1	3	1	2	1	7	12	1	273	0	07103	1	3	1	2	1	8	1	1	296	0	07103	1	3	1	2	1	9	3	1	402	0	07103	1	3	1	2	1	10	14	1	523	0	07103	1	3	1	2	1	11	6	0	612	0	07103	1	3	1	2	1	12	9	0	91	0	07103	1	3	1	2	1	13	10	1	283	0	07103	1	3	1	2	1	14	5	0	227	0	07103	1	3	1	2	1	15	15	0	862	0	07103	1	3	1	2	1	16	4	1	317	0	07103	1	3	1	2	2	17	3	1	1535	0	07103	1	3	1	2	2	18	15	0	438	0	07103	1	3	1	2	2	19	14	1	608	0	07103	1	3	1	2	2	20	4	1	330	0	07103	1	3	1	2	2	21	5	0	296	0	07103	1	3	1	2	2	22	8	0	436	0	07103	1	3	1	2	2	23	9	0	410	0	07103	1	3	1	2	2	24	10	1	486	0	07103	1	3	1	2	2	25	16	1	462	0	07103	1	3	1	2	2	26	12	1	484	0	07103	1	3	1	2	2	27	11	0	251	0	07103	1	3	1	2	2	28	2	1	390	0	07103	1	3	1	2	2	29	6	0	626	0	07103	1	3	1	2	2	30	1	1	242	0	07103	1	3	1	2	2	31	7	0	301	0	07103	1	3	1	2	2	32	13	0	402	0	07103	1	3	1	2	3	33	10	1	271	0	07103	1	3	1	2	3	34	15	0	573	0	07103	1	3	1	2	3	35	4	1	393	0	07103	1	3	1	2	3	36	1	1	357	0	07103	1	3	1	2	3	37	13	0	234	0	07103	1	3	1	2	3	38	8	0	200	0	07103	1	3	1	2	3	39	14	1	633	0	07103	1	3	1	2	3	40	12	1	624	0	07103	1	3	1	2	3	41	11	0	474	0	07103	1	3	1	2	3	42	5	0	258	0	07103	1	3	1	2	3	43	3	1	643	0	07103	1	3	1	2	3	44	2	1	598	0	07103	1	3	1	2	3	45	9	0	623	0	07103	1	3	1	2	3	46	6	0	225	0	07103	1	3	1	2	3	47	16	1	299	0	07103	1	3	1	2	3	48	7	0	235	0	07103	1	3	1	2	4	49	12	1	246	0	07103	1	3	1	2	4	50	13	0	215	0	07103	1	3	1	2	4	51	14	1	213	0	07103	1	3	1	2	4	52	7	0	53	0	07103	1	3	1	2	4	53	2	1	529	0	07103	1	3	1	2	4	54	5	0	237	0	07103	1	3	1	2	4	55	11	0	638	0	07103	1	3	1	2	4	56	4	1	450	0	07103	1	3	1	2	4	57	15	0	298	0	07103	1	3	1	2	4	58	6	0	223	0	07103	1	3	1	2	4	59	9	0	206	0	07103	1	3	1	2	4	60	8	0	477	0	07103	1	3	1	2	4	61	3	1	495	0	07103	1	3	1	2	4	62	16	1	445	0	07103	1	3	1	2	4	63	1	1	247	0	07103	1	3	1	2	4	64	10	1	319	0	07103	1	3	1	2	5	65	4	1	288	0	07103	1	3	1	2	5	66	3	1	336	0	07103	1	3	1	2	5	67	2	1	244	0	07103	1	3	1	2	5	68	16	1	454	0	07103	1	3	1	2	5	69	14	1	201	0	07103	1	3	1	2	5	70	9	0	362	0	07103	1	3	1	2	5	71	11	0	247	0	07103	1	3	1	2	5	72	8	0	337	0	07103	1	3	1	2	5	73	7	0	366	0	07103	1	3	1	2	5	74	5	0	229	0	07103	1	3	1	2	5	75	13	0	232	0	07103	1	3	1	2	5	76	10	1	215	0	07103	1	3	1	2	5	77	6	0	305	0	07103	1	3	1	2	5	78	1	1	488	0	07103	1	3	1	2	5	79	12	1	220	0	07103	1	3	1	2	5	80	15	0	284	0	07103	1	3	1	2	6	81	13	0	282	0	07103	1	3	1	2	6	82	4	1	562	0	07103	1	3	1	2	6	83	2	1	255	0	07103	1	3	1	2	6	84	15	0	2162	0	07103	1	3	1	2	6	85	6	0	392	0	07103	1	3	1	2	6	86	3	1	443	0	07103	1	3	1	2	6	87	11	0	553	0	07103	1	3	1	2	6	88	16	1	425	0	07103	1	3	1	2	6	89	14	1	310	0	07103	1	3	1	2	6	90	5	0	446	0	07103	1	3	1	2	6	91	9	0	263	0	07103	1	3	1	2	6	92	8	0	206	0	07103	1	3	1	2	6	93	10	1	232	0	07103	1	3	1	2	6	94	1	1	202	0	07103	1	3	1	2	6	95	12	1	1015	0	07103	1	3	1	2	6	96	7	0	1247	0	07103	1	3	1	2	7	97	11	0	228	0	07103	1	3	1	2	7	98	6	0	248	0	07103	1	3	1	2	7	99	12	1	208	0	07103	1	3	1	2	7	100	14	1	1118	0	07103	1	3	1	2	7	101	9	0	232	0	07103	1	3	1	2	7	102	2	1	365	0	07103	1	3	1	2	7	103	3	1	830	0	07103	1	3	1	2	7	104	10	1	268	0	07103	1	3	1	2	7	105	15	0	268	0	07103	1	3	1	2	7	106	4	1	410	0	07103	1	3	1	2	7	107	16	1	235	0	07103	1	3	1	2	7	108	8	0	208	0	07103	1	3	1	2	7	109	13	0	346	0	07103	1	3	1	2	7	110	1	1	498	0	07103	1	3	1	2	7	111	5	0	325	0	07103	1	3	1	2	7	112	7	0	228	0	07103	1	3	1	2	8	113	10	1	287	0	07103	1	3	1	2	8	114	5	0	359	0	07103	1	3	1	2	8	115	7	0	348	0	07103	1	3	1	2	8	116	2	1	225	0	07103	1	3	1	2	8	117	15	0	636	0	07103	1	3	1	2	8	118	13	0	723	0	07103	1	3	1	2	8	119	11	0	505	0	07103	1	3	1	2	8	120	8	0	207	0	07103	1	3	1	2	8	121	3	1	174	0	07103	1	3	1	2	8	122	9	0	234	0	07103	1	3	1	2	8	123	14	1	325	0	07103	1	3	1	2	8	124	12	1	304	0	07103	1	3	1	2	8	125	1	1	305	0	07103	1	3	1	2	8	126	4	1	264	0	07103	1	3	1	2	8	127	6	0	215	0	07103	1	3	1	2	8	128	16	1	282	0	07105	1	5	1	1	1	1	3	0	9187	0	07105	1	5	1	1	1	2	5	0	2900	0	07105	1	5	1	1	1	3	2	1	3083	0	07105	1	5	1	1	1	4	4	1	2906	0	07105	1	5	1	1	1	5	7	0	1960	0	07105	1	5	1	1	1	6	8	0	2711	0	07105	1	5	1	1	1	7	6	1	2278	0	07105	1	5	1	1	1	8	1	1	7	0	07105	1	5	1	1	2	9	7	1	1218	0	07105	1	5	1	1	2	10	4	1	311	0	07105	1	5	1	1	2	11	8	0	933	0	07105	1	5	1	1	2	12	1	1	72	0	07105	1	5	1	1	2	13	3	1	1176	0	07105	1	5	1	1	2	14	6	1	121	0	07105	1	5	1	1	2	15	2	1	247	0	07105	1	5	1	1	2	16	5	1	655	0	07105	1	5	1	1	3	17	4	0	790	0	07105	1	5	1	1	3	18	6	1	1047	0	07105	1	5	1	1	3	19	3	1	389	0	07105	1	5	1	1	3	20	2	1	487	0	07105	1	5	1	1	3	21	8	1	2109	0	07105	1	5	1	1	3	22	1	1	429	0	07105	1	5	1	1	3	23	5	1	717	0	07105	1	5	1	1	3	24	7	1	433	0	07105	1	5	1	2	1	1	14	0	2165	0	07105	1	5	1	2	1	2	5	1	2276	0	07105	1	5	1	2	1	3	11	1	3503	0	07105	1	5	1	2	1	4	4	1	780	0	07105	1	5	1	2	1	5	2	1	503	0	07105	1	5	1	2	1	6	10	0	422	0	07105	1	5	1	2	1	7	16	0	1832	0	07105	1	5	1	2	1	8	6	0	494	0	07105	1	5	1	2	1	9	12	1	445	0	07105	1	5	1	2	1	10	15	1	87	0	07105	1	5	1	2	1	11	7	0	1711	0	07105	1	5	1	2	1	12	9	1	626	0	07105	1	5	1	2	1	13	13	1	484	0	07105	1	5	1	2	1	14	3	1	1083	0	07105	1	5	1	2	1	15	1	1	769	0	07105	1	5	1	2	1	16	8	0	396	0	07105	1	5	1	2	2	17	10	0	832	0	07105	1	5	1	2	2	18	8	1	1560	0	07105	1	5	1	2	2	19	13	1	1353	0	07105	1	5	1	2	2	20	16	0	2058	0	07105	1	5	1	2	2	21	7	0	446	0	07105	1	5	1	2	2	22	6	1	1232	0	07105	1	5	1	2	2	23	3	0	1448	0	07105	1	5	1	2	2	24	11	0	1518	0	07105	1	5	1	2	2	25	2	1	625	0	07105	1	5	1	2	2	26	14	1	467	0	07105	1	5	1	2	2	27	1	1	883	0	07105	1	5	1	2	2	28	12	1	1833	0	07105	1	5	1	2	2	29	15	1	4879	0	07105	1	5	1	2	2	30	5	0	682	0	07105	1	5	1	2	2	31	4	1	584	0	07105	1	5	1	2	2	32	9	1	1899	0	07105	1	5	1	2	3	33	2	1	566	0	07105	1	5	1	2	3	34	9	1	4145	0	07105	1	5	1	2	3	35	16	0	940	0	07105	1	5	1	2	3	36	1	1	496	0	07105	1	5	1	2	3	37	12	1	1791	0	07105	1	5	1	2	3	38	11	0	502	0	07105	1	5	1	2	3	39	8	0	389	0	07105	1	5	1	2	3	40	3	1	177	0	07105	1	5	1	2	3	41	15	0	382	0	07105	1	5	1	2	3	42	5	0	137	0	07105	1	5	1	2	3	43	6	0	944	0	07105	1	5	1	2	3	44	4	1	443	0	07105	1	5	1	2	3	45	14	1	1789	0	07105	1	5	1	2	3	46	10	1	572	0	07105	1	5	1	2	3	47	7	0	992	0	07105	1	5	1	2	3	48	13	1	410	0	07105	1	5	1	2	4	49	14	0	1589	0	07105	1	5	1	2	4	50	8	0	1308	0	07105	1	5	1	2	4	51	6	1	2480	0	07105	1	5	1	2	4	52	1	1	658	0	07105	1	5	1	2	4	53	2	1	1282	0	07105	1	5	1	2	4	54	7	0	624	0	07105	1	5	1	2	4	55	3	1	474	0	07105	1	5	1	2	4	56	4	1	562	0	07105	1	5	1	2	4	57	13	0	582	0	07105	1	5	1	2	4	58	10	1	449	0	07105	1	5	1	2	4	59	11	0	1714	0	07105	1	5	1	2	4	60	5	0	653	0	07105	1	5	1	2	4	61	15	0	845	0	07105	1	5	1	2	4	62	16	0	1877	0	07105	1	5	1	2	4	63	9	0	1889	0	07105	1	5	1	2	4	64	12	1	1019	0	07105	1	5	1	2	5	65	5	0	469	0	07105	1	5	1	2	5	66	15	0	428	0	07105	1	5	1	2	5	67	8	0	693	0	07105	1	5	1	2	5	68	3	1	948	0	07105	1	5	1	2	5	69	16	1	680	0	07105	1	5	1	2	5	70	13	0	615	0	07105	1	5	1	2	5	71	7	0	649	0	07105	1	5	1	2	5	72	11	0	553	0	07105	1	5	1	2	5	73	14	1	518	0	07105	1	5	1	2	5	74	1	0	2307	0	07105	1	5	1	2	5	75	12	1	2549	0	07105	1	5	1	2	5	76	2	1	628	0	07105	1	5	1	2	5	77	6	0	837	0	07105	1	5	1	2	5	78	9	1	1142	0	07105	1	5	1	2	5	79	10	1	704	0	07105	1	5	1	2	5	80	4	1	2286	0	07105	1	5	1	2	6	81	10	0	3472	0	07105	1	5	1	2	6	82	2	1	359	0	07105	1	5	1	2	6	83	16	1	628	0	07105	1	5	1	2	6	84	5	0	526	0	07105	1	5	1	2	6	85	14	1	1156	0	07105	1	5	1	2	6	86	7	0	1518	0	07105	1	5	1	2	6	87	3	1	681	0	07105	1	5	1	2	6	88	15	0	2272	0	07105	1	5	1	2	6	89	8	0	490	0	07105	1	5	1	2	6	90	9	1	810	0	07105	1	5	1	2	6	91	12	1	3243	0	07105	1	5	1	2	6	92	11	0	3085	0	07105	1	5	1	2	6	93	6	0	381	0	07105	1	5	1	2	6	94	4	1	1668	0	07105	1	5	1	2	6	95	1	1	428	0	07105	1	5	1	2	6	96	13	1	1133	0	07105	1	5	1	2	7	97	4	1	641	0	07105	1	5	1	2	7	98	2	1	3106	0	07105	1	5	1	2	7	99	13	0	640	0	07105	1	5	1	2	7	100	16	1	353	0	07105	1	5	1	2	7	101	12	1	790	0	07105	1	5	1	2	7	102	1	1	3497	0	07105	1	5	1	2	7	103	7	1	4927	0	07105	1	5	1	2	7	104	3	1	416	0	07105	1	5	1	2	7	105	15	1	786	0	07105	1	5	1	2	7	106	14	1	500	0	07105	1	5	1	2	7	107	11	0	914	0	07105	1	5	1	2	7	108	5	0	407	0	07105	1	5	1	2	7	109	9	0	418	0	07105	1	5	1	2	7	110	6	0	485	0	07105	1	5	1	2	7	111	10	1	508	0	07105	1	5	1	2	7	112	8	0	818	0	07105	1	5	1	2	8	113	1	0	979	0	07105	1	5	1	2	8	114	4	1	381	0	07105	1	5	1	2	8	115	3	1	489	0	07105	1	5	1	2	8	116	7	1	1480	0	07105	1	5	1	2	8	117	16	1	629	0	07105	1	5	1	2	8	118	11	0	1215	0	07105	1	5	1	2	8	119	10	1	903	0	07105	1	5	1	2	8	120	14	0	1333	0	07105	1	5	1	2	8	121	9	1	640	0	07105	1	5	1	2	8	122	8	0	1097	0	07105	1	5	1	2	8	123	6	0	414	0	07105	1	5	1	2	8	124	12	1	312	0	07105	1	5	1	2	8	125	15	0	407	0	07105	1	5	1	2	8	126	13	0	610	0	07105	1	5	1	2	8	127	2	1	460	0	07105	1	5	1	2	8	128	5	0	444	0	07107	1	7	1	1	1	1	3	1	4005	0	07107	1	7	1	1	1	2	4	0	1828	0	07107	1	7	1	1	1	3	8	1	2921	0	07107	1	7	1	1	1	4	5	1	1519	0	07107	1	7	1	1	1	5	2	1	70	0	07107	1	7	1	1	1	6	1	1	2160	0	07107	1	7	1	1	1	7	7	1	951	0	07107	1	7	1	1	1	8	6	0	5696	0	07107	1	7	1	1	2	9	2	0	1567	0	07107	1	7	1	1	2	10	4	0	2567	0	07107	1	7	1	1	2	11	6	1	459	0	07107	1	7	1	1	2	12	5	0	819	0	07107	1	7	1	1	2	13	1	1	1891	0	07107	1	7	1	1	2	14	8	1	2949	0	07107	1	7	1	1	2	15	3	1	1825	0	07107	1	7	1	1	2	16	7	1	102	0	07107	1	7	1	1	3	17	1	1	3133	0	07107	1	7	1	1	3	18	2	1	833	0	07107	1	7	1	1	3	19	6	0	200	0	07107	1	7	1	1	3	20	8	1	434	0	07107	1	7	1	1	3	21	7	1	147	0	07107	1	7	1	1	3	22	3	1	4295	0	07107	1	7	1	1	3	23	4	1	314	0	07107	1	7	1	1	3	24	5	1	503	0	07107	1	7	1	2	1	1	5	1	4402	0	07107	1	7	1	2	1	2	11	0	1077	0	07107	1	7	1	2	1	3	10	0	1759	0	07107	1	7	1	2	1	4	3	1	5104	0	07107	1	7	1	2	1	5	13	1	3626	0	07107	1	7	1	2	1	6	8	1	9138	0	07107	1	7	1	2	1	7	1	0	1351	0	07107	1	7	1	2	1	8	4	1	2737	0	07107	1	7	1	2	1	9	2	1	723	0	07107	1	7	1	2	1	10	12	1	278	0	07107	1	7	1	2	1	11	6	0	446	0	07107	1	7	1	2	1	12	14	0	744	0	07107	1	7	1	2	1	13	9	1	284	0	07107	1	7	1	2	1	14	15	0	4820	0	07107	1	7	1	2	1	15	16	1	3274	0	07107	1	7	1	2	1	16	7	0	2977	0	07107	1	7	1	2	2	17	9	1	2438	0	07107	1	7	1	2	2	18	10	1	6450	0	07107	1	7	1	2	2	19	8	1	2858	0	07107	1	7	1	2	2	20	1	1	1115	0	07107	1	7	1	2	2	21	11	1	689	0	07107	1	7	1	2	2	22	4	0	7695	0	07107	1	7	1	2	2	23	12	0	1585	0	07107	1	7	1	2	2	24	5	0	372	0	07107	1	7	1	2	2	25	13	1	2552	0	07107	1	7	1	2	2	26	2	1	397	0	07107	1	7	1	2	2	27	3	0	5529	0	07107	1	7	1	2	2	28	16	0	3476	0	07107	1	7	1	2	2	29	7	1	575	0	07107	1	7	1	2	2	30	14	0	3602	0	07107	1	7	1	2	2	31	6	1	3795	0	07107	1	7	1	2	2	32	15	1	2886	0	07107	1	7	1	2	3	33	7	1	1815	0	07107	1	7	1	2	3	34	14	0	1693	0	07107	1	7	1	2	3	35	15	1	4769	0	07107	1	7	1	2	3	36	6	0	2425	0	07107	1	7	1	2	3	37	1	1	396	0	07107	1	7	1	2	3	38	13	1	1152	0	07107	1	7	1	2	3	39	10	0	1938	0	07107	1	7	1	2	3	40	12	1	1444	0	07107	1	7	1	2	3	41	8	1	338	0	07107	1	7	1	2	3	42	4	1	952	0	07107	1	7	1	2	3	43	3	1	2355	0	07107	1	7	1	2	3	44	2	1	2434	0	07107	1	7	1	2	3	45	11	1	598	0	07107	1	7	1	2	3	46	9	1	2537	0	07107	1	7	1	2	3	47	5	0	2328	0	07107	1	7	1	2	3	48	16	0	641	0	07107	1	7	1	2	4	49	4	0	2266	0	07107	1	7	1	2	4	50	6	1	2324	0	07107	1	7	1	2	4	51	13	1	3591	0	07107	1	7	1	2	4	52	9	1	4929	0	07107	1	7	1	2	4	53	7	1	3002	0	07107	1	7	1	2	4	54	12	0	2437	0	07107	1	7	1	2	4	55	16	0	1264	0	07107	1	7	1	2	4	56	5	0	1487	0	07107	1	7	1	2	4	57	1	1	443	0	07107	1	7	1	2	4	58	8	1	733	0	07107	1	7	1	2	4	59	11	1	1170	0	07107	1	7	1	2	4	60	2	0	1468	0	07107	1	7	1	2	4	61	15	1	82	0	07107	1	7	1	2	4	62	3	0	1202	0	07107	1	7	1	2	4	63	14	0	3939	0	07107	1	7	1	2	4	64	10	0	366	0	07107	1	7	1	2	5	65	7	1	5642	0	07107	1	7	1	2	5	66	9	1	1613	0	07107	1	7	1	2	5	67	2	0	5492	0	07107	1	7	1	2	5	68	4	0	6405	0	07107	1	7	1	2	5	69	8	1	5342	0	07107	1	7	1	2	5	70	14	0	941	0	07107	1	7	1	2	5	71	12	0	1131	0	07107	1	7	1	2	5	72	15	1	453	0	07107	1	7	1	2	5	73	5	0	638	0	07107	1	7	1	2	5	74	13	1	3815	0	07107	1	7	1	2	5	75	1	0	7633	0	07107	1	7	1	2	5	76	10	0	820	0	07107	1	7	1	2	5	77	6	1	8957	0	07107	1	7	1	2	5	78	3	0	289	0	07107	1	7	1	2	5	79	16	0	1825	0	07107	1	7	1	2	5	80	11	1	767	0	07107	1	7	1	2	6	81	5	0	282	0	07107	1	7	1	2	6	82	15	1	522	0	07107	1	7	1	2	6	83	7	1	800	0	07107	1	7	1	2	6	84	12	0	3353	0	07107	1	7	1	2	6	85	1	1	2886	0	07107	1	7	1	2	6	86	16	0	1735	0	07107	1	7	1	2	6	87	13	1	8777	0	07107	1	7	1	2	6	88	8	1	813	0	07107	1	7	1	2	6	89	2	0	2711	0	07107	1	7	1	2	6	90	9	1	391	0	07107	1	7	1	2	6	91	6	1	569	0	07107	1	7	1	2	6	92	3	0	1093	0	07107	1	7	1	2	6	93	4	0	651	0	07107	1	7	1	2	6	94	10	0	1307	0	07107	1	7	1	2	6	95	14	1	455	0	07107	1	7	1	2	6	96	11	1	14256	0	07107	1	7	1	2	7	97	4	1	313	0	07107	1	7	1	2	7	98	3	1	840	0	07107	1	7	1	2	7	99	11	1	168	0	07107	1	7	1	2	7	100	12	0	397	0	07107	1	7	1	2	7	101	2	0	396	0	07107	1	7	1	2	7	102	10	0	2663	0	07107	1	7	1	2	7	103	1	1	391	0	07107	1	7	1	2	7	104	14	0	1242	0	07107	1	7	1	2	7	105	6	1	609	0	07107	1	7	1	2	7	106	8	0	3124	0	07107	1	7	1	2	7	107	16	0	1393	0	07107	1	7	1	2	7	108	9	1	3634	0	07107	1	7	1	2	7	109	7	1	2930	0	07107	1	7	1	2	7	110	15	1	2697	0	07107	1	7	1	2	7	111	13	1	7668	0	07107	1	7	1	2	7	112	5	0	1525	0	07107	1	7	1	2	8	113	7	1	616	0	07107	1	7	1	2	8	114	5	0	913	0	07107	1	7	1	2	8	115	13	1	5052	0	07107	1	7	1	2	8	116	16	0	4114	0	07107	1	7	1	2	8	117	6	1	2310	0	07107	1	7	1	2	8	118	8	1	199	0	07107	1	7	1	2	8	119	11	1	491	0	07107	1	7	1	2	8	120	15	1	890	0	07107	1	7	1	2	8	121	1	0	2008	0	07107	1	7	1	2	8	122	12	0	583	0	07107	1	7	1	2	8	123	10	0	2513	0	07107	1	7	1	2	8	124	3	0	4825	0	07107	1	7	1	2	8	125	2	0	3143	0	07107	1	7	1	2	8	126	9	1	2900	0	07107	1	7	1	2	8	127	4	0	5421	0	07107	1	7	1	2	8	128	14	0	713	0	07110	1	2	1	1	1	1	7	0	4023	0	07110	1	2	1	1	1	2	2	0	886	0	07110	1	2	1	1	1	3	5	0	1324	0	07110	1	2	1	1	1	4	1	1	452	0	07110	1	2	1	1	1	5	8	1	619	0	07110	1	2	1	1	1	6	3	1	611	0	07110	1	2	1	1	1	7	6	1	692	0	07110	1	2	1	1	1	8	4	1	632	0	07110	1	2	1	1	2	9	8	1	319	0	07110	1	2	1	1	2	10	5	1	268	0	07110	1	2	1	1	2	11	3	1	563	0	07110	1	2	1	1	2	12	6	0	349	0	07110	1	2	1	1	2	13	7	1	816	0	07110	1	2	1	1	2	14	4	1	320	0	07110	1	2	1	1	2	15	1	1	317	0	07110	1	2	1	1	2	16	2	0	338	0	07110	1	2	1	1	3	17	3	0	342	0	07110	1	2	1	1	3	18	2	1	394	0	07110	1	2	1	1	3	19	5	1	332	0	07110	1	2	1	1	3	20	7	1	1848	0	07110	1	2	1	1	3	21	4	1	378	0	07110	1	2	1	1	3	22	8	1	301	0	07110	1	2	1	1	3	23	6	1	307	0	07110	1	2	1	1	3	24	1	1	249	0	07110	1	2	1	2	1	1	16	0	7082	0	07110	1	2	1	2	1	2	10	0	15	0	07110	1	2	1	2	1	3	2	1	1386	0	07110	1	2	1	2	1	4	4	1	442	0	07110	1	2	1	2	1	5	1	1	260	0	07110	1	2	1	2	1	6	9	0	621	0	07110	1	2	1	2	1	7	7	0	335	0	07110	1	2	1	2	1	8	8	0	372	0	07110	1	2	1	2	1	9	5	0	297	0	07110	1	2	1	2	1	10	11	0	2432	0	07110	1	2	1	2	1	11	6	0	172	0	07110	1	2	1	2	1	12	15	0	337	0	07110	1	2	1	2	1	13	12	0	2151	0	07110	1	2	1	2	1	14	13	0	295	0	07110	1	2	1	2	1	15	3	1	4478	0	07110	1	2	1	2	1	16	14	1	3	0	07110	1	2	1	2	2	17	9	0	1478	0	07110	1	2	1	2	2	18	12	1	211	0	07110	1	2	1	2	2	19	7	0	358	0	07110	1	2	1	2	2	20	11	0	155	0	07110	1	2	1	2	2	21	1	1	312	0	07110	1	2	1	2	2	22	14	1	519	0	07110	1	2	1	2	2	23	13	0	3533	0	07110	1	2	1	2	2	24	8	0	242	0	07110	1	2	1	2	2	25	5	0	204	0	07110	1	2	1	2	2	26	6	0	350	0	07110	1	2	1	2	2	27	2	0	2372	0	07110	1	2	1	2	2	28	10	0	290	0	07110	1	2	1	2	2	29	4	1	978	0	07110	1	2	1	2	2	30	3	0	828	0	07110	1	2	1	2	2	31	15	1	277	0	07110	1	2	1	2	2	32	16	0	22	0	07110	1	2	1	2	3	33	15	0	370	0	07110	1	2	1	2	3	34	14	0	1566	0	07110	1	2	1	2	3	35	7	0	271	0	07110	1	2	1	2	3	36	2	0	295	0	07110	1	2	1	2	3	37	1	1	271	0	07110	1	2	1	2	3	38	11	0	287	0	07110	1	2	1	2	3	39	4	1	350	0	07110	1	2	1	2	3	40	8	0	315	0	07110	1	2	1	2	3	41	9	1	234	0	07110	1	2	1	2	3	42	6	0	3092	0	07110	1	2	1	2	3	43	16	0	363	0	07110	1	2	1	2	3	44	3	0	344	0	07110	1	2	1	2	3	45	10	0	302	0	07110	1	2	1	2	3	46	5	0	261	0	07110	1	2	1	2	3	47	12	0	294	0	07110	1	2	1	2	3	48	13	0	206	0	07110	1	2	1	2	4	49	4	1	450	0	07110	1	2	1	2	4	50	10	0	346	0	07110	1	2	1	2	4	51	16	0	335	0	07110	1	2	1	2	4	52	14	1	236	0	07110	1	2	1	2	4	53	9	0	278	0	07110	1	2	1	2	4	54	1	1	254	0	07110	1	2	1	2	4	55	3	1	216	0	07110	1	2	1	2	4	56	5	0	291	0	07110	1	2	1	2	4	57	13	0	2419	0	07110	1	2	1	2	4	58	6	0	1143	0	07110	1	2	1	2	4	59	2	1	290	0	07110	1	2	1	2	4	60	7	1	3650	0	07110	1	2	1	2	4	61	12	1	506	0	07110	1	2	1	2	4	62	15	1	952	0	07110	1	2	1	2	4	63	11	1	1315	0	07110	1	2	1	2	4	64	8	0	318	0	07110	1	2	1	2	5	65	6	0	357	0	07110	1	2	1	2	5	66	5	0	906	0	07110	1	2	1	2	5	67	16	0	599	0	07110	1	2	1	2	5	68	11	1	1546	0	07110	1	2	1	2	5	69	2	1	2828	0	07110	1	2	1	2	5	70	10	0	319	0	07110	1	2	1	2	5	71	7	0	1406	0	07110	1	2	1	2	5	72	1	1	317	0	07110	1	2	1	2	5	73	12	0	356	0	07110	1	2	1	2	5	74	9	1	368	0	07110	1	2	1	2	5	75	14	0	84	0	07110	1	2	1	2	5	76	8	0	317	0	07110	1	2	1	2	5	77	4	1	275	0	07110	1	2	1	2	5	78	15	1	1948	0	07110	1	2	1	2	5	79	13	0	325	0	07110	1	2	1	2	5	80	3	0	292	0	07110	1	2	1	2	6	81	12	0	1004	0	07110	1	2	1	2	6	82	10	0	365	0	07110	1	2	1	2	6	83	4	1	369	0	07110	1	2	1	2	6	84	15	0	3341	0	07110	1	2	1	2	6	85	3	1	618	0	07110	1	2	1	2	6	86	14	0	307	0	07110	1	2	1	2	6	87	13	0	402	0	07110	1	2	1	2	6	88	1	1	325	0	07110	1	2	1	2	6	89	8	0	260	0	07110	1	2	1	2	6	90	16	1	693	0	07110	1	2	1	2	6	91	6	1	4	0	07110	1	2	1	2	6	92	5	0	632	0	07110	1	2	1	2	6	93	7	0	777	0	07110	1	2	1	2	6	94	11	1	269	0	07110	1	2	1	2	6	95	9	1	1029	0	07110	1	2	1	2	6	96	2	0	733	0	07110	1	2	1	2	7	97	11	1	482	0	07110	1	2	1	2	7	98	16	1	25	0	07110	1	2	1	2	7	99	7	0	2643	0	07110	1	2	1	2	7	100	9	1	302	0	07110	1	2	1	2	7	101	3	1	149	0	07110	1	2	1	2	7	102	4	1	331	0	07110	1	2	1	2	7	103	2	1	217	0	07110	1	2	1	2	7	104	10	0	292	0	07110	1	2	1	2	7	105	6	0	420	0	07110	1	2	1	2	7	106	5	0	1350	0	07110	1	2	1	2	7	107	14	1	2064	0	07110	1	2	1	2	7	108	13	1	1996	0	07110	1	2	1	2	7	109	8	0	1738	0	07110	1	2	1	2	7	110	15	0	2587	0	07110	1	2	1	2	7	111	12	0	576	0	07110	1	2	1	2	7	112	1	1	380	0	07110	1	2	1	2	8	113	4	1	407	0	07110	1	2	1	2	8	114	12	0	1466	0	07110	1	2	1	2	8	115	10	0	2303	0	07110	1	2	1	2	8	116	2	1	312	0	07110	1	2	1	2	8	117	5	0	279	0	07110	1	2	1	2	8	118	13	0	575	0	07110	1	2	1	2	8	119	6	0	523	0	07110	1	2	1	2	8	120	11	1	473	0	07110	1	2	1	2	8	121	7	1	289	0	07110	1	2	1	2	8	122	1	1	224	0	07110	1	2	1	2	8	123	9	1	394	0	07110	1	2	1	2	8	124	15	0	101	0	07110	1	2	1	2	8	125	14	0	413	0	07110	1	2	1	2	8	126	8	0	343	0	07110	1	2	1	2	8	127	16	1	317	0	07110	1	2	1	2	8	128	3	1	708	0	07112	1	4	1	1	1	1	3	0	2493	0	07112	1	4	1	1	1	2	2	1	2461	0	07112	1	4	1	1	1	3	8	0	566	0	07112	1	4	1	1	1	4	1	1	823	0	07112	1	4	1	1	1	5	4	1	597	0	07112	1	4	1	1	1	6	7	1	463	0	07112	1	4	1	1	1	7	6	1	989	0	07112	1	4	1	1	1	8	5	1	660	0	07112	1	4	1	1	2	9	6	1	1426	0	07112	1	4	1	1	2	10	2	1	855	0	07112	1	4	1	1	2	11	5	1	716	0	07112	1	4	1	1	2	12	1	1	376	0	07112	1	4	1	1	2	13	8	1	314	0	07112	1	4	1	1	2	14	7	1	471	0	07112	1	4	1	1	2	15	3	1	917	0	07112	1	4	1	1	2	16	4	1	1184	0	07112	1	4	1	1	3	17	1	1	2655	0	07112	1	4	1	1	3	18	2	1	487	0	07112	1	4	1	1	3	19	3	1	220	0	07112	1	4	1	1	3	20	8	1	461	0	07112	1	4	1	1	3	21	4	1	1195	0	07112	1	4	1	1	3	22	5	1	827	0	07112	1	4	1	1	3	23	6	1	386	0	07112	1	4	1	1	3	24	7	1	884	0	07112	1	4	1	2	1	1	8	0	3022	0	07112	1	4	1	2	1	2	3	1	688	0	07112	1	4	1	2	1	3	1	1	711	0	07112	1	4	1	2	1	4	4	1	501	0	07112	1	4	1	2	1	5	7	0	684	0	07112	1	4	1	2	1	6	15	0	737	0	07112	1	4	1	2	1	7	6	0	710	0	07112	1	4	1	2	1	8	9	0	396	0	07112	1	4	1	2	1	9	10	1	295	0	07112	1	4	1	2	1	10	11	0	582	0	07112	1	4	1	2	1	11	16	1	313	0	07112	1	4	1	2	1	12	13	0	176	0	07112	1	4	1	2	1	13	5	0	253	0	07112	1	4	1	2	1	14	2	1	326	0	07112	1	4	1	2	1	15	14	1	725	0	07112	1	4	1	2	1	16	12	1	314	0	07112	1	4	1	2	2	17	3	1	241	0	07112	1	4	1	2	2	18	14	1	314	0	07112	1	4	1	2	2	19	13	0	336	0	07112	1	4	1	2	2	20	4	1	1742	0	07112	1	4	1	2	2	21	1	1	384	0	07112	1	4	1	2	2	22	8	0	1027	0	07112	1	4	1	2	2	23	9	0	652	0	07112	1	4	1	2	2	24	2	1	452	0	07112	1	4	1	2	2	25	12	1	861	0	07112	1	4	1	2	2	26	11	0	476	0	07112	1	4	1	2	2	27	15	0	324	0	07112	1	4	1	2	2	28	16	1	882	0	07112	1	4	1	2	2	29	6	0	888	0	07112	1	4	1	2	2	30	5	0	358	0	07112	1	4	1	2	2	31	7	0	395	0	07112	1	4	1	2	2	32	10	1	678	0	07112	1	4	1	2	3	33	6	0	261	0	07112	1	4	1	2	3	34	2	1	294	0	07112	1	4	1	2	3	35	8	0	1429	0	07112	1	4	1	2	3	36	4	1	228	0	07112	1	4	1	2	3	37	1	1	966	0	07112	1	4	1	2	3	38	15	0	385	0	07112	1	4	1	2	3	39	16	1	292	0	07112	1	4	1	2	3	40	9	0	316	0	07112	1	4	1	2	3	41	3	1	650	0	07112	1	4	1	2	3	42	11	0	354	0	07112	1	4	1	2	3	43	10	1	175	0	07112	1	4	1	2	3	44	7	0	236	0	07112	1	4	1	2	3	45	12	1	566	0	07112	1	4	1	2	3	46	14	1	1178	0	07112	1	4	1	2	3	47	5	0	684	0	07112	1	4	1	2	3	48	13	0	226	0	07112	1	4	1	2	4	49	11	0	403	0	07112	1	4	1	2	4	50	2	1	1038	0	07112	1	4	1	2	4	51	13	0	438	0	07112	1	4	1	2	4	52	7	0	312	0	07112	1	4	1	2	4	53	4	1	358	0	07112	1	4	1	2	4	54	8	0	811	0	07112	1	4	1	2	4	55	1	1	316	0	07112	1	4	1	2	4	56	14	1	227	0	07112	1	4	1	2	4	57	9	0	285	0	07112	1	4	1	2	4	58	10	1	349	0	07112	1	4	1	2	4	59	6	0	98	0	07112	1	4	1	2	4	60	3	1	393	0	07112	1	4	1	2	4	61	5	0	428	0	07112	1	4	1	2	4	62	12	1	805	0	07112	1	4	1	2	4	63	16	1	919	0	07112	1	4	1	2	4	64	15	0	348	0	07112	1	4	1	2	5	65	14	1	953	0	07112	1	4	1	2	5	66	16	1	500	0	07112	1	4	1	2	5	67	1	1	267	0	07112	1	4	1	2	5	68	5	0	268	0	07112	1	4	1	2	5	69	8	0	284	0	07112	1	4	1	2	5	70	10	1	252	0	07112	1	4	1	2	5	71	2	1	293	0	07112	1	4	1	2	5	72	15	0	284	0	07112	1	4	1	2	5	73	11	0	324	0	07112	1	4	1	2	5	74	7	0	458	0	07112	1	4	1	2	5	75	6	0	419	0	07112	1	4	1	2	5	76	9	0	437	0	07112	1	4	1	2	5	77	12	1	295	0	07112	1	4	1	2	5	78	3	1	406	0	07112	1	4	1	2	5	79	13	0	353	0	07112	1	4	1	2	5	80	4	1	654	0	07112	1	4	1	2	6	81	14	1	190	0	07112	1	4	1	2	6	82	1	1	250	0	07112	1	4	1	2	6	83	4	1	675	0	07112	1	4	1	2	6	84	16	1	378	0	07112	1	4	1	2	6	85	8	0	70	0	07112	1	4	1	2	6	86	5	0	255	0	07112	1	4	1	2	6	87	10	1	505	0	07112	1	4	1	2	6	88	7	0	223	0	07112	1	4	1	2	6	89	12	1	242	0	07112	1	4	1	2	6	90	11	0	252	0	07112	1	4	1	2	6	91	15	0	429	0	07112	1	4	1	2	6	92	13	0	303	0	07112	1	4	1	2	6	93	6	0	61	0	07112	1	4	1	2	6	94	9	0	1470	0	07112	1	4	1	2	6	95	3	1	1099	0	07112	1	4	1	2	6	96	2	1	1104	0	07112	1	4	1	2	7	97	13	0	373	0	07112	1	4	1	2	7	98	12	1	345	0	07112	1	4	1	2	7	99	9	0	1646	0	07112	1	4	1	2	7	100	7	0	2412	0	07112	1	4	1	2	7	101	1	1	2969	0	07112	1	4	1	2	7	102	15	0	300	0	07112	1	4	1	2	7	103	10	1	2307	0	07112	1	4	1	2	7	104	16	1	1653	0	07112	1	4	1	2	7	105	11	0	282	0	07112	1	4	1	2	7	106	4	1	1386	0	07112	1	4	1	2	7	107	14	1	1330	0	07112	1	4	1	2	7	108	6	0	461	0	07112	1	4	1	2	7	109	2	1	741	0	07112	1	4	1	2	7	110	8	0	1802	0	07112	1	4	1	2	7	111	3	1	929	0	07112	1	4	1	2	7	112	5	0	316	0	07112	1	4	1	2	8	113	2	1	299	0	07112	1	4	1	2	8	114	12	1	346	0	07112	1	4	1	2	8	115	13	0	319	0	07112	1	4	1	2	8	116	9	0	446	0	07112	1	4	1	2	8	117	1	1	799	0	07112	1	4	1	2	8	118	8	0	433	0	07112	1	4	1	2	8	119	6	0	235	0	07112	1	4	1	2	8	120	7	0	685	0	07112	1	4	1	2	8	121	3	1	444	0	07112	1	4	1	2	8	122	4	1	581	0	07112	1	4	1	2	8	123	16	1	759	0	07112	1	4	1	2	8	124	5	0	323	0	07112	1	4	1	2	8	125	10	1	465	0	07112	1	4	1	2	8	126	15	0	3826	0	07112	1	4	1	2	8	127	11	0	426	0	07112	1	4	1	2	8	128	14	1	732	0	07114	1	6	1	1	1	1	1	1	3566	0	07114	1	6	1	1	1	2	2	0	3823	0	07114	1	6	1	1	1	3	3	0	2366	0	07114	1	6	1	1	1	4	4	1	1202	0	07114	1	6	1	1	1	5	7	0	1434	0	07114	1	6	1	1	1	6	6	1	1014	0	07114	1	6	1	1	1	7	5	1	1437	0	07114	1	6	1	1	1	8	8	1	1625	0	07114	1	6	1	1	2	9	1	1	949	0	07114	1	6	1	1	2	10	3	1	847	0	07114	1	6	1	1	2	11	4	1	373	0	07114	1	6	1	1	2	12	2	1	423	0	07114	1	6	1	1	2	13	8	1	328	0	07114	1	6	1	1	2	14	6	1	334	0	07114	1	6	1	1	2	15	5	1	665	0	07114	1	6	1	1	2	16	7	1	488	0	07114	1	6	1	1	3	17	1	1	310	0	07114	1	6	1	1	3	18	7	1	324	0	07114	1	6	1	1	3	19	5	1	281	0	07114	1	6	1	1	3	20	6	1	792	0	07114	1	6	1	1	3	21	8	1	273	0	07114	1	6	1	1	3	22	2	1	273	0	07114	1	6	1	1	3	23	3	1	359	0	07114	1	6	1	1	3	24	4	1	211	0	07114	1	6	1	2	1	1	12	1	4443	0	07114	1	6	1	2	1	2	15	0	1832	0	07114	1	6	1	2	1	3	4	1	517	0	07114	1	6	1	2	1	4	11	0	315	0	07114	1	6	1	2	1	5	1	1	266	0	07114	1	6	1	2	1	6	6	0	251	0	07114	1	6	1	2	1	7	2	1	404	0	07114	1	6	1	2	1	8	13	0	247	0	07114	1	6	1	2	1	9	14	1	312	0	07114	1	6	1	2	1	10	9	0	247	0	07114	1	6	1	2	1	11	10	1	273	0	07114	1	6	1	2	1	12	5	0	274	0	07114	1	6	1	2	1	13	16	1	321	0	07114	1	6	1	2	1	14	8	0	280	0	07114	1	6	1	2	1	15	3	1	441	0	07114	1	6	1	2	1	16	7	0	362	0	07114	1	6	1	2	2	17	4	1	231	0	07114	1	6	1	2	2	18	10	1	242	0	07114	1	6	1	2	2	19	5	0	252	0	07114	1	6	1	2	2	20	8	0	245	0	07114	1	6	1	2	2	21	16	1	496	0	07114	1	6	1	2	2	22	12	1	255	0	07114	1	6	1	2	2	23	11	0	256	0	07114	1	6	1	2	2	24	6	0	242	0	07114	1	6	1	2	2	25	1	1	427	0	07114	1	6	1	2	2	26	15	0	285	0	07114	1	6	1	2	2	27	14	1	293	0	07114	1	6	1	2	2	28	9	0	261	0	07114	1	6	1	2	2	29	7	0	238	0	07114	1	6	1	2	2	30	3	1	249	0	07114	1	6	1	2	2	31	13	0	251	0	07114	1	6	1	2	2	32	2	1	276	0	07114	1	6	1	2	3	33	5	0	325	0	07114	1	6	1	2	3	34	6	0	315	0	07114	1	6	1	2	3	35	8	0	283	0	07114	1	6	1	2	3	36	7	0	274	0	07114	1	6	1	2	3	37	10	1	250	0	07114	1	6	1	2	3	38	12	1	316	0	07114	1	6	1	2	3	39	15	0	227	0	07114	1	6	1	2	3	40	16	1	406	0	07114	1	6	1	2	3	41	11	0	305	0	07114	1	6	1	2	3	42	9	0	256	0	07114	1	6	1	2	3	43	2	1	273	0	07114	1	6	1	2	3	44	14	1	266	0	07114	1	6	1	2	3	45	13	0	243	0	07114	1	6	1	2	3	46	4	1	261	0	07114	1	6	1	2	3	47	1	1	262	0	07114	1	6	1	2	3	48	3	1	310	0	07114	1	6	1	2	4	49	7	0	230	0	07114	1	6	1	2	4	50	1	1	217	0	07114	1	6	1	2	4	51	11	0	243	0	07114	1	6	1	2	4	52	5	0	717	0	07114	1	6	1	2	4	53	6	0	315	0	07114	1	6	1	2	4	54	3	1	258	0	07114	1	6	1	2	4	55	13	0	235	0	07114	1	6	1	2	4	56	8	0	334	0	07114	1	6	1	2	4	57	16	1	267	0	07114	1	6	1	2	4	58	9	0	324	0	07114	1	6	1	2	4	59	4	1	250	0	07114	1	6	1	2	4	60	12	1	292	0	07114	1	6	1	2	4	61	2	1	316	0	07114	1	6	1	2	4	62	10	1	291	0	07114	1	6	1	2	4	63	15	0	283	0	07114	1	6	1	2	4	64	14	1	315	0	07114	1	6	1	2	5	65	13	0	306	0	07114	1	6	1	2	5	66	5	0	273	0	07114	1	6	1	2	5	67	12	1	378	0	07114	1	6	1	2	5	68	16	1	278	0	07114	1	6	1	2	5	69	11	0	359	0	07114	1	6	1	2	5	70	6	0	316	0	07114	1	6	1	2	5	71	7	0	370	0	07114	1	6	1	2	5	72	9	0	334	0	07114	1	6	1	2	5	73	14	1	252	0	07114	1	6	1	2	5	74	1	1	485	0	07114	1	6	1	2	5	75	8	0	245	0	07114	1	6	1	2	5	76	3	1	247	0	07114	1	6	1	2	5	77	15	0	192	0	07114	1	6	1	2	5	78	10	1	196	0	07114	1	6	1	2	5	79	4	1	257	0	07114	1	6	1	2	5	80	2	1	218	0	07114	1	6	1	2	6	81	4	1	69	0	07114	1	6	1	2	6	82	5	0	54	0	07114	1	6	1	2	6	83	12	1	71	0	07114	1	6	1	2	6	84	11	0	272	0	07114	1	6	1	2	6	85	3	1	57	0	07114	1	6	1	2	6	86	16	1	51	0	07114	1	6	1	2	6	87	2	1	101	0	07114	1	6	1	2	6	88	15	0	205	0	07114	1	6	1	2	6	89	8	0	273	0	07114	1	6	1	2	6	90	1	1	281	0	07114	1	6	1	2	6	91	6	0	210	0	07114	1	6	1	2	6	92	7	0	253	0	07114	1	6	1	2	6	93	14	1	367	0	07114	1	6	1	2	6	94	9	0	250	0	07114	1	6	1	2	6	95	13	0	252	0	07114	1	6	1	2	6	96	10	1	205	0	07114	1	6	1	2	7	97	11	0	217	0	07114	1	6	1	2	7	98	12	1	667	0	07114	1	6	1	2	7	99	10	1	555	0	07114	1	6	1	2	7	100	7	0	183	0	07114	1	6	1	2	7	101	16	1	1244	0	07114	1	6	1	2	7	102	3	1	131	0	07114	1	6	1	2	7	103	6	0	162	0	07114	1	6	1	2	7	104	13	0	304	0	07114	1	6	1	2	7	105	14	1	430	0	07114	1	6	1	2	7	106	4	1	263	0	07114	1	6	1	2	7	107	8	0	305	0	07114	1	6	1	2	7	108	1	1	256	0	07114	1	6	1	2	7	109	5	0	265	0	07114	1	6	1	2	7	110	15	0	243	0	07114	1	6	1	2	7	111	9	0	317	0	07114	1	6	1	2	7	112	2	1	275	0	07114	1	6	1	2	8	113	3	1	284	0	07114	1	6	1	2	8	114	8	0	276	0	07114	1	6	1	2	8	115	5	0	261	0	07114	1	6	1	2	8	116	15	0	285	0	07114	1	6	1	2	8	117	2	1	245	0	07114	1	6	1	2	8	118	4	1	231	0	07114	1	6	1	2	8	119	6	0	266	0	07114	1	6	1	2	8	120	7	0	91	0	07114	1	6	1	2	8	121	11	0	124	0	07114	1	6	1	2	8	122	14	1	163	0	07114	1	6	1	2	8	123	13	0	80	0	07114	1	6	1	2	8	124	12	1	89	0	07114	1	6	1	2	8	125	1	1	282	0	07114	1	6	1	2	8	126	10	1	91	0	07114	1	6	1	2	8	127	16	1	171	0	07114	1	6	1	2	8	128	9	0	215	0	07001	2	1	1	1	1	1	4	0	3208	1	26057001	2	1	1	1	1	2	7	1	2626	3	20657001	2	1	1	1	1	3	8	0	188	1	11317001	2	1	1	1	1	4	1	1	815	2	16357001	2	1	1	1	1	5	5	1	449	3	24847001	2	1	1	1	1	6	6	1	221	3	30797001	2	1	1	1	1	7	3	1	307	3	5877001	2	1	1	1	1	8	2	1	353	2	6337001	2	1	1	1	2	9	3	1	818	3	32067001	2	1	1	1	2	10	2	1	384	2	18407001	2	1	1	1	2	11	1	1	9156	2	4677001	2	1	1	1	2	12	6	0	187	1	18267001	2	1	1	1	2	13	7	1	1503	3	10787001	2	1	1	1	2	14	4	1	340	3	11017001	2	1	1	1	2	15	8	1	690	2	8607001	2	1	1	1	2	16	5	1	394	3	12887001	2	1	1	1	3	17	6	1	461	3	11137001	2	1	1	1	3	18	3	1	285	3	8967001	2	1	1	1	3	19	1	1	357	3	6537001	2	1	1	1	3	20	2	1	326	2	13037001	2	1	1	1	3	21	7	1	523	3	7087001	2	1	1	1	3	22	4	1	924	2	20897001	2	1	1	1	3	23	8	0	316	2	9167001	2	1	1	1	3	24	5	1	393	3	8877001	2	1	1	2	1	1	4	1	4452	0	07001	2	1	1	2	1	2	15	0	546	0	07001	2	1	1	2	1	3	5	0	470	0	07001	2	1	1	2	1	4	13	1	270	0	07001	2	1	1	2	1	5	6	1	639	0	07001	2	1	1	2	1	6	9	1	256	0	07001	2	1	1	2	1	7	1	0	1345	0	07001	2	1	1	2	1	8	11	0	724	0	07001	2	1	1	2	1	9	8	1	273	0	07001	2	1	1	2	1	10	2	1	266	0	07001	2	1	1	2	1	11	16	1	250	0	07001	2	1	1	2	1	12	7	0	124	0	07001	2	1	1	2	1	13	3	1	306	0	07001	2	1	1	2	1	14	14	0	337	0	07001	2	1	1	2	1	15	10	0	815	0	07001	2	1	1	2	1	16	12	1	256	0	07001	2	1	1	2	2	17	2	1	321	0	07001	2	1	1	2	2	18	16	1	304	0	07001	2	1	1	2	2	19	1	1	223	0	07001	2	1	1	2	2	20	4	1	290	0	07001	2	1	1	2	2	21	8	0	282	0	07001	2	1	1	2	2	22	3	1	690	0	07001	2	1	1	2	2	23	14	1	497	0	07001	2	1	1	2	2	24	10	0	303	0	07001	2	1	1	2	2	25	9	0	390	0	07001	2	1	1	2	2	26	5	0	258	0	07001	2	1	1	2	2	27	7	1	395	0	07001	2	1	1	2	2	28	13	0	343	0	07001	2	1	1	2	2	29	11	1	314	0	07001	2	1	1	2	2	30	12	1	297	0	07001	2	1	1	2	2	31	6	0	272	0	07001	2	1	1	2	2	32	15	1	817	0	07001	2	1	1	2	3	33	9	0	442	0	07001	2	1	1	2	3	34	4	1	291	0	07001	2	1	1	2	3	35	7	0	323	0	07001	2	1	1	2	3	36	14	1	330	0	07001	2	1	1	2	3	37	6	0	280	0	07001	2	1	1	2	3	38	10	0	215	0	07001	2	1	1	2	3	39	13	1	218	0	07001	2	1	1	2	3	40	12	1	397	0	07001	2	1	1	2	3	41	2	1	312	0	07001	2	1	1	2	3	42	15	0	238	0	07001	2	1	1	2	3	43	3	1	248	0	07001	2	1	1	2	3	44	8	0	209	0	07001	2	1	1	2	3	45	16	1	237	0	07001	2	1	1	2	3	46	1	1	247	0	07001	2	1	1	2	3	47	11	0	248	0	07001	2	1	1	2	3	48	5	1	233	0	07001	2	1	1	2	4	49	15	1	1468	0	07001	2	1	1	2	4	50	11	0	297	0	07001	2	1	1	2	4	51	8	1	240	0	07001	2	1	1	2	4	52	7	0	242	0	07001	2	1	1	2	4	53	2	1	236	0	07001	2	1	1	2	4	54	6	0	262	0	07001	2	1	1	2	4	55	5	0	231	0	07001	2	1	1	2	4	56	3	1	201	0	07001	2	1	1	2	4	57	13	0	211	0	07001	2	1	1	2	4	58	1	1	174	0	07001	2	1	1	2	4	59	14	1	243	0	07001	2	1	1	2	4	60	4	1	629	0	07001	2	1	1	2	4	61	9	0	205	0	07001	2	1	1	2	4	62	16	0	241	0	07001	2	1	1	2	4	63	10	0	227	0	07001	2	1	1	2	4	64	12	1	270	0	07001	2	1	1	2	5	65	7	0	318	0	07001	2	1	1	2	5	66	15	1	245	0	07001	2	1	1	2	5	67	6	0	734	0	07001	2	1	1	2	5	68	3	1	291	0	07001	2	1	1	2	5	69	9	1	251	0	07001	2	1	1	2	5	70	14	0	283	0	07001	2	1	1	2	5	71	12	1	315	0	07001	2	1	1	2	5	72	10	0	1098	0	07001	2	1	1	2	5	73	4	0	607	0	07001	2	1	1	2	5	74	16	0	353	0	07001	2	1	1	2	5	75	11	0	398	0	07001	2	1	1	2	5	76	5	0	265	0	07001	2	1	1	2	5	77	13	1	314	0	07001	2	1	1	2	5	78	8	1	248	0	07001	2	1	1	2	5	79	2	1	225	0	07001	2	1	1	2	5	80	1	1	260	0	07001	2	1	1	2	6	81	16	0	260	0	07001	2	1	1	2	6	82	14	0	301	0	07001	2	1	1	2	6	83	15	1	268	0	07001	2	1	1	2	6	84	13	1	285	0	07001	2	1	1	2	6	85	11	0	276	0	07001	2	1	1	2	6	86	10	0	220	0	07001	2	1	1	2	6	87	4	0	310	0	07001	2	1	1	2	6	88	12	1	269	0	07001	2	1	1	2	6	89	7	0	230	0	07001	2	1	1	2	6	90	8	1	344	0	07001	2	1	1	2	6	91	5	0	245	0	07001	2	1	1	2	6	92	3	1	302	0	07001	2	1	1	2	6	93	2	1	221	0	07001	2	1	1	2	6	94	9	1	224	0	07001	2	1	1	2	6	95	1	1	275	0	07001	2	1	1	2	6	96	6	0	228	0	07001	2	1	1	2	7	97	11	0	14	0	07001	2	1	1	2	7	98	7	0	273	0	07001	2	1	1	2	7	99	1	1	242	0	07001	2	1	1	2	7	100	16	0	291	0	07001	2	1	1	2	7	101	4	0	331	0	07001	2	1	1	2	7	102	14	0	305	0	07001	2	1	1	2	7	103	6	0	272	0	07001	2	1	1	2	7	104	3	1	385	0	07001	2	1	1	2	7	105	8	1	340	0	07001	2	1	1	2	7	106	10	0	274	0	07001	2	1	1	2	7	107	15	1	291	0	07001	2	1	1	2	7	108	9	1	187	0	07001	2	1	1	2	7	109	5	0	399	0	07001	2	1	1	2	7	110	2	1	274	0	07001	2	1	1	2	7	111	12	1	290	0	07001	2	1	1	2	7	112	13	1	314	0	07001	2	1	1	2	8	113	5	0	305	0	07001	2	1	1	2	8	114	8	1	264	0	07001	2	1	1	2	8	115	14	0	528	0	07001	2	1	1	2	8	116	2	1	277	0	07001	2	1	1	2	8	117	6	0	253	0	07001	2	1	1	2	8	118	11	0	302	0	07001	2	1	1	2	8	119	3	1	246	0	07001	2	1	1	2	8	120	4	0	351	0	07001	2	1	1	2	8	121	10	0	356	0	07001	2	1	1	2	8	122	16	0	953	0	07001	2	1	1	2	8	123	15	1	292	0	07001	2	1	1	2	8	124	1	1	436	0	07001	2	1	1	2	8	125	9	1	245	0	07001	2	1	1	2	8	126	12	1	278	0	07001	2	1	1	2	8	127	13	1	294	0	07001	2	1	1	2	8	128	7	0	254	0	07002	2	2	2	1	1	1	7	0	2951	1	23107002	2	2	2	1	1	2	5	1	2736	1	20657002	2	2	2	1	1	3	3	0	532	1	13817002	2	2	2	1	1	4	2	1	1197	1	8897002	2	2	2	1	1	5	1	0	2391	2	19767002	2	2	2	1	1	6	6	0	1096	1	17447002	2	2	2	1	1	7	8	1	5408	2	23837002	2	2	2	1	1	8	4	0	3821	1	13687002	2	2	2	1	2	9	6	0	4994	2	5247002	2	2	2	1	2	10	3	0	1009	1	15817002	2	2	2	1	2	11	8	1	1237	2	24557002	2	2	2	1	2	12	7	1	1098	1	5377002	2	2	2	1	2	13	5	1	374	1	13027002	2	2	2	1	2	14	1	1	1245	1	10287002	2	2	2	1	2	15	2	1	2379	2	9737002	2	2	2	1	2	16	4	1	519	1	11527002	2	2	2	1	3	17	7	1	795	2	11127002	2	2	2	1	3	18	5	1	4124	2	13467002	2	2	2	1	3	19	3	0	4140	2	29377002	2	2	2	1	3	20	4	1	1295	1	11517002	2	2	2	1	3	21	6	0	401	2	11437002	2	2	2	1	3	22	2	0	522	2	21317002	2	2	2	1	3	23	1	1	1675	1	8757002	2	2	2	1	3	24	8	1	1146	1	25287002	2	2	2	2	1	1	14	0	5369	0	07002	2	2	2	2	1	2	1	1	726	0	07002	2	2	2	2	1	3	10	0	923	0	07002	2	2	2	2	1	4	12	1	3552	0	07002	2	2	2	2	1	5	2	1	628	0	07002	2	2	2	2	1	6	13	0	1982	0	07002	2	2	2	2	1	7	11	1	142	0	07002	2	2	2	2	1	8	9	1	700	0	07002	2	2	2	2	1	9	5	0	362	0	07002	2	2	2	2	1	10	8	0	174	0	07002	2	2	2	2	1	11	6	0	5115	0	07002	2	2	2	2	1	12	4	1	483	0	07002	2	2	2	2	1	13	16	1	411	0	07002	2	2	2	2	1	14	15	1	910	0	07002	2	2	2	2	1	15	3	1	515	0	07002	2	2	2	2	1	16	7	0	385	0	07002	2	2	2	2	2	17	12	0	1829	0	07002	2	2	2	2	2	18	2	1	395	0	07002	2	2	2	2	2	19	4	1	238	0	07002	2	2	2	2	2	20	15	0	743	0	07002	2	2	2	2	2	21	10	0	419	0	07002	2	2	2	2	2	22	13	1	566	0	07002	2	2	2	2	2	23	9	1	313	0	07002	2	2	2	2	2	24	14	0	56	0	07002	2	2	2	2	2	25	3	1	1394	0	07002	2	2	2	2	2	26	11	0	3050	0	07002	2	2	2	2	2	27	6	1	484	0	07002	2	2	2	2	2	28	1	1	420	0	07002	2	2	2	2	2	29	8	0	294	0	07002	2	2	2	2	2	30	5	0	301	0	07002	2	2	2	2	2	31	7	0	364	0	07002	2	2	2	2	2	32	16	0	352	0	07002	2	2	2	2	3	33	7	0	1094	0	07002	2	2	2	2	3	34	6	0	1411	0	07002	2	2	2	2	3	35	15	1	603	0	07002	2	2	2	2	3	36	3	1	397	0	07002	2	2	2	2	3	37	2	0	2752	0	07002	2	2	2	2	3	38	5	0	278	0	07002	2	2	2	2	3	39	12	1	350	0	07002	2	2	2	2	3	40	9	1	363	0	07002	2	2	2	2	3	41	13	1	1079	0	07002	2	2	2	2	3	42	16	0	788	0	07002	2	2	2	2	3	43	10	1	2119	0	07002	2	2	2	2	3	44	4	1	1288	0	07002	2	2	2	2	3	45	14	1	461	0	07002	2	2	2	2	3	46	1	1	526	0	07002	2	2	2	2	3	47	8	0	364	0	07002	2	2	2	2	3	48	11	1	720	0	07002	2	2	2	2	4	49	13	1	357	0	07002	2	2	2	2	4	50	1	1	1081	0	07002	2	2	2	2	4	51	8	0	399	0	07002	2	2	2	2	4	52	2	1	418	0	07002	2	2	2	2	4	53	10	0	284	0	07002	2	2	2	2	4	54	5	0	1636	0	07002	2	2	2	2	4	55	15	1	602	0	07002	2	2	2	2	4	56	7	0	652	0	07002	2	2	2	2	4	57	16	1	1500	0	07002	2	2	2	2	4	58	6	0	840	0	07002	2	2	2	2	4	59	9	1	336	0	07002	2	2	2	2	4	60	3	1	157	0	07002	2	2	2	2	4	61	4	0	731	0	07002	2	2	2	2	4	62	12	0	2592	0	07002	2	2	2	2	4	63	11	0	453	0	07002	2	2	2	2	4	64	14	0	541	0	07002	2	2	2	2	5	65	10	0	283	0	07002	2	2	2	2	5	66	12	1	1835	0	07002	2	2	2	2	5	67	2	1	480	0	07002	2	2	2	2	5	68	15	1	319	0	07002	2	2	2	2	5	69	1	1	374	0	07002	2	2	2	2	5	70	9	1	385	0	07002	2	2	2	2	5	71	7	0	773	0	07002	2	2	2	2	5	72	16	1	1600	0	07002	2	2	2	2	5	73	8	0	431	0	07002	2	2	2	2	5	74	5	0	313	0	07002	2	2	2	2	5	75	6	1	4463	0	07002	2	2	2	2	5	76	14	0	2884	0	07002	2	2	2	2	5	77	11	1	3485	0	07002	2	2	2	2	5	78	13	1	1283	0	07002	2	2	2	2	5	79	3	1	408	0	07002	2	2	2	2	5	80	4	0	1547	0	07002	2	2	2	2	6	81	12	0	1677	0	07002	2	2	2	2	6	82	13	1	305	0	07002	2	2	2	2	6	83	14	0	696	0	07002	2	2	2	2	6	84	10	0	358	0	07002	2	2	2	2	6	85	9	1	244	0	07002	2	2	2	2	6	86	6	1	4270	0	07002	2	2	2	2	6	87	8	0	794	0	07002	2	2	2	2	6	88	15	1	356	0	07002	2	2	2	2	6	89	1	1	33	0	07002	2	2	2	2	6	90	16	0	1092	0	07002	2	2	2	2	6	91	2	1	273	0	07002	2	2	2	2	6	92	4	1	3490	0	07002	2	2	2	2	6	93	11	1	312	0	07002	2	2	2	2	6	94	3	1	143	0	07002	2	2	2	2	6	95	5	0	29	0	07002	2	2	2	2	6	96	7	0	3127	0	07002	2	2	2	2	7	97	8	1	749	0	07002	2	2	2	2	7	98	11	0	289	0	07002	2	2	2	2	7	99	14	1	1721	0	07002	2	2	2	2	7	100	4	0	651	0	07002	2	2	2	2	7	101	10	0	19	0	07002	2	2	2	2	7	102	2	0	1135	0	07002	2	2	2	2	7	103	5	0	186	0	07002	2	2	2	2	7	104	15	0	1319	0	07002	2	2	2	2	7	105	13	1	490	0	07002	2	2	2	2	7	106	12	1	1176	0	07002	2	2	2	2	7	107	1	1	378	0	07002	2	2	2	2	7	108	3	1	278	0	07002	2	2	2	2	7	109	9	1	257	0	07002	2	2	2	2	7	110	7	0	2279	0	07002	2	2	2	2	7	111	16	1	1922	0	07002	2	2	2	2	7	112	6	0	10492	0	07002	2	2	2	2	8	113	5	0	269	0	07002	2	2	2	2	8	114	3	1	374	0	07002	2	2	2	2	8	115	15	0	402	0	07002	2	2	2	2	8	116	11	0	1629	0	07002	2	2	2	2	8	117	14	0	308	0	07002	2	2	2	2	8	118	4	1	547	0	07002	2	2	2	2	8	119	13	0	911	0	07002	2	2	2	2	8	120	6	0	1917	0	07002	2	2	2	2	8	121	10	0	1319	0	07002	2	2	2	2	8	122	9	1	562	0	07002	2	2	2	2	8	123	8	1	422	0	07002	2	2	2	2	8	124	7	1	1143	0	07002	2	2	2	2	8	125	2	1	27	0	07002	2	2	2	2	8	126	16	0	4509	0	07002	2	2	2	2	8	127	12	1	1224	0	07002	2	2	2	2	8	128	1	1	1768	0	07003	2	3	1	1	1	1	1	0	3843	3	33507003	2	3	1	1	1	2	5	0	4418	2	13007003	2	3	1	1	1	3	7	0	368	3	14007003	2	3	1	1	1	4	3	1	1415	3	17547003	2	3	1	1	1	5	6	0	1771	1	11747003	2	3	1	1	1	6	8	0	1152	2	8627003	2	3	1	1	1	7	2	1	1765	3	9767003	2	3	1	1	1	8	4	1	402	2	4837003	2	3	1	1	2	9	3	1	855	3	4127003	2	3	1	1	2	10	5	1	204	2	4997003	2	3	1	1	2	11	8	1	2016	2	8667003	2	3	1	1	2	12	4	1	796	2	5407003	2	3	1	1	2	13	7	1	945	3	14317003	2	3	1	1	2	14	6	1	710	1	8067003	2	3	1	1	2	15	1	1	696	1	10257003	2	3	1	1	2	16	2	0	2473	2	11507003	2	3	1	1	3	17	4	1	1273	1	4627003	2	3	1	1	3	18	8	1	950	2	9327003	2	3	1	1	3	19	1	1	1532	3	14907003	2	3	1	1	3	20	2	1	382	1	6767003	2	3	1	1	3	21	3	1	670	2	8067003	2	3	1	1	3	22	7	0	911	1	28737003	2	3	1	1	3	23	5	0	1512	1	4707003	2	3	1	1	3	24	6	0	982	2	8837003	2	3	1	2	1	1	8	0	7626	0	07003	2	3	1	2	1	2	6	1	5980	0	07003	2	3	1	2	1	3	10	1	1008	0	07003	2	3	1	2	1	4	16	0	2857	0	07003	2	3	1	2	1	5	2	0	4058	0	07003	2	3	1	2	1	6	9	0	1631	0	07003	2	3	1	2	1	7	11	1	1309	0	07003	2	3	1	2	1	8	5	1	721	0	07003	2	3	1	2	1	9	4	1	615	0	07003	2	3	1	2	1	10	14	1	296	0	07003	2	3	1	2	1	11	13	0	263	0	07003	2	3	1	2	1	12	15	0	819	0	07003	2	3	1	2	1	13	1	0	681	0	07003	2	3	1	2	1	14	3	1	1064	0	07003	2	3	1	2	1	15	7	0	2033	0	07003	2	3	1	2	1	16	12	1	2739	0	07003	2	3	1	2	2	17	14	1	585	0	07003	2	3	1	2	2	18	3	1	772	0	07003	2	3	1	2	2	19	16	1	503	0	07003	2	3	1	2	2	20	2	1	1694	0	07003	2	3	1	2	2	21	10	1	1594	0	07003	2	3	1	2	2	22	5	0	690	0	07003	2	3	1	2	2	23	8	0	1250	0	07003	2	3	1	2	2	24	4	1	1598	0	07003	2	3	1	2	2	25	11	0	1429	0	07003	2	3	1	2	2	26	15	0	884	0	07003	2	3	1	2	2	27	6	0	422	0	07003	2	3	1	2	2	28	13	0	309	0	07003	2	3	1	2	2	29	7	0	756	0	07003	2	3	1	2	2	30	1	1	287	0	07003	2	3	1	2	2	31	9	1	575	0	07003	2	3	1	2	2	32	12	0	1483	0	07003	2	3	1	2	3	33	6	0	607	0	07003	2	3	1	2	3	34	4	1	761	0	07003	2	3	1	2	3	35	10	0	588	0	07003	2	3	1	2	3	36	12	0	607	0	07003	2	3	1	2	3	37	15	0	1250	0	07003	2	3	1	2	3	38	3	1	880	0	07003	2	3	1	2	3	39	1	1	471	0	07003	2	3	1	2	3	40	9	0	1542	0	07003	2	3	1	2	3	41	2	0	472	0	07003	2	3	1	2	3	42	8	0	855	0	07003	2	3	1	2	3	43	5	1	951	0	07003	2	3	1	2	3	44	13	0	178	0	07003	2	3	1	2	3	45	16	1	1520	0	07003	2	3	1	2	3	46	7	0	377	0	07003	2	3	1	2	3	47	14	0	93	0	07003	2	3	1	2	3	48	11	0	477	0	07003	2	3	1	2	4	49	8	1	3060	0	07003	2	3	1	2	4	50	9	0	597	0	07003	2	3	1	2	4	51	5	0	695	0	07003	2	3	1	2	4	52	15	0	533	0	07003	2	3	1	2	4	53	16	1	1578	0	07003	2	3	1	2	4	54	3	1	339	0	07003	2	3	1	2	4	55	10	1	641	0	07003	2	3	1	2	4	56	1	1	2026	0	07003	2	3	1	2	4	57	11	0	423	0	07003	2	3	1	2	4	58	4	1	425	0	07003	2	3	1	2	4	59	2	1	1675	0	07003	2	3	1	2	4	60	12	1	799	0	07003	2	3	1	2	4	61	13	1	521	0	07003	2	3	1	2	4	62	6	1	398	0	07003	2	3	1	2	4	63	7	0	937	0	07003	2	3	1	2	4	64	14	1	285	0	07003	2	3	1	2	5	65	9	0	269	0	07003	2	3	1	2	5	66	1	1	1041	0	07003	2	3	1	2	5	67	12	1	622	0	07003	2	3	1	2	5	68	3	1	1135	0	07003	2	3	1	2	5	69	11	1	794	0	07003	2	3	1	2	5	70	6	0	308	0	07003	2	3	1	2	5	71	8	0	439	0	07003	2	3	1	2	5	72	7	0	1101	0	07003	2	3	1	2	5	73	13	0	1079	0	07003	2	3	1	2	5	74	15	0	276	0	07003	2	3	1	2	5	75	10	1	369	0	07003	2	3	1	2	5	76	4	1	316	0	07003	2	3	1	2	5	77	14	1	379	0	07003	2	3	1	2	5	78	5	1	2046	0	07003	2	3	1	2	5	79	16	1	1931	0	07003	2	3	1	2	5	80	2	0	396	0	07003	2	3	1	2	6	81	4	0	2806	0	07003	2	3	1	2	6	82	12	1	627	0	07003	2	3	1	2	6	83	11	1	526	0	07003	2	3	1	2	6	84	10	1	1245	0	07003	2	3	1	2	6	85	1	1	625	0	07003	2	3	1	2	6	86	7	1	778	0	07003	2	3	1	2	6	87	2	1	853	0	07003	2	3	1	2	6	88	8	0	1284	0	07003	2	3	1	2	6	89	14	1	505	0	07003	2	3	1	2	6	90	6	1	257	0	07003	2	3	1	2	6	91	3	1	505	0	07003	2	3	1	2	6	92	5	1	964	0	07003	2	3	1	2	6	93	9	1	778	0	07003	2	3	1	2	6	94	15	1	669	0	07003	2	3	1	2	6	95	13	1	406	0	07003	2	3	1	2	6	96	16	1	1207	0	07003	2	3	1	2	7	97	6	1	912	0	07003	2	3	1	2	7	98	8	0	2123	0	07003	2	3	1	2	7	99	2	0	2820	0	07003	2	3	1	2	7	100	10	1	639	0	07003	2	3	1	2	7	101	4	1	336	0	07003	2	3	1	2	7	102	12	1	3230	0	07003	2	3	1	2	7	103	15	0	360	0	07003	2	3	1	2	7	104	7	0	484	0	07003	2	3	1	2	7	105	13	0	3963	0	07003	2	3	1	2	7	106	1	0	4694	0	07003	2	3	1	2	7	107	9	0	6488	0	07003	2	3	1	2	7	108	5	0	3334	0	07003	2	3	1	2	7	109	11	1	837	0	07003	2	3	1	2	7	110	16	1	519	0	07003	2	3	1	2	7	111	14	1	698	0	07003	2	3	1	2	7	112	3	1	575	0	07003	2	3	1	2	8	113	1	1	1066	0	07003	2	3	1	2	8	114	7	0	360	0	07003	2	3	1	2	8	115	6	1	536	0	07003	2	3	1	2	8	116	10	1	930	0	07003	2	3	1	2	8	117	8	0	558	0	07003	2	3	1	2	8	118	5	1	2218	0	07003	2	3	1	2	8	119	16	1	831	0	07003	2	3	1	2	8	120	14	1	842	0	07003	2	3	1	2	8	121	13	0	3215	0	07003	2	3	1	2	8	122	2	1	692	0	07003	2	3	1	2	8	123	3	1	1808	0	07003	2	3	1	2	8	124	11	1	1494	0	07003	2	3	1	2	8	125	9	0	507	0	07003	2	3	1	2	8	126	12	0	1057	0	07003	2	3	1	2	8	127	4	1	192	0	07003	2	3	1	2	8	128	15	0	245	0	07004	2	4	2	1	1	1	4	0	3987	3	42717004	2	4	2	1	1	2	5	0	3060	3	12407004	2	4	2	1	1	3	7	1	1495	3	13757004	2	4	2	1	1	4	1	1	368	3	8007004	2	4	2	1	1	5	2	1	449	3	6297004	2	4	2	1	1	6	6	0	702	2	7357004	2	4	2	1	1	7	3	1	612	3	8817004	2	4	2	1	1	8	8	0	1662	2	3987004	2	4	2	1	2	9	4	1	2313	2	9337004	2	4	2	1	2	10	1	1	1273	3	6827004	2	4	2	1	2	11	2	1	361	3	6967004	2	4	2	1	2	12	6	1	542	3	8717004	2	4	2	1	2	13	8	1	398	3	5407004	2	4	2	1	2	14	5	1	280	3	3877004	2	4	2	1	2	15	7	1	287	3	6827004	2	4	2	1	2	16	3	0	3568	2	8547004	2	4	2	1	3	17	5	1	1894	2	6527004	2	4	2	1	3	18	7	1	2100	2	3777004	2	4	2	1	3	19	1	1	381	3	12357004	2	4	2	1	3	20	2	0	4339	2	4237004	2	4	2	1	3	21	8	0	6378	1	36237004	2	4	2	1	3	22	4	0	968	3	10217004	2	4	2	1	3	23	6	0	1774	2	8177004	2	4	2	1	3	24	3	1	1026	2	10537004	2	4	2	2	1	1	5	0	6460	0	07004	2	4	2	2	1	2	15	0	3627	0	07004	2	4	2	2	1	3	13	1	596	0	07004	2	4	2	2	1	4	12	1	1087	0	07004	2	4	2	2	1	5	2	1	660	0	07004	2	4	2	2	1	6	1	1	309	0	07004	2	4	2	2	1	7	10	1	564	0	07004	2	4	2	2	1	8	7	0	1575	0	07004	2	4	2	2	1	9	6	0	608	0	07004	2	4	2	2	1	10	14	1	1130	0	07004	2	4	2	2	1	11	4	1	622	0	07004	2	4	2	2	1	12	16	1	935	0	07004	2	4	2	2	1	13	11	0	507	0	07004	2	4	2	2	1	14	3	1	410	0	07004	2	4	2	2	1	15	8	0	2893	0	07004	2	4	2	2	1	16	9	0	301	0	07004	2	4	2	2	2	17	15	0	556	0	07004	2	4	2	2	2	18	5	1	984	0	07004	2	4	2	2	2	19	4	1	370	0	07004	2	4	2	2	2	20	11	0	295	0	07004	2	4	2	2	2	21	16	1	238	0	07004	2	4	2	2	2	22	6	0	297	0	07004	2	4	2	2	2	23	9	0	8472	0	07004	2	4	2	2	2	24	3	1	328	0	07004	2	4	2	2	2	25	10	1	318	0	07004	2	4	2	2	2	26	14	1	3204	0	07004	2	4	2	2	2	27	1	1	295	0	07004	2	4	2	2	2	28	2	1	350	0	07004	2	4	2	2	2	29	8	0	331	0	07004	2	4	2	2	2	30	13	0	1113	0	07004	2	4	2	2	2	31	7	1	270	0	07004	2	4	2	2	2	32	12	1	262	0	07004	2	4	2	2	3	33	1	0	1135	0	07004	2	4	2	2	3	34	16	1	338	0	07004	2	4	2	2	3	35	3	0	336	0	07004	2	4	2	2	3	36	11	0	262	0	07004	2	4	2	2	3	37	5	0	311	0	07004	2	4	2	2	3	38	7	0	1006	0	07004	2	4	2	2	3	39	12	1	215	0	07004	2	4	2	2	3	40	10	1	274	0	07004	2	4	2	2	3	41	13	0	6603	0	07004	2	4	2	2	3	42	9	0	1300	0	07004	2	4	2	2	3	43	14	0	664	0	07004	2	4	2	2	3	44	6	0	2687	0	07004	2	4	2	2	3	45	15	1	856	0	07004	2	4	2	2	3	46	8	1	1391	0	07004	2	4	2	2	3	47	4	0	744	0	07004	2	4	2	2	3	48	2	1	229	0	07004	2	4	2	2	4	49	7	0	2783	0	07004	2	4	2	2	4	50	15	1	3396	0	07004	2	4	2	2	4	51	4	0	269	0	07004	2	4	2	2	4	52	1	1	270	0	07004	2	4	2	2	4	53	14	0	6255	0	07004	2	4	2	2	4	54	9	1	9798	0	07004	2	4	2	2	4	55	6	0	391	0	07004	2	4	2	2	4	56	10	0	90	0	07004	2	4	2	2	4	57	2	1	67	0	07004	2	4	2	2	4	58	13	0	308	0	07004	2	4	2	2	4	59	12	1	227	0	07004	2	4	2	2	4	60	3	1	278	0	07004	2	4	2	2	4	61	8	0	230	0	07004	2	4	2	2	4	62	5	0	128	0	07004	2	4	2	2	4	63	16	0	231	0	07004	2	4	2	2	4	64	11	0	705	0	07004	2	4	2	2	5	65	16	0	191	0	07004	2	4	2	2	5	66	11	1	315	0	07004	2	4	2	2	5	67	14	0	266	0	07004	2	4	2	2	5	68	12	1	42	0	07004	2	4	2	2	5	69	8	1	1141	0	07004	2	4	2	2	5	70	6	0	1096	0	07004	2	4	2	2	5	71	9	1	310	0	07004	2	4	2	2	5	72	3	1	469	0	07004	2	4	2	2	5	73	13	1	261	0	07004	2	4	2	2	5	74	2	1	214	0	07004	2	4	2	2	5	75	10	0	248	0	07004	2	4	2	2	5	76	7	0	58	0	07004	2	4	2	2	5	77	5	0	443	0	07004	2	4	2	2	5	78	15	1	101	0	07004	2	4	2	2	5	79	1	1	301	0	07004	2	4	2	2	5	80	4	0	292	0	07004	2	4	2	2	6	81	11	0	220	0	07004	2	4	2	2	6	82	16	0	230	0	07004	2	4	2	2	6	83	4	0	40	0	07004	2	4	2	2	6	84	8	1	251	0	07004	2	4	2	2	6	85	12	1	132	0	07004	2	4	2	2	6	86	10	0	219	0	07004	2	4	2	2	6	87	6	0	286	0	07004	2	4	2	2	6	88	1	1	198	0	07004	2	4	2	2	6	89	7	0	153	0	07004	2	4	2	2	6	90	9	1	183	0	07004	2	4	2	2	6	91	3	1	171	0	07004	2	4	2	2	6	92	14	0	1184	0	07004	2	4	2	2	6	93	13	1	497	0	07004	2	4	2	2	6	94	5	0	840	0	07004	2	4	2	2	6	95	15	1	1800	0	07004	2	4	2	2	6	96	2	1	247	0	07004	2	4	2	2	7	97	16	0	224	0	07004	2	4	2	2	7	98	6	0	227	0	07004	2	4	2	2	7	99	5	0	293	0	07004	2	4	2	2	7	100	10	0	589	0	07004	2	4	2	2	7	101	12	1	16	0	07004	2	4	2	2	7	102	9	1	211	0	07004	2	4	2	2	7	103	11	0	254	0	07004	2	4	2	2	7	104	15	1	240	0	07004	2	4	2	2	7	105	4	0	266	0	07004	2	4	2	2	7	106	13	1	242	0	07004	2	4	2	2	7	107	8	1	237	0	07004	2	4	2	2	7	108	2	1	246	0	07004	2	4	2	2	7	109	1	1	375	0	07004	2	4	2	2	7	110	3	1	267	0	07004	2	4	2	2	7	111	7	0	252	0	07004	2	4	2	2	7	112	14	0	925	0	07004	2	4	2	2	8	113	12	1	266	0	07004	2	4	2	2	8	114	4	0	363	0	07004	2	4	2	2	8	115	7	0	255	0	07004	2	4	2	2	8	116	11	0	360	0	07004	2	4	2	2	8	117	16	0	437	0	07004	2	4	2	2	8	118	14	0	335	0	07004	2	4	2	2	8	119	2	1	404	0	07004	2	4	2	2	8	120	10	0	655	0	07004	2	4	2	2	8	121	15	1	263	0	07004	2	4	2	2	8	122	6	0	464	0	07004	2	4	2	2	8	123	13	1	240	0	07004	2	4	2	2	8	124	3	1	162	0	07004	2	4	2	2	8	125	5	0	1472	0	07004	2	4	2	2	8	126	8	1	925	0	07004	2	4	2	2	8	127	1	1	274	0	07004	2	4	2	2	8	128	9	1	1210	0	07005	2	5	1	1	1	1	2	0	4397	3	66007005	2	5	1	1	1	2	5	0	6608	1	118847005	2	5	1	1	1	3	6	1	1587	3	14947005	2	5	1	1	1	4	4	1	874	3	12287005	2	5	1	1	1	5	1	0	419	3	13687005	2	5	1	1	1	6	7	0	2249	1	11927005	2	5	1	1	1	7	3	0	1096	3	10807005	2	5	1	1	1	8	8	1	326	3	8797005	2	5	1	1	2	9	5	1	397	3	16357005	2	5	1	1	2	10	2	1	401	3	6077005	2	5	1	1	2	11	6	1	513	3	5547005	2	5	1	1	2	12	4	0	1742	2	32277005	2	5	1	1	2	13	8	1	340	3	7897005	2	5	1	1	2	14	3	1	240	3	7337005	2	5	1	1	2	15	1	0	1050	1	6447005	2	5	1	1	2	16	7	1	3004	1	13227005	2	5	1	1	3	17	4	1	2054	3	5657005	2	5	1	1	3	18	5	1	457	3	5727005	2	5	1	1	3	19	8	1	376	3	4637005	2	5	1	1	3	20	3	1	735	3	7117005	2	5	1	1	3	21	1	1	588	2	25147005	2	5	1	1	3	22	6	1	1738	1	32157005	2	5	1	1	3	23	7	1	608	3	7737005	2	5	1	1	3	24	2	1	8296	3	8037005	2	5	1	2	1	1	14	1	3018	0	07005	2	5	1	2	1	2	2	0	1500	0	07005	2	5	1	2	1	3	5	1	2360	0	07005	2	5	1	2	1	4	7	0	2375	0	07005	2	5	1	2	1	5	3	1	1461	0	07005	2	5	1	2	1	6	6	1	899	0	07005	2	5	1	2	1	7	10	0	680	0	07005	2	5	1	2	1	8	16	1	1487	0	07005	2	5	1	2	1	9	1	0	1779	0	07005	2	5	1	2	1	10	11	1	1443	0	07005	2	5	1	2	1	11	13	0	7569	0	07005	2	5	1	2	1	12	8	0	288	0	07005	2	5	1	2	1	13	15	0	576	0	07005	2	5	1	2	1	14	12	0	195	0	07005	2	5	1	2	1	15	9	1	1967	0	07005	2	5	1	2	1	16	4	1	1262	0	07005	2	5	1	2	2	17	1	1	636	0	07005	2	5	1	2	2	18	13	0	325	0	07005	2	5	1	2	2	19	8	0	819	0	07005	2	5	1	2	2	20	7	1	468	0	07005	2	5	1	2	2	21	9	1	532	0	07005	2	5	1	2	2	22	3	1	178	0	07005	2	5	1	2	2	23	4	0	454	0	07005	2	5	1	2	2	24	14	0	359	0	07005	2	5	1	2	2	25	11	1	684	0	07005	2	5	1	2	2	26	5	1	1346	0	07005	2	5	1	2	2	27	16	1	27	0	07005	2	5	1	2	2	28	15	0	422	0	07005	2	5	1	2	2	29	12	0	6096	0	07005	2	5	1	2	2	30	10	1	2343	0	07005	2	5	1	2	2	31	2	0	3255	0	07005	2	5	1	2	2	32	6	1	343	0	07005	2	5	1	2	3	33	13	1	732	0	07005	2	5	1	2	3	34	15	0	385	0	07005	2	5	1	2	3	35	14	1	2092	0	07005	2	5	1	2	3	36	12	0	183	0	07005	2	5	1	2	3	37	7	1	187	0	07005	2	5	1	2	3	38	4	1	679	0	07005	2	5	1	2	3	39	3	0	1318	0	07005	2	5	1	2	3	40	10	1	3040	0	07005	2	5	1	2	3	41	16	1	418	0	07005	2	5	1	2	3	42	2	0	60	0	07005	2	5	1	2	3	43	9	1	1046	0	07005	2	5	1	2	3	44	11	1	228	0	07005	2	5	1	2	3	45	5	1	3319	0	07005	2	5	1	2	3	46	6	1	244	0	07005	2	5	1	2	3	47	8	0	405	0	07005	2	5	1	2	3	48	1	0	1328	0	07005	2	5	1	2	4	49	10	1	644	0	07005	2	5	1	2	4	50	11	1	1204	0	07005	2	5	1	2	4	51	16	1	213	0	07005	2	5	1	2	4	52	8	0	2639	0	07005	2	5	1	2	4	53	7	0	450	0	07005	2	5	1	2	4	54	13	0	155	0	07005	2	5	1	2	4	55	1	0	537	0	07005	2	5	1	2	4	56	2	0	349	0	07005	2	5	1	2	4	57	6	1	26	0	07005	2	5	1	2	4	58	3	0	45	0	07005	2	5	1	2	4	59	15	0	1598	0	07005	2	5	1	2	4	60	9	0	12478	0	07005	2	5	1	2	4	61	14	1	1059	0	07005	2	5	1	2	4	62	5	0	1962	0	07005	2	5	1	2	4	63	12	0	1114	0	07005	2	5	1	2	4	64	4	1	822	0	07005	2	5	1	2	5	65	2	0	1199	0	07005	2	5	1	2	5	66	11	1	696	0	07005	2	5	1	2	5	67	7	1	2710	0	07005	2	5	1	2	5	68	13	0	7605	0	07005	2	5	1	2	5	69	1	0	1299	0	07005	2	5	1	2	5	70	5	1	1071	0	07005	2	5	1	2	5	71	4	1	189	0	07005	2	5	1	2	5	72	6	1	2226	0	07005	2	5	1	2	5	73	15	0	422	0	07005	2	5	1	2	5	74	14	1	2192	0	07005	2	5	1	2	5	75	9	1	4142	0	07005	2	5	1	2	5	76	8	0	601	0	07005	2	5	1	2	5	77	16	1	2667	0	07005	2	5	1	2	5	78	3	0	669	0	07005	2	5	1	2	5	79	12	0	14523	0	07005	2	5	1	2	5	80	10	1	545	0	07005	2	5	1	2	6	81	4	1	845	0	07005	2	5	1	2	6	82	14	1	461	0	07005	2	5	1	2	6	83	10	1	1181	0	07005	2	5	1	2	6	84	16	1	10942	0	07005	2	5	1	2	6	85	15	0	7853	0	07005	2	5	1	2	6	86	12	0	1040	0	07005	2	5	1	2	6	87	5	1	2335	0	07005	2	5	1	2	6	88	11	1	2646	0	07005	2	5	1	2	6	89	2	0	1913	0	07005	2	5	1	2	6	90	13	0	2012	0	07005	2	5	1	2	6	91	6	1	1522	0	07005	2	5	1	2	6	92	7	1	3245	0	07005	2	5	1	2	6	93	3	0	30	0	07005	2	5	1	2	6	94	8	0	1152	0	07005	2	5	1	2	6	95	1	0	1091	0	07005	2	5	1	2	6	96	9	0	560	0	07005	2	5	1	2	7	97	8	0	676	0	07005	2	5	1	2	7	98	12	0	5372	0	07005	2	5	1	2	7	99	16	1	6625	0	07005	2	5	1	2	7	100	14	1	5640	0	07005	2	5	1	2	7	101	3	0	739	0	07005	2	5	1	2	7	102	5	1	8447	0	07005	2	5	1	2	7	103	6	1	10330	0	07005	2	5	1	2	7	104	11	1	9859	0	07005	2	5	1	2	7	105	9	0	6936	0	07005	2	5	1	2	7	106	4	1	1506	0	07005	2	5	1	2	7	107	13	0	973	0	07005	2	5	1	2	7	108	7	1	17504	0	07005	2	5	1	2	7	109	1	0	12101	0	07005	2	5	1	2	7	110	2	0	17010	0	07005	2	5	1	2	7	111	10	1	10604	0	07005	2	5	1	2	7	112	15	0	3610	0	07005	2	5	1	2	8	113	8	0	2651	0	07005	2	5	1	2	8	114	14	1	23669	0	07005	2	5	1	2	8	115	9	0	18387	0	07005	2	5	1	2	8	116	10	1	10377	0	07005	2	5	1	2	8	117	12	0	24024	0	07005	2	5	1	2	8	118	11	1	17413	0	07005	2	5	1	2	8	119	2	0	3478	0	07005	2	5	1	2	8	120	4	1	1005	0	07005	2	5	1	2	8	121	16	1	782	0	07005	2	5	1	2	8	122	5	1	27433	0	07005	2	5	1	2	8	123	3	0	852	0	07005	2	5	1	2	8	124	7	1	5659	0	07005	2	5	1	2	8	125	1	0	1596	0	07005	2	5	1	2	8	126	13	0	12532	0	07005	2	5	1	2	8	127	15	0	9526	0	07005	2	5	1	2	8	128	6	1	10786	0	07006	2	6	2	1	1	1	7	0	2597	3	27097006	2	6	2	1	1	2	8	0	573	3	18927006	2	6	2	1	1	3	1	0	1167	3	11417006	2	6	2	1	1	4	5	1	1239	1	12817006	2	6	2	1	1	5	4	0	718	3	9997006	2	6	2	1	1	6	6	1	760	1	11027006	2	6	2	1	1	7	3	1	9267	2	5097006	2	6	2	1	1	8	2	1	796	3	3857006	2	6	2	1	2	9	8	1	421	3	4267006	2	6	2	1	2	10	7	1	404	3	3707006	2	6	2	1	2	11	1	1	1126	3	10697006	2	6	2	1	2	12	5	1	891	2	3807006	2	6	2	1	2	13	2	0	1400	2	9077006	2	6	2	1	2	14	3	1	569	3	4327006	2	6	2	1	2	15	6	1	809	3	4057006	2	6	2	1	2	16	4	1	1656	2	4097006	2	6	2	1	3	17	3	1	523	3	3497006	2	6	2	1	3	18	4	1	1074	3	4837006	2	6	2	1	3	19	8	0	841	2	3817006	2	6	2	1	3	20	5	1	1377	3	4137006	2	6	2	1	3	21	1	0	2063	2	4307006	2	6	2	1	3	22	7	0	3487	1	3697006	2	6	2	1	3	23	6	1	629	3	4337006	2	6	2	1	3	24	2	1	1907	3	2807006	2	6	2	2	1	1	1	1	5054	0	07006	2	6	2	2	1	2	10	0	945	0	07006	2	6	2	2	1	3	16	0	261	0	07006	2	6	2	2	1	4	9	0	886	0	07006	2	6	2	2	1	5	13	0	284	0	07006	2	6	2	2	1	6	15	0	1844	0	07006	2	6	2	2	1	7	2	1	466	0	07006	2	6	2	2	1	8	3	1	538	0	07006	2	6	2	2	1	9	5	0	1199	0	07006	2	6	2	2	1	10	8	0	2375	0	07006	2	6	2	2	1	11	4	1	382	0	07006	2	6	2	2	1	12	7	0	1889	0	07006	2	6	2	2	1	13	12	1	1588	0	07006	2	6	2	2	1	14	14	1	1068	0	07006	2	6	2	2	1	15	6	0	507	0	07006	2	6	2	2	1	16	11	0	649	0	07006	2	6	2	2	2	17	3	1	1826	0	07006	2	6	2	2	2	18	1	1	904	0	07006	2	6	2	2	2	19	15	1	1197	0	07006	2	6	2	2	2	20	11	0	205	0	07006	2	6	2	2	2	21	2	1	5665	0	07006	2	6	2	2	2	22	9	0	298	0	07006	2	6	2	2	2	23	8	0	361	0	07006	2	6	2	2	2	24	16	1	366	0	07006	2	6	2	2	2	25	14	1	371	0	07006	2	6	2	2	2	26	4	1	279	0	07006	2	6	2	2	2	27	7	0	368	0	07006	2	6	2	2	2	28	6	0	420	0	07006	2	6	2	2	2	29	12	1	653	0	07006	2	6	2	2	2	30	5	0	214	0	07006	2	6	2	2	2	31	10	1	209	0	07006	2	6	2	2	2	32	13	1	1565	0	07006	2	6	2	2	3	33	2	0	262	0	07006	2	6	2	2	3	34	8	0	288	0	07006	2	6	2	2	3	35	6	0	256	0	07006	2	6	2	2	3	36	4	1	329	0	07006	2	6	2	2	3	37	7	0	472	0	07006	2	6	2	2	3	38	5	0	456	0	07006	2	6	2	2	3	39	16	1	559	0	07006	2	6	2	2	3	40	12	1	956	0	07006	2	6	2	2	3	41	1	1	1127	0	07006	2	6	2	2	3	42	14	1	291	0	07006	2	6	2	2	3	43	10	0	307	0	07006	2	6	2	2	3	44	15	1	611	0	07006	2	6	2	2	3	45	11	0	349	0	07006	2	6	2	2	3	46	9	0	394	0	07006	2	6	2	2	3	47	13	1	662	0	07006	2	6	2	2	3	48	3	1	662	0	07006	2	6	2	2	4	49	1	1	350	0	07006	2	6	2	2	4	50	5	0	218	0	07006	2	6	2	2	4	51	16	0	485	0	07006	2	6	2	2	4	52	10	1	260	0	07006	2	6	2	2	4	53	2	1	2182	0	07006	2	6	2	2	4	54	14	1	461	0	07006	2	6	2	2	4	55	6	0	286	0	07006	2	6	2	2	4	56	3	1	398	0	07006	2	6	2	2	4	57	15	1	281	0	07006	2	6	2	2	4	58	7	0	265	0	07006	2	6	2	2	4	59	9	1	330	0	07006	2	6	2	2	4	60	13	0	152	0	07006	2	6	2	2	4	61	4	1	317	0	07006	2	6	2	2	4	62	12	0	284	0	07006	2	6	2	2	4	63	8	1	388	0	07006	2	6	2	2	4	64	11	0	807	0	07006	2	6	2	2	5	65	16	1	273	0	07006	2	6	2	2	5	66	8	1	1618	0	07006	2	6	2	2	5	67	6	0	273	0	07006	2	6	2	2	5	68	9	1	1130	0	07006	2	6	2	2	5	69	15	1	1006	0	07006	2	6	2	2	5	70	7	0	231	0	07006	2	6	2	2	5	71	5	0	272	0	07006	2	6	2	2	5	72	11	0	209	0	07006	2	6	2	2	5	73	10	1	332	0	07006	2	6	2	2	5	74	2	1	386	0	07006	2	6	2	2	5	75	4	1	230	0	07006	2	6	2	2	5	76	12	0	320	0	07006	2	6	2	2	5	77	1	1	1222	0	07006	2	6	2	2	5	78	13	0	278	0	07006	2	6	2	2	5	79	14	1	287	0	07006	2	6	2	2	5	80	3	1	743	0	07006	2	6	2	2	6	81	12	1	268	0	07006	2	6	2	2	6	82	7	0	339	0	07006	2	6	2	2	6	83	3	1	281	0	07006	2	6	2	2	6	84	9	0	249	0	07006	2	6	2	2	6	85	5	0	274	0	07006	2	6	2	2	6	86	11	0	211	0	07006	2	6	2	2	6	87	15	1	199	0	07006	2	6	2	2	6	88	2	1	434	0	07006	2	6	2	2	6	89	10	0	420	0	07006	2	6	2	2	6	90	4	1	1166	0	07006	2	6	2	2	6	91	16	1	393	0	07006	2	6	2	2	6	92	8	0	20	0	07006	2	6	2	2	6	93	13	0	384	0	07006	2	6	2	2	6	94	14	1	282	0	07006	2	6	2	2	6	95	1	1	386	0	07006	2	6	2	2	6	96	6	0	446	0	07006	2	6	2	2	7	97	5	0	591	0	07006	2	6	2	2	7	98	12	1	786	0	07006	2	6	2	2	7	99	9	1	333	0	07006	2	6	2	2	7	100	6	0	2283	0	07006	2	6	2	2	7	101	15	1	741	0	07006	2	6	2	2	7	102	1	0	402	0	07006	2	6	2	2	7	103	4	1	341	0	07006	2	6	2	2	7	104	11	1	234	0	07006	2	6	2	2	7	105	3	0	636	0	07006	2	6	2	2	7	106	14	0	253	0	07006	2	6	2	2	7	107	8	1	246	0	07006	2	6	2	2	7	108	16	1	392	0	07006	2	6	2	2	7	109	10	1	235	0	07006	2	6	2	2	7	110	13	0	653	0	07006	2	6	2	2	7	111	2	1	790	0	07006	2	6	2	2	7	112	7	1	688	0	07006	2	6	2	2	8	113	3	1	247	0	07006	2	6	2	2	8	114	6	0	56	0	07006	2	6	2	2	8	115	13	0	289	0	07006	2	6	2	2	8	116	9	0	153	0	07006	2	6	2	2	8	117	7	0	335	0	07006	2	6	2	2	8	118	2	1	997	0	07006	2	6	2	2	8	119	5	0	191	0	07006	2	6	2	2	8	120	16	1	259	0	07006	2	6	2	2	8	121	11	0	1324	0	07006	2	6	2	2	8	122	14	1	256	0	07006	2	6	2	2	8	123	10	1	697	0	07006	2	6	2	2	8	124	8	0	272	0	07006	2	6	2	2	8	125	15	1	321	0	07006	2	6	2	2	8	126	1	1	518	0	07006	2	6	2	2	8	127	12	0	228	0	07006	2	6	2	2	8	128	4	1	510	0	07007	2	7	1	1	1	1	1	0	2713	3	25487007	2	7	1	1	1	2	7	0	763	3	9787007	2	7	1	1	1	3	6	0	1316	3	6907007	2	7	1	1	1	4	2	1	1617	2	12357007	2	7	1	1	1	5	5	0	930	2	14497007	2	7	1	1	1	6	3	1	1761	3	4037007	2	7	1	1	1	7	4	0	429	2	8667007	2	7	1	1	1	8	8	0	624	2	6777007	2	7	1	1	2	9	1	1	788	2	9947007	2	7	1	1	2	10	6	0	483	3	14697007	2	7	1	1	2	11	3	1	298	3	9337007	2	7	1	1	2	12	7	0	929	3	6567007	2	7	1	1	2	13	2	1	304	3	7947007	2	7	1	1	2	14	5	1	92	3	8797007	2	7	1	1	2	15	8	1	245	3	3067007	2	7	1	1	2	16	4	1	376	3	3357007	2	7	1	1	3	17	7	1	381	3	3397007	2	7	1	1	3	18	8	0	273	3	3097007	2	7	1	1	3	19	1	1	76	3	4477007	2	7	1	1	3	20	6	1	48	3	8697007	2	7	1	1	3	21	4	1	276	3	3357007	2	7	1	1	3	22	3	1	133	3	10317007	2	7	1	1	3	23	2	1	118	3	4257007	2	7	1	1	3	24	5	1	419	3	2487007	2	7	1	2	1	1	1	1	3001	0	07007	2	7	1	2	1	2	3	1	1004	0	07007	2	7	1	2	1	3	5	0	1540	0	07007	2	7	1	2	1	4	13	1	534	0	07007	2	7	1	2	1	5	14	0	644	0	07007	2	7	1	2	1	6	4	0	460	0	07007	2	7	1	2	1	7	10	1	228	0	07007	2	7	1	2	1	8	7	0	15	0	07007	2	7	1	2	1	9	8	1	298	0	07007	2	7	1	2	1	10	15	0	921	0	07007	2	7	1	2	1	11	6	1	646	0	07007	2	7	1	2	1	12	11	0	567	0	07007	2	7	1	2	1	13	12	1	315	0	07007	2	7	1	2	1	14	9	0	176	0	07007	2	7	1	2	1	15	2	0	469	0	07007	2	7	1	2	1	16	16	0	146	0	07007	2	7	1	2	2	17	9	0	339	0	07007	2	7	1	2	2	18	10	1	305	0	07007	2	7	1	2	2	19	8	0	568	0	07007	2	7	1	2	2	20	16	0	484	0	07007	2	7	1	2	2	21	15	1	587	0	07007	2	7	1	2	2	22	13	0	318	0	07007	2	7	1	2	2	23	1	1	277	0	07007	2	7	1	2	2	24	12	0	5	0	07007	2	7	1	2	2	25	4	0	370	0	07007	2	7	1	2	2	26	11	0	333	0	07007	2	7	1	2	2	27	5	1	291	0	07007	2	7	1	2	2	28	2	1	235	0	07007	2	7	1	2	2	29	7	1	509	0	07007	2	7	1	2	2	30	3	0	107	0	07007	2	7	1	2	2	31	6	0	307	0	07007	2	7	1	2	2	32	14	1	554	0	07007	2	7	1	2	3	33	9	0	63	0	07007	2	7	1	2	3	34	4	1	408	0	07007	2	7	1	2	3	35	1	0	435	0	07007	2	7	1	2	3	36	8	0	725	0	07007	2	7	1	2	3	37	16	0	922	0	07007	2	7	1	2	3	38	11	1	279	0	07007	2	7	1	2	3	39	5	0	302	0	07007	2	7	1	2	3	40	15	1	45	0	07007	2	7	1	2	3	41	13	0	135	0	07007	2	7	1	2	3	42	3	1	469	0	07007	2	7	1	2	3	43	7	0	397	0	07007	2	7	1	2	3	44	14	0	1264	0	07007	2	7	1	2	3	45	2	0	486	0	07007	2	7	1	2	3	46	6	1	285	0	07007	2	7	1	2	3	47	10	0	357	0	07007	2	7	1	2	3	48	12	0	1210	0	07007	2	7	1	2	4	49	8	1	475	0	07007	2	7	1	2	4	50	12	0	226	0	07007	2	7	1	2	4	51	14	1	909	0	07007	2	7	1	2	4	52	3	0	210	0	07007	2	7	1	2	4	53	15	1	326	0	07007	2	7	1	2	4	54	16	0	292	0	07007	2	7	1	2	4	55	9	0	1492	0	07007	2	7	1	2	4	56	1	0	377	0	07007	2	7	1	2	4	57	2	0	1173	0	07007	2	7	1	2	4	58	7	1	359	0	07007	2	7	1	2	4	59	4	0	500	0	07007	2	7	1	2	4	60	10	0	491	0	07007	2	7	1	2	4	61	11	1	793	0	07007	2	7	1	2	4	62	6	0	348	0	07007	2	7	1	2	4	63	5	0	377	0	07007	2	7	1	2	4	64	13	0	317	0	07007	2	7	1	2	5	65	7	1	196	0	07007	2	7	1	2	5	66	9	0	607	0	07007	2	7	1	2	5	67	1	0	1321	0	07007	2	7	1	2	5	68	8	1	437	0	07007	2	7	1	2	5	69	12	0	903	0	07007	2	7	1	2	5	70	4	1	484	0	07007	2	7	1	2	5	71	16	0	323	0	07007	2	7	1	2	5	72	14	1	1745	0	07007	2	7	1	2	5	73	3	0	204	0	07007	2	7	1	2	5	74	6	1	237	0	07007	2	7	1	2	5	75	5	0	303	0	07007	2	7	1	2	5	76	15	1	335	0	07007	2	7	1	2	5	77	10	0	92	0	07007	2	7	1	2	5	78	13	1	517	0	07007	2	7	1	2	5	79	11	0	235	0	07007	2	7	1	2	5	80	2	1	365	0	07007	2	7	1	2	6	81	8	1	766	0	07007	2	7	1	2	6	82	5	0	421	0	07007	2	7	1	2	6	83	12	0	342	0	07007	2	7	1	2	6	84	1	1	108	0	07007	2	7	1	2	6	85	7	0	235	0	07007	2	7	1	2	6	86	10	0	126	0	07007	2	7	1	2	6	87	6	1	333	0	07007	2	7	1	2	6	88	15	0	571	0	07007	2	7	1	2	6	89	2	0	150	0	07007	2	7	1	2	6	90	3	1	132	0	07007	2	7	1	2	6	91	4	1	394	0	07007	2	7	1	2	6	92	11	0	198	0	07007	2	7	1	2	6	93	13	1	378	0	07007	2	7	1	2	6	94	16	1	206	0	07007	2	7	1	2	6	95	14	0	362	0	07007	2	7	1	2	6	96	9	1	477	0	07007	2	7	1	2	7	97	15	0	172	0	07007	2	7	1	2	7	98	6	0	401	0	07007	2	7	1	2	7	99	9	0	428	0	07007	2	7	1	2	7	100	16	1	382	0	07007	2	7	1	2	7	101	3	0	649	0	07007	2	7	1	2	7	102	4	1	521	0	07007	2	7	1	2	7	103	8	0	503	0	07007	2	7	1	2	7	104	13	1	646	0	07007	2	7	1	2	7	105	1	0	542	0	07007	2	7	1	2	7	106	14	0	379	0	07007	2	7	1	2	7	107	5	0	1566	0	07007	2	7	1	2	7	108	10	1	968	0	07007	2	7	1	2	7	109	12	0	169	0	07007	2	7	1	2	7	110	7	1	310	0	07007	2	7	1	2	7	111	2	1	293	0	07007	2	7	1	2	7	112	11	1	293	0	07007	2	7	1	2	8	113	7	0	69	0	07007	2	7	1	2	8	114	4	0	598	0	07007	2	7	1	2	8	115	12	1	249	0	07007	2	7	1	2	8	116	10	0	354	0	07007	2	7	1	2	8	117	11	0	991	0	07007	2	7	1	2	8	118	16	1	193	0	07007	2	7	1	2	8	119	2	0	252	0	07007	2	7	1	2	8	120	6	1	342	0	07007	2	7	1	2	8	121	13	1	611	0	07007	2	7	1	2	8	122	15	0	358	0	07007	2	7	1	2	8	123	5	0	355	0	07007	2	7	1	2	8	124	8	0	264	0	07007	2	7	1	2	8	125	3	1	625	0	07007	2	7	1	2	8	126	1	0	418	0	07007	2	7	1	2	8	127	9	1	700	0	07007	2	7	1	2	8	128	14	0	250	0	07008	2	8	2	1	1	1	4	0	7155	3	18157008	2	8	2	1	1	2	8	0	1645	3	15107008	2	8	2	1	1	3	5	0	3770	1	10357008	2	8	2	1	1	4	7	0	3502	3	15437008	2	8	2	1	1	5	6	0	1761	2	27087008	2	8	2	1	1	6	2	0	4500	2	5757008	2	8	2	1	1	7	3	0	2302	3	5157008	2	8	2	1	1	8	1	1	1808	2	27387008	2	8	2	1	2	9	5	1	937	2	17847008	2	8	2	1	2	10	6	1	1343	3	14057008	2	8	2	1	2	11	1	1	1349	2	5947008	2	8	2	1	2	12	4	1	829	2	6257008	2	8	2	1	2	13	2	0	882	2	6367008	2	8	2	1	2	14	3	1	997	2	3617008	2	8	2	1	2	15	8	0	4405	1	10957008	2	8	2	1	2	16	7	0	1533	1	12587008	2	8	2	1	3	17	8	1	552	2	7847008	2	8	2	1	3	18	7	1	754	2	5377008	2	8	2	1	3	19	3	0	2086	1	7877008	2	8	2	1	3	20	5	1	830	1	9537008	2	8	2	1	3	21	4	1	524	2	6137008	2	8	2	1	3	22	6	1	1495	3	11587008	2	8	2	1	3	23	2	1	2744	2	3627008	2	8	2	1	3	24	1	1	2639	2	3817008	2	8	2	2	1	1	4	1	4301	0	07008	2	8	2	2	1	2	5	0	1129	0	07008	2	8	2	2	1	3	9	0	1548	0	07008	2	8	2	2	1	4	14	1	750	0	07008	2	8	2	2	1	5	2	0	386	0	07008	2	8	2	2	1	6	13	0	629	0	07008	2	8	2	2	1	7	8	1	631	0	07008	2	8	2	2	1	8	12	1	728	0	07008	2	8	2	2	1	9	7	1	494	0	07008	2	8	2	2	1	10	3	0	629	0	07008	2	8	2	2	1	11	15	1	840	0	07008	2	8	2	2	1	12	10	0	655	0	07008	2	8	2	2	1	13	16	0	903	0	07008	2	8	2	2	1	14	11	1	692	0	07008	2	8	2	2	1	15	1	1	779	0	07008	2	8	2	2	1	16	6	1	510	0	07008	2	8	2	2	2	17	10	0	405	0	07008	2	8	2	2	2	18	14	0	1072	0	07008	2	8	2	2	2	19	12	0	710	0	07008	2	8	2	2	2	20	3	1	308	0	07008	2	8	2	2	2	21	5	0	403	0	07008	2	8	2	2	2	22	16	1	606	0	07008	2	8	2	2	2	23	6	0	712	0	07008	2	8	2	2	2	24	8	0	1069	0	07008	2	8	2	2	2	25	1	1	556	0	07008	2	8	2	2	2	26	4	0	752	0	07008	2	8	2	2	2	27	11	0	436	0	07008	2	8	2	2	2	28	9	1	317	0	07008	2	8	2	2	2	29	13	1	796	0	07008	2	8	2	2	2	30	15	0	854	0	07008	2	8	2	2	2	31	7	1	969	0	07008	2	8	2	2	2	32	2	1	1040	0	07008	2	8	2	2	3	33	12	0	416	0	07008	2	8	2	2	3	34	3	0	427	0	07008	2	8	2	2	3	35	5	0	1148	0	07008	2	8	2	2	3	36	16	0	279	0	07008	2	8	2	2	3	37	13	1	360	0	07008	2	8	2	2	3	38	7	1	469	0	07008	2	8	2	2	3	39	8	0	669	0	07008	2	8	2	2	3	40	6	1	316	0	07008	2	8	2	2	3	41	10	0	235	0	07008	2	8	2	2	3	42	9	1	1893	0	07008	2	8	2	2	3	43	11	0	336	0	07008	2	8	2	2	3	44	4	0	1741	0	07008	2	8	2	2	3	45	1	1	455	0	07008	2	8	2	2	3	46	14	0	304	0	07008	2	8	2	2	3	47	15	1	799	0	07008	2	8	2	2	3	48	2	1	600	0	07008	2	8	2	2	4	49	6	0	326	0	07008	2	8	2	2	4	50	11	0	337	0	07008	2	8	2	2	4	51	13	1	623	0	07008	2	8	2	2	4	52	16	0	737	0	07008	2	8	2	2	4	53	10	0	301	0	07008	2	8	2	2	4	54	15	1	244	0	07008	2	8	2	2	4	55	1	1	1254	0	07008	2	8	2	2	4	56	4	0	301	0	07008	2	8	2	2	4	57	3	1	420	0	07008	2	8	2	2	4	58	14	1	462	0	07008	2	8	2	2	4	59	12	1	279	0	07008	2	8	2	2	4	60	8	1	751	0	07008	2	8	2	2	4	61	5	0	283	0	07008	2	8	2	2	4	62	2	1	395	0	07008	2	8	2	2	4	63	9	1	1815	0	07008	2	8	2	2	4	64	7	0	277	0	07008	2	8	2	2	5	65	4	0	334	0	07008	2	8	2	2	5	66	14	0	636	0	07008	2	8	2	2	5	67	16	0	341	0	07008	2	8	2	2	5	68	8	1	363	0	07008	2	8	2	2	5	69	1	1	407	0	07008	2	8	2	2	5	70	10	0	402	0	07008	2	8	2	2	5	71	5	0	365	0	07008	2	8	2	2	5	72	2	1	361	0	07008	2	8	2	2	5	73	11	0	390	0	07008	2	8	2	2	5	74	6	0	417	0	07008	2	8	2	2	5	75	3	1	356	0	07008	2	8	2	2	5	76	15	1	385	0	07008	2	8	2	2	5	77	7	1	348	0	07008	2	8	2	2	5	78	13	1	529	0	07008	2	8	2	2	5	79	12	1	343	0	07008	2	8	2	2	5	80	9	1	341	0	07008	2	8	2	2	6	81	1	1	359	0	07008	2	8	2	2	6	82	5	0	376	0	07008	2	8	2	2	6	83	4	0	316	0	07008	2	8	2	2	6	84	2	0	363	0	07008	2	8	2	2	6	85	3	0	528	0	07008	2	8	2	2	6	86	13	1	365	0	07008	2	8	2	2	6	87	14	0	394	0	07008	2	8	2	2	6	88	12	1	1638	0	07008	2	8	2	2	6	89	8	0	371	0	07008	2	8	2	2	6	90	7	0	352	0	07008	2	8	2	2	6	91	11	0	573	0	07008	2	8	2	2	6	92	10	0	392	0	07008	2	8	2	2	6	93	6	0	308	0	07008	2	8	2	2	6	94	16	0	370	0	07008	2	8	2	2	6	95	15	1	471	0	07008	2	8	2	2	6	96	9	1	743	0	07008	2	8	2	2	7	97	11	0	291	0	07008	2	8	2	2	7	98	13	1	195	0	07008	2	8	2	2	7	99	5	0	343	0	07008	2	8	2	2	7	100	16	0	837	0	07008	2	8	2	2	7	101	2	1	205	0	07008	2	8	2	2	7	102	15	1	257	0	07008	2	8	2	2	7	103	1	1	1034	0	07008	2	8	2	2	7	104	3	1	594	0	07008	2	8	2	2	7	105	14	0	580	0	07008	2	8	2	2	7	106	4	0	689	0	07008	2	8	2	2	7	107	10	0	527	0	07008	2	8	2	2	7	108	6	0	324	0	07008	2	8	2	2	7	109	9	1	315	0	07008	2	8	2	2	7	110	12	1	289	0	07008	2	8	2	2	7	111	8	1	377	0	07008	2	8	2	2	7	112	7	0	342	0	07008	2	8	2	2	8	113	3	0	1115	0	07008	2	8	2	2	8	114	13	0	328	0	07008	2	8	2	2	8	115	11	0	463	0	07008	2	8	2	2	8	116	1	1	279	0	07008	2	8	2	2	8	117	12	1	336	0	07008	2	8	2	2	8	118	4	0	405	0	07008	2	8	2	2	8	119	10	0	529	0	07008	2	8	2	2	8	120	9	1	94	0	07008	2	8	2	2	8	121	7	0	358	0	07008	2	8	2	2	8	122	8	1	397	0	07008	2	8	2	2	8	123	16	0	334	0	07008	2	8	2	2	8	124	14	0	268	0	07008	2	8	2	2	8	125	6	0	492	0	07008	2	8	2	2	8	126	5	0	516	0	07008	2	8	2	2	8	127	15	1	402	0	07008	2	8	2	2	8	128	2	1	613	0	07009	2	1	2	1	1	1	5	0	2563	1	42767009	2	1	2	1	1	2	7	1	4976	2	20267009	2	1	2	1	1	3	3	0	2463	1	15177009	2	1	2	1	1	4	6	1	1320	1	15597009	2	1	2	1	1	5	1	0	1472	1	23047009	2	1	2	1	1	6	8	0	1274	2	16267009	2	1	2	1	1	7	4	1	1200	2	17487009	2	1	2	1	1	8	2	0	1949	1	14967009	2	1	2	1	2	9	3	1	748	1	9557009	2	1	2	1	2	10	2	1	3069	1	8337009	2	1	2	1	2	11	1	0	3609	3	7737009	2	1	2	1	2	12	5	0	688	1	11547009	2	1	2	1	2	13	8	0	6052	2	15927009	2	1	2	1	2	14	6	0	456	1	10767009	2	1	2	1	2	15	4	1	1090	2	10427009	2	1	2	1	2	16	7	1	945	2	7767009	2	1	2	1	3	17	6	1	4273	1	4657009	2	1	2	1	3	18	3	1	18	1	4807009	2	1	2	1	3	19	5	0	847	2	3227009	2	1	2	1	3	20	4	1	584	3	3507009	2	1	2	1	3	21	1	1	1819	2	3567009	2	1	2	1	3	22	7	1	392	1	2867009	2	1	2	1	3	23	8	0	1230	2	2977009	2	1	2	1	3	24	2	1	384	1	2877009	2	1	2	2	1	1	12	1	5533	0	07009	2	1	2	2	1	2	16	1	868	0	07009	2	1	2	2	1	3	15	0	859	0	07009	2	1	2	2	1	4	2	1	1330	0	07009	2	1	2	2	1	5	9	0	1956	0	07009	2	1	2	2	1	6	10	0	540	0	07009	2	1	2	2	1	7	8	0	1681	0	07009	2	1	2	2	1	8	5	0	2349	0	07009	2	1	2	2	1	9	1	1	388	0	07009	2	1	2	2	1	10	14	1	200	0	07009	2	1	2	2	1	11	3	1	324	0	07009	2	1	2	2	1	12	4	1	1874	0	07009	2	1	2	2	1	13	7	0	2222	0	07009	2	1	2	2	1	14	6	1	1043	0	07009	2	1	2	2	1	15	11	1	449	0	07009	2	1	2	2	1	16	13	0	283	0	07009	2	1	2	2	2	17	6	0	1834	0	07009	2	1	2	2	2	18	3	1	535	0	07009	2	1	2	2	2	19	11	0	421	0	07009	2	1	2	2	2	20	4	1	487	0	07009	2	1	2	2	2	21	12	1	894	0	07009	2	1	2	2	2	22	7	0	1020	0	07009	2	1	2	2	2	23	9	0	2068	0	07009	2	1	2	2	2	24	10	1	367	0	07009	2	1	2	2	2	25	8	1	316	0	07009	2	1	2	2	2	26	13	1	458	0	07009	2	1	2	2	2	27	1	1	403	0	07009	2	1	2	2	2	28	5	0	1301	0	07009	2	1	2	2	2	29	14	1	577	0	07009	2	1	2	2	2	30	16	0	356	0	07009	2	1	2	2	2	31	2	1	337	0	07009	2	1	2	2	2	32	15	0	767	0	07009	2	1	2	2	3	33	8	0	450	0	07009	2	1	2	2	3	34	11	1	371	0	07009	2	1	2	2	3	35	5	0	1271	0	07009	2	1	2	2	3	36	4	1	677	0	07009	2	1	2	2	3	37	15	1	429	0	07009	2	1	2	2	3	38	7	0	446	0	07009	2	1	2	2	3	39	10	0	303	0	07009	2	1	2	2	3	40	9	0	686	0	07009	2	1	2	2	3	41	1	1	372	0	07009	2	1	2	2	3	42	16	1	416	0	07009	2	1	2	2	3	43	2	1	130	0	07009	2	1	2	2	3	44	6	0	329	0	07009	2	1	2	2	3	45	13	0	382	0	07009	2	1	2	2	3	46	12	1	498	0	07009	2	1	2	2	3	47	14	1	305	0	07009	2	1	2	2	3	48	3	1	1040	0	07009	2	1	2	2	4	49	11	0	272	0	07009	2	1	2	2	4	50	2	1	2480	0	07009	2	1	2	2	4	51	15	0	386	0	07009	2	1	2	2	4	52	16	1	486	0	07009	2	1	2	2	4	53	1	1	309	0	07009	2	1	2	2	4	54	13	0	340	0	07009	2	1	2	2	4	55	8	0	313	0	07009	2	1	2	2	4	56	3	1	296	0	07009	2	1	2	2	4	57	4	1	287	0	07009	2	1	2	2	4	58	9	1	607	0	07009	2	1	2	2	4	59	7	0	1697	0	07009	2	1	2	2	4	60	14	1	284	0	07009	2	1	2	2	4	61	6	0	900	0	07009	2	1	2	2	4	62	5	0	258	0	07009	2	1	2	2	4	63	12	1	363	0	07009	2	1	2	2	4	64	10	1	511	0	07009	2	1	2	2	5	65	8	0	333	0	07009	2	1	2	2	5	66	3	1	2267	0	07009	2	1	2	2	5	67	13	1	1174	0	07009	2	1	2	2	5	68	9	1	1383	0	07009	2	1	2	2	5	69	1	1	336	0	07009	2	1	2	2	5	70	5	0	277	0	07009	2	1	2	2	5	71	4	0	957	0	07009	2	1	2	2	5	72	7	0	384	0	07009	2	1	2	2	5	73	10	1	956	0	07009	2	1	2	2	5	74	6	0	511	0	07009	2	1	2	2	5	75	14	1	341	0	07009	2	1	2	2	5	76	11	1	412	0	07009	2	1	2	2	5	77	15	0	359	0	07009	2	1	2	2	5	78	12	1	722	0	07009	2	1	2	2	5	79	16	1	319	0	07009	2	1	2	2	5	80	2	1	486	0	07009	2	1	2	2	6	81	14	1	404	0	07009	2	1	2	2	6	82	12	0	391	0	07009	2	1	2	2	6	83	6	0	306	0	07009	2	1	2	2	6	84	15	0	930	0	07009	2	1	2	2	6	85	1	1	454	0	07009	2	1	2	2	6	86	9	1	470	0	07009	2	1	2	2	6	87	4	1	438	0	07009	2	1	2	2	6	88	3	1	424	0	07009	2	1	2	2	6	89	5	0	434	0	07009	2	1	2	2	6	90	10	1	373	0	07009	2	1	2	2	6	91	7	0	258	0	07009	2	1	2	2	6	92	11	1	489	0	07009	2	1	2	2	6	93	13	0	593	0	07009	2	1	2	2	6	94	8	0	308	0	07009	2	1	2	2	6	95	2	1	314	0	07009	2	1	2	2	6	96	16	0	368	0	07009	2	1	2	2	7	97	1	1	309	0	07009	2	1	2	2	7	98	5	0	379	0	07009	2	1	2	2	7	99	4	1	591	0	07009	2	1	2	2	7	100	7	1	818	0	07009	2	1	2	2	7	101	11	0	755	0	07009	2	1	2	2	7	102	12	1	1879	0	07009	2	1	2	2	7	103	3	1	379	0	07009	2	1	2	2	7	104	14	1	1510	0	07009	2	1	2	2	7	105	16	1	2257	0	07009	2	1	2	2	7	106	9	1	469	0	07009	2	1	2	2	7	107	13	0	1917	0	07009	2	1	2	2	7	108	8	0	365	0	07009	2	1	2	2	7	109	6	1	300	0	07009	2	1	2	2	7	110	15	1	433	0	07009	2	1	2	2	7	111	2	1	1411	0	07009	2	1	2	2	7	112	10	1	330	0	07009	2	1	2	2	8	113	4	1	6000	0	07009	2	1	2	2	8	114	2	1	467	0	07009	2	1	2	2	8	115	11	1	1180	0	07009	2	1	2	2	8	116	13	1	629	0	07009	2	1	2	2	8	117	7	1	2381	0	07009	2	1	2	2	8	118	1	0	1412	0	07009	2	1	2	2	8	119	14	1	3091	0	07009	2	1	2	2	8	120	8	1	1651	0	07009	2	1	2	2	8	121	12	1	863	0	07009	2	1	2	2	8	122	16	1	2046	0	07009	2	1	2	2	8	123	10	1	1675	0	07009	2	1	2	2	8	124	3	1	815	0	07009	2	1	2	2	8	125	5	1	1664	0	07009	2	1	2	2	8	126	9	1	1709	0	07009	2	1	2	2	8	127	15	0	840	0	07009	2	1	2	2	8	128	6	0	232	0	07010	2	2	1	1	1	1	8	0	2959	1	19757010	2	2	1	1	1	2	5	0	623	1	13237010	2	2	1	1	1	3	6	0	1982	1	8167010	2	2	1	1	1	4	3	1	696	1	9467010	2	2	1	1	1	5	4	0	1493	1	7087010	2	2	1	1	1	6	2	0	490	2	13807010	2	2	1	1	1	7	7	0	501	2	10157010	2	2	1	1	1	8	1	0	1655	3	16317010	2	2	1	1	2	9	7	0	373	2	6857010	2	2	1	1	2	10	5	1	1004	2	8087010	2	2	1	1	2	11	8	0	282	2	7897010	2	2	1	1	2	12	6	0	974	2	7887010	2	2	1	1	2	13	1	1	1062	1	8647010	2	2	1	1	2	14	3	1	1151	1	5657010	2	2	1	1	2	15	4	1	480	1	6837010	2	2	1	1	2	16	2	1	746	1	4417010	2	2	1	1	3	17	1	1	497	1	5557010	2	2	1	1	3	18	3	1	1336	1	5667010	2	2	1	1	3	19	8	1	849	1	8127010	2	2	1	1	3	20	6	0	61	1	4747010	2	2	1	1	3	21	7	0	488	2	7147010	2	2	1	1	3	22	2	0	1408	2	3637010	2	2	1	1	3	23	4	0	431	2	5087010	2	2	1	1	3	24	5	1	562	2	10257010	2	2	1	2	1	1	3	1	2055	0	07010	2	2	1	2	1	2	16	1	483	0	07010	2	2	1	2	1	3	9	1	146	0	07010	2	2	1	2	1	4	15	0	3064	0	07010	2	2	1	2	1	5	1	1	353	0	07010	2	2	1	2	1	6	14	0	422	0	07010	2	2	1	2	1	7	2	0	415	0	07010	2	2	1	2	1	8	7	0	282	0	07010	2	2	1	2	1	9	6	0	338	0	07010	2	2	1	2	1	10	11	0	367	0	07010	2	2	1	2	1	11	8	0	492	0	07010	2	2	1	2	1	12	5	0	411	0	07010	2	2	1	2	1	13	4	1	445	0	07010	2	2	1	2	1	14	12	1	350	0	07010	2	2	1	2	1	15	10	1	259	0	07010	2	2	1	2	1	16	13	1	285	0	07010	2	2	1	2	2	17	8	1	405	0	07010	2	2	1	2	2	18	6	0	231	0	07010	2	2	1	2	2	19	7	0	273	0	07010	2	2	1	2	2	20	3	0	729	0	07010	2	2	1	2	2	21	15	0	390	0	07010	2	2	1	2	2	22	11	0	282	0	07010	2	2	1	2	2	23	13	0	362	0	07010	2	2	1	2	2	24	1	1	342	0	07010	2	2	1	2	2	25	16	1	348	0	07010	2	2	1	2	2	26	14	1	225	0	07010	2	2	1	2	2	27	10	1	252	0	07010	2	2	1	2	2	28	12	1	325	0	07010	2	2	1	2	2	29	2	1	332	0	07010	2	2	1	2	2	30	9	0	304	0	07010	2	2	1	2	2	31	5	0	312	0	07010	2	2	1	2	2	32	4	1	214	0	07010	2	2	1	2	3	33	16	1	273	0	07010	2	2	1	2	3	34	3	1	370	0	07010	2	2	1	2	3	35	12	1	286	0	07010	2	2	1	2	3	36	11	1	550	0	07010	2	2	1	2	3	37	13	0	363	0	07010	2	2	1	2	3	38	4	1	255	0	07010	2	2	1	2	3	39	2	1	360	0	07010	2	2	1	2	3	40	6	0	245	0	07010	2	2	1	2	3	41	14	1	421	0	07010	2	2	1	2	3	42	15	0	295	0	07010	2	2	1	2	3	43	8	0	279	0	07010	2	2	1	2	3	44	5	0	471	0	07010	2	2	1	2	3	45	10	1	799	0	07010	2	2	1	2	3	46	9	0	384	0	07010	2	2	1	2	3	47	7	0	324	0	07010	2	2	1	2	3	48	1	1	795	0	07010	2	2	1	2	4	49	2	1	348	0	07010	2	2	1	2	4	50	5	0	265	0	07010	2	2	1	2	4	51	4	1	290	0	07010	2	2	1	2	4	52	14	1	753	0	07010	2	2	1	2	4	53	15	0	325	0	07010	2	2	1	2	4	54	13	0	332	0	07010	2	2	1	2	4	55	12	1	249	0	07010	2	2	1	2	4	56	16	1	435	0	07010	2	2	1	2	4	57	7	0	308	0	07010	2	2	1	2	4	58	9	0	531	0	07010	2	2	1	2	4	59	10	1	353	0	07010	2	2	1	2	4	60	1	0	662	0	07010	2	2	1	2	4	61	8	0	310	0	07010	2	2	1	2	4	62	6	0	333	0	07010	2	2	1	2	4	63	11	0	378	0	07010	2	2	1	2	4	64	3	1	286	0	07010	2	2	1	2	5	65	7	0	702	0	07010	2	2	1	2	5	66	2	1	404	0	07010	2	2	1	2	5	67	13	0	463	0	07010	2	2	1	2	5	68	16	1	287	0	07010	2	2	1	2	5	69	10	1	335	0	07010	2	2	1	2	5	70	11	0	285	0	07010	2	2	1	2	5	71	14	1	292	0	07010	2	2	1	2	5	72	12	1	284	0	07010	2	2	1	2	5	73	3	1	412	0	07010	2	2	1	2	5	74	9	0	367	0	07010	2	2	1	2	5	75	15	0	362	0	07010	2	2	1	2	5	76	4	1	398	0	07010	2	2	1	2	5	77	8	0	425	0	07010	2	2	1	2	5	78	6	1	732	0	07010	2	2	1	2	5	79	1	1	392	0	07010	2	2	1	2	5	80	5	0	276	0	07010	2	2	1	2	6	81	13	0	317	0	07010	2	2	1	2	6	82	12	1	323	0	07010	2	2	1	2	6	83	7	0	322	0	07010	2	2	1	2	6	84	3	1	640	0	07010	2	2	1	2	6	85	4	1	440	0	07010	2	2	1	2	6	86	6	1	1258	0	07010	2	2	1	2	6	87	16	1	472	0	07010	2	2	1	2	6	88	11	0	336	0	07010	2	2	1	2	6	89	5	0	406	0	07010	2	2	1	2	6	90	8	0	409	0	07010	2	2	1	2	6	91	14	1	515	0	07010	2	2	1	2	6	92	1	1	457	0	07010	2	2	1	2	6	93	15	0	314	0	07010	2	2	1	2	6	94	9	0	448	0	07010	2	2	1	2	6	95	10	1	689	0	07010	2	2	1	2	6	96	2	0	679	0	07010	2	2	1	2	7	97	9	0	1174	0	07010	2	2	1	2	7	98	14	1	656	0	07010	2	2	1	2	7	99	4	1	560	0	07010	2	2	1	2	7	100	1	1	668	0	07010	2	2	1	2	7	101	5	0	539	0	07010	2	2	1	2	7	102	12	1	296	0	07010	2	2	1	2	7	103	2	1	407	0	07010	2	2	1	2	7	104	13	0	298	0	07010	2	2	1	2	7	105	7	0	530	0	07010	2	2	1	2	7	106	6	0	382	0	07010	2	2	1	2	7	107	3	1	730	0	07010	2	2	1	2	7	108	11	0	414	0	07010	2	2	1	2	7	109	8	0	456	0	07010	2	2	1	2	7	110	10	1	257	0	07010	2	2	1	2	7	111	15	0	795	0	07010	2	2	1	2	7	112	16	1	516	0	07010	2	2	1	2	8	113	14	1	234	0	07010	2	2	1	2	8	114	1	1	292	0	07010	2	2	1	2	8	115	5	0	340	0	07010	2	2	1	2	8	116	8	0	313	0	07010	2	2	1	2	8	117	10	1	408	0	07010	2	2	1	2	8	118	4	1	434	0	07010	2	2	1	2	8	119	16	0	539	0	07010	2	2	1	2	8	120	3	1	281	0	07010	2	2	1	2	8	121	15	1	321	0	07010	2	2	1	2	8	122	9	0	303	0	07010	2	2	1	2	8	123	7	0	278	0	07010	2	2	1	2	8	124	6	0	22	0	07010	2	2	1	2	8	125	13	0	313	0	07010	2	2	1	2	8	126	12	0	1000	0	07010	2	2	1	2	8	127	11	0	977	0	07010	2	2	1	2	8	128	2	1	506	0	07011	2	3	2	1	1	1	1	0	3464	3	48917011	2	3	2	1	1	2	2	1	2013	3	17997011	2	3	2	1	1	3	4	0	1277	1	10777011	2	3	2	1	1	4	8	0	523	1	9327011	2	3	2	1	1	5	5	1	1376	3	5007011	2	3	2	1	1	6	6	0	1067	1	14927011	2	3	2	1	1	7	3	1	1016	3	3727011	2	3	2	1	1	8	7	0	1287	1	1517011	2	3	2	1	2	9	6	1	517	1	6387011	2	3	2	1	2	10	3	1	479	1	3457011	2	3	2	1	2	11	1	1	350	1	4387011	2	3	2	1	2	12	8	0	328	1	4737011	2	3	2	1	2	13	5	1	816	1	4447011	2	3	2	1	2	14	4	1	861	1	2557011	2	3	2	1	2	15	2	0	552	1	4407011	2	3	2	1	2	16	7	1	1377	1	3497011	2	3	2	1	3	17	4	1	314	1	3807011	2	3	2	1	3	18	2	1	544	1	3277011	2	3	2	1	3	19	5	1	349	1	3657011	2	3	2	1	3	20	3	1	714	1	4427011	2	3	2	1	3	21	8	1	643	1	5437011	2	3	2	1	3	22	6	1	403	1	4017011	2	3	2	1	3	23	1	0	1124	1	4357011	2	3	2	1	3	24	7	1	389	1	2927011	2	3	2	2	1	1	7	0	6414	0	07011	2	3	2	2	1	2	12	1	703	0	07011	2	3	2	2	1	3	8	0	2325	0	07011	2	3	2	2	1	4	16	1	645	0	07011	2	3	2	2	1	5	5	1	325	0	07011	2	3	2	2	1	6	13	0	420	0	07011	2	3	2	2	1	7	15	0	286	0	07011	2	3	2	2	1	8	3	1	270	0	07011	2	3	2	2	1	9	10	0	758	0	07011	2	3	2	2	1	10	6	0	233	0	07011	2	3	2	2	1	11	4	0	259	0	07011	2	3	2	2	1	12	14	0	220	0	07011	2	3	2	2	1	13	1	0	175	0	07011	2	3	2	2	1	14	9	0	108	0	07011	2	3	2	2	1	15	11	1	292	0	07011	2	3	2	2	1	16	2	0	348	0	07011	2	3	2	2	2	17	10	0	49	0	07011	2	3	2	2	2	18	5	1	259	0	07011	2	3	2	2	2	19	16	1	283	0	07011	2	3	2	2	2	20	12	1	283	0	07011	2	3	2	2	2	21	13	0	307	0	07011	2	3	2	2	2	22	6	1	306	0	07011	2	3	2	2	2	23	2	0	289	0	07011	2	3	2	2	2	24	4	0	321	0	07011	2	3	2	2	2	25	9	1	296	0	07011	2	3	2	2	2	26	15	0	871	0	07011	2	3	2	2	2	27	8	0	278	0	07011	2	3	2	2	2	28	11	1	174	0	07011	2	3	2	2	2	29	3	1	355	0	07011	2	3	2	2	2	30	1	0	248	0	07011	2	3	2	2	2	31	7	0	456	0	07011	2	3	2	2	2	32	14	0	401	0	07011	2	3	2	2	3	33	11	1	348	0	07011	2	3	2	2	3	34	14	0	313	0	07011	2	3	2	2	3	35	1	0	23	0	07011	2	3	2	2	3	36	2	0	331	0	07011	2	3	2	2	3	37	13	1	401	0	07011	2	3	2	2	3	38	15	1	355	0	07011	2	3	2	2	3	39	4	0	561	0	07011	2	3	2	2	3	40	9	0	308	0	07011	2	3	2	2	3	41	12	1	659	0	07011	2	3	2	2	3	42	8	1	68	0	07011	2	3	2	2	3	43	3	1	253	0	07011	2	3	2	2	3	44	5	1	254	0	07011	2	3	2	2	3	45	7	1	288	0	07011	2	3	2	2	3	46	6	1	263	0	07011	2	3	2	2	3	47	10	1	472	0	07011	2	3	2	2	3	48	16	0	64	0	07011	2	3	2	2	4	49	5	0	305	0	07011	2	3	2	2	4	50	12	0	417	0	07011	2	3	2	2	4	51	7	1	307	0	07011	2	3	2	2	4	52	14	1	273	0	07011	2	3	2	2	4	53	11	0	410	0	07011	2	3	2	2	4	54	9	0	261	0	07011	2	3	2	2	4	55	3	0	116	0	07011	2	3	2	2	4	56	16	0	316	0	07011	2	3	2	2	4	57	6	0	418	0	07011	2	3	2	2	4	58	1	0	388	0	07011	2	3	2	2	4	59	13	1	376	0	07011	2	3	2	2	4	60	2	1	339	0	07011	2	3	2	2	4	61	4	1	305	0	07011	2	3	2	2	4	62	8	0	392	0	07011	2	3	2	2	4	63	10	0	299	0	07011	2	3	2	2	4	64	15	0	594	0	07011	2	3	2	2	5	65	8	1	549	0	07011	2	3	2	2	5	66	7	1	385	0	07011	2	3	2	2	5	67	12	0	381	0	07011	2	3	2	2	5	68	15	1	448	0	07011	2	3	2	2	5	69	9	0	25	0	07011	2	3	2	2	5	70	14	1	332	0	07011	2	3	2	2	5	71	1	0	354	0	07011	2	3	2	2	5	72	16	0	391	0	07011	2	3	2	2	5	73	10	0	330	0	07011	2	3	2	2	5	74	4	1	559	0	07011	2	3	2	2	5	75	5	1	587	0	07011	2	3	2	2	5	76	2	1	414	0	07011	2	3	2	2	5	77	13	1	472	0	07011	2	3	2	2	5	78	11	0	80	0	07011	2	3	2	2	5	79	6	0	657	0	07011	2	3	2	2	5	80	3	1	417	0	07011	2	3	2	2	6	81	13	0	347	0	07011	2	3	2	2	6	82	5	1	528	0	07011	2	3	2	2	6	83	11	1	413	0	07011	2	3	2	2	6	84	2	1	615	0	07011	2	3	2	2	6	85	4	1	409	0	07011	2	3	2	2	6	86	9	1	363	0	07011	2	3	2	2	6	87	7	1	279	0	07011	2	3	2	2	6	88	8	1	495	0	07011	2	3	2	2	6	89	10	0	574	0	07011	2	3	2	2	6	90	6	0	337	0	07011	2	3	2	2	6	91	16	0	343	0	07011	2	3	2	2	6	92	3	1	2012	0	07011	2	3	2	2	6	93	12	0	290	0	07011	2	3	2	2	6	94	14	0	1034	0	07011	2	3	2	2	6	95	15	0	329	0	07011	2	3	2	2	6	96	1	0	294	0	07011	2	3	2	2	7	97	8	1	622	0	07011	2	3	2	2	7	98	14	1	439	0	07011	2	3	2	2	7	99	4	1	417	0	07011	2	3	2	2	7	100	6	1	459	0	07011	2	3	2	2	7	101	10	1	387	0	07011	2	3	2	2	7	102	13	1	654	0	07011	2	3	2	2	7	103	5	1	927	0	07011	2	3	2	2	7	104	15	1	267	0	07011	2	3	2	2	7	105	2	0	195	0	07011	2	3	2	2	7	106	1	0	167	0	07011	2	3	2	2	7	107	3	1	276	0	07011	2	3	2	2	7	108	12	0	12	0	07011	2	3	2	2	7	109	7	1	119	0	07011	2	3	2	2	7	110	16	0	694	0	07011	2	3	2	2	7	111	9	0	340	0	07011	2	3	2	2	7	112	11	1	762	0	07011	2	3	2	2	8	113	14	1	445	0	07011	2	3	2	2	8	114	7	1	302	0	07011	2	3	2	2	8	115	6	0	436	0	07011	2	3	2	2	8	116	5	0	557	0	07011	2	3	2	2	8	117	11	1	658	0	07011	2	3	2	2	8	118	3	1	481	0	07011	2	3	2	2	8	119	4	1	497	0	07011	2	3	2	2	8	120	2	0	279	0	07011	2	3	2	2	8	121	10	1	335	0	07011	2	3	2	2	8	122	12	1	285	0	07011	2	3	2	2	8	123	16	0	741	0	07011	2	3	2	2	8	124	13	0	401	0	07011	2	3	2	2	8	125	1	1	1316	0	07011	2	3	2	2	8	126	15	0	808	0	07011	2	3	2	2	8	127	8	1	377	0	07011	2	3	2	2	8	128	9	1	389	0	07012	2	4	1	1	1	1	7	0	6738	3	72247012	2	4	1	1	1	2	4	1	2694	3	17887012	2	4	1	1	1	3	3	0	4889	3	8617012	2	4	1	1	1	4	5	0	4148	3	23537012	2	4	1	1	1	5	6	1	2368	3	31867012	2	4	1	1	1	6	2	0	1253	2	14227012	2	4	1	1	1	7	8	1	1685	1	61947012	2	4	1	1	1	8	1	1	1589	2	9607012	2	4	1	1	2	9	2	1	186	3	8507012	2	4	1	1	2	10	7	0	849	2	15247012	2	4	1	1	2	11	5	0	1087	1	24807012	2	4	1	1	2	12	8	1	1042	3	9377012	2	4	1	1	2	13	4	1	1304	3	4007012	2	4	1	1	2	14	3	1	667	3	2537012	2	4	1	1	2	15	1	1	463	3	3957012	2	4	1	1	2	16	6	0	1365	1	38417012	2	4	1	1	3	17	1	1	203	3	6077012	2	4	1	1	3	18	6	1	1505	3	4447012	2	4	1	1	3	19	5	1	921	3	6017012	2	4	1	1	3	20	8	1	509	3	5807012	2	4	1	1	3	21	7	0	1327	1	9817012	2	4	1	1	3	22	3	0	6407	1	12037012	2	4	1	1	3	23	2	1	1484	2	5317012	2	4	1	1	3	24	4	1	411	2	10627012	2	4	1	2	1	1	10	1	4134	0	07012	2	4	1	2	1	2	14	1	3281	0	07012	2	4	1	2	1	3	8	0	1153	0	07012	2	4	1	2	1	4	5	0	1198	0	07012	2	4	1	2	1	5	4	1	230	0	07012	2	4	1	2	1	6	9	1	478	0	07012	2	4	1	2	1	7	1	1	477	0	07012	2	4	1	2	1	8	12	0	333	0	07012	2	4	1	2	1	9	2	0	323	0	07012	2	4	1	2	1	10	15	1	362	0	07012	2	4	1	2	1	11	11	1	862	0	07012	2	4	1	2	1	12	7	1	2877	0	07012	2	4	1	2	1	13	6	1	1924	0	07012	2	4	1	2	1	14	16	0	286	0	07012	2	4	1	2	1	15	13	1	926	0	07012	2	4	1	2	1	16	3	1	291	0	07012	2	4	1	2	2	17	6	1	820	0	07012	2	4	1	2	2	18	11	1	2516	0	07012	2	4	1	2	2	19	13	0	1920	0	07012	2	4	1	2	2	20	10	1	1334	0	07012	2	4	1	2	2	21	5	1	1761	0	07012	2	4	1	2	2	22	2	1	585	0	07012	2	4	1	2	2	23	7	1	2660	0	07012	2	4	1	2	2	24	3	0	383	0	07012	2	4	1	2	2	25	4	1	2012	0	07012	2	4	1	2	2	26	15	1	2720	0	07012	2	4	1	2	2	27	12	0	441	0	07012	2	4	1	2	2	28	9	0	3681	0	07012	2	4	1	2	2	29	1	0	1975	0	07012	2	4	1	2	2	30	14	0	3224	0	07012	2	4	1	2	2	31	8	1	1688	0	07012	2	4	1	2	2	32	16	0	4940	0	07012	2	4	1	2	3	33	14	1	1076	0	07012	2	4	1	2	3	34	3	0	2010	0	07012	2	4	1	2	3	35	6	0	2016	0	07012	2	4	1	2	3	36	11	1	1286	0	07012	2	4	1	2	3	37	15	1	770	0	07012	2	4	1	2	3	38	2	0	581	0	07012	2	4	1	2	3	39	4	0	1504	0	07012	2	4	1	2	3	40	9	0	308	0	07012	2	4	1	2	3	41	10	0	307	0	07012	2	4	1	2	3	42	12	0	706	0	07012	2	4	1	2	3	43	13	0	2208	0	07012	2	4	1	2	3	44	1	0	790	0	07012	2	4	1	2	3	45	5	0	1192	0	07012	2	4	1	2	3	46	7	0	449	0	07012	2	4	1	2	3	47	16	0	514	0	07012	2	4	1	2	3	48	8	1	408	0	07012	2	4	1	2	4	49	10	1	555	0	07012	2	4	1	2	4	50	12	1	975	0	07012	2	4	1	2	4	51	4	1	388	0	07012	2	4	1	2	4	52	11	1	1126	0	07012	2	4	1	2	4	53	14	1	698	0	07012	2	4	1	2	4	54	5	1	816	0	07012	2	4	1	2	4	55	6	1	4401	0	07012	2	4	1	2	4	56	2	0	2232	0	07012	2	4	1	2	4	57	9	1	733	0	07012	2	4	1	2	4	58	15	0	473	0	07012	2	4	1	2	4	59	1	0	1105	0	07012	2	4	1	2	4	60	16	1	4365	0	07012	2	4	1	2	4	61	7	0	2526	0	07012	2	4	1	2	4	62	8	0	4670	0	07012	2	4	1	2	4	63	13	1	1642	0	07012	2	4	1	2	4	64	3	1	888	0	07012	2	4	1	2	5	65	10	0	1838	0	07012	2	4	1	2	5	66	9	1	2675	0	07012	2	4	1	2	5	67	6	0	1133	0	07012	2	4	1	2	5	68	11	1	3280	0	07012	2	4	1	2	5	69	15	0	96	0	07012	2	4	1	2	5	70	1	1	271	0	07012	2	4	1	2	5	71	5	0	1528	0	07012	2	4	1	2	5	72	3	1	371	0	07012	2	4	1	2	5	73	16	1	327	0	07012	2	4	1	2	5	74	4	1	405	0	07012	2	4	1	2	5	75	8	0	937	0	07012	2	4	1	2	5	76	13	1	228	0	07012	2	4	1	2	5	77	7	0	350	0	07012	2	4	1	2	5	78	2	1	2379	0	07012	2	4	1	2	5	79	14	1	1273	0	07012	2	4	1	2	5	80	12	1	3527	0	07012	2	4	1	2	6	81	7	0	5252	0	07012	2	4	1	2	6	82	15	0	2942	0	07012	2	4	1	2	6	83	16	1	2268	0	07012	2	4	1	2	6	84	4	1	5318	0	07012	2	4	1	2	6	85	8	1	478	0	07012	2	4	1	2	6	86	11	1	1190	0	07012	2	4	1	2	6	87	5	0	527	0	07012	2	4	1	2	6	88	14	0	76	0	07012	2	4	1	2	6	89	3	1	1156	0	07012	2	4	1	2	6	90	6	1	903	0	07012	2	4	1	2	6	91	12	0	548	0	07012	2	4	1	2	6	92	1	1	1673	0	07012	2	4	1	2	6	93	9	1	245	0	07012	2	4	1	2	6	94	13	1	383	0	07012	2	4	1	2	6	95	10	0	1026	0	07012	2	4	1	2	6	96	2	0	274	0	07012	2	4	1	2	7	97	3	1	355	0	07012	2	4	1	2	7	98	9	1	464	0	07012	2	4	1	2	7	99	5	0	288	0	07012	2	4	1	2	7	100	11	1	344	0	07012	2	4	1	2	7	101	8	0	2549	0	07012	2	4	1	2	7	102	7	0	339	0	07012	2	4	1	2	7	103	14	1	2137	0	07012	2	4	1	2	7	104	2	1	345	0	07012	2	4	1	2	7	105	15	1	462	0	07012	2	4	1	2	7	106	4	1	390	0	07012	2	4	1	2	7	107	13	0	2313	0	07012	2	4	1	2	7	108	16	1	394	0	07012	2	4	1	2	7	109	12	0	1101	0	07012	2	4	1	2	7	110	1	1	1842	0	07012	2	4	1	2	7	111	6	1	79	0	07012	2	4	1	2	7	112	10	0	215	0	07012	2	4	1	2	8	113	16	1	482	0	07012	2	4	1	2	8	114	3	1	921	0	07012	2	4	1	2	8	115	11	1	2654	0	07012	2	4	1	2	8	116	14	0	720	0	07012	2	4	1	2	8	117	4	0	381	0	07012	2	4	1	2	8	118	7	0	585	0	07012	2	4	1	2	8	119	1	1	1124	0	07012	2	4	1	2	8	120	6	1	1375	0	07012	2	4	1	2	8	121	13	1	232	0	07012	2	4	1	2	8	122	12	1	634	0	07012	2	4	1	2	8	123	10	1	835	0	07012	2	4	1	2	8	124	15	0	155	0	07012	2	4	1	2	8	125	5	0	1536	0	07012	2	4	1	2	8	126	8	0	602	0	07012	2	4	1	2	8	127	2	0	572	0	07012	2	4	1	2	8	128	9	1	1767	0	07013	2	5	2	1	1	1	4	0	4212	3	50717013	2	5	2	1	1	2	5	1	2209	2	23467013	2	5	2	1	1	3	8	0	617	3	11747013	2	5	2	1	1	4	3	1	144	3	3847013	2	5	2	1	1	5	6	1	572	2	24757013	2	5	2	1	1	6	7	0	3108	1	29187013	2	5	2	1	1	7	1	1	1429	1	12867013	2	5	2	1	1	8	2	1	747	3	8187013	2	5	2	1	2	9	4	1	1307	3	4917013	2	5	2	1	2	10	7	1	1425	2	13407013	2	5	2	1	2	11	1	1	566	2	19097013	2	5	2	1	2	12	6	0	2168	1	19307013	2	5	2	1	2	13	2	1	4051	2	10057013	2	5	2	1	2	14	8	0	1382	2	7947013	2	5	2	1	2	15	3	1	1195	2	6797013	2	5	2	1	2	16	5	1	5101	3	8497013	2	5	2	1	3	17	8	1	529	3	7057013	2	5	2	1	3	18	6	0	439	3	11167013	2	5	2	1	3	19	1	1	1632	2	7537013	2	5	2	1	3	20	4	1	213	2	6837013	2	5	2	1	3	21	7	1	298	2	20847013	2	5	2	1	3	22	3	1	78	1	12187013	2	5	2	1	3	23	5	1	426	1	11197013	2	5	2	1	3	24	2	1	387	3	17227013	2	5	2	2	1	1	16	1	5579	0	07013	2	5	2	2	1	2	2	0	111	0	07013	2	5	2	2	1	3	3	0	614	0	07013	2	5	2	2	1	4	11	1	1186	0	07013	2	5	2	2	1	5	15	0	1033	0	07013	2	5	2	2	1	6	7	1	953	0	07013	2	5	2	2	1	7	1	0	1196	0	07013	2	5	2	2	1	8	4	1	764	0	07013	2	5	2	2	1	9	5	1	399	0	07013	2	5	2	2	1	10	14	1	338	0	07013	2	5	2	2	1	11	10	1	599	0	07013	2	5	2	2	1	12	8	0	450	0	07013	2	5	2	2	1	13	6	1	371	0	07013	2	5	2	2	1	14	12	0	775	0	07013	2	5	2	2	1	15	13	0	2674	0	07013	2	5	2	2	1	16	9	0	347	0	07013	2	5	2	2	2	17	14	1	393	0	07013	2	5	2	2	2	18	8	0	243	0	07013	2	5	2	2	2	19	13	0	341	0	07013	2	5	2	2	2	20	1	0	346	0	07013	2	5	2	2	2	21	15	0	391	0	07013	2	5	2	2	2	22	10	1	595	0	07013	2	5	2	2	2	23	5	1	381	0	07013	2	5	2	2	2	24	3	0	328	0	07013	2	5	2	2	2	25	6	1	301	0	07013	2	5	2	2	2	26	11	1	364	0	07013	2	5	2	2	2	27	16	1	297	0	07013	2	5	2	2	2	28	7	1	320	0	07013	2	5	2	2	2	29	2	0	71	0	07013	2	5	2	2	2	30	9	0	744	0	07013	2	5	2	2	2	31	12	0	612	0	07013	2	5	2	2	2	32	4	1	749	0	07013	2	5	2	2	3	33	8	0	889	0	07013	2	5	2	2	3	34	5	1	495	0	07013	2	5	2	2	3	35	2	0	582	0	07013	2	5	2	2	3	36	9	0	545	0	07013	2	5	2	2	3	37	13	0	590	0	07013	2	5	2	2	3	38	16	1	537	0	07013	2	5	2	2	3	39	4	1	518	0	07013	2	5	2	2	3	40	15	0	388	0	07013	2	5	2	2	3	41	11	1	368	0	07013	2	5	2	2	3	42	12	0	355	0	07013	2	5	2	2	3	43	3	0	416	0	07013	2	5	2	2	3	44	6	1	402	0	07013	2	5	2	2	3	45	7	1	1381	0	07013	2	5	2	2	3	46	1	0	702	0	07013	2	5	2	2	3	47	14	1	756	0	07013	2	5	2	2	3	48	10	1	488	0	07013	2	5	2	2	4	49	9	0	439	0	07013	2	5	2	2	4	50	7	1	729	0	07013	2	5	2	2	4	51	2	0	461	0	07013	2	5	2	2	4	52	5	1	573	0	07013	2	5	2	2	4	53	1	0	305	0	07013	2	5	2	2	4	54	15	0	552	0	07013	2	5	2	2	4	55	4	1	765	0	07013	2	5	2	2	4	56	6	1	344	0	07013	2	5	2	2	4	57	13	0	318	0	07013	2	5	2	2	4	58	3	0	588	0	07013	2	5	2	2	4	59	16	1	302	0	07013	2	5	2	2	4	60	14	1	389	0	07013	2	5	2	2	4	61	10	1	265	0	07013	2	5	2	2	4	62	12	0	242	0	07013	2	5	2	2	4	63	8	0	276	0	07013	2	5	2	2	4	64	11	1	356	0	07013	2	5	2	2	5	65	15	0	497	0	07013	2	5	2	2	5	66	5	1	1208	0	07013	2	5	2	2	5	67	9	0	400	0	07013	2	5	2	2	5	68	10	1	251	0	07013	2	5	2	2	5	69	4	1	117	0	07013	2	5	2	2	5	70	11	1	244	0	07013	2	5	2	2	5	71	6	1	845	0	07013	2	5	2	2	5	72	13	1	1054	0	07013	2	5	2	2	5	73	16	1	220	0	07013	2	5	2	2	5	74	1	0	255	0	07013	2	5	2	2	5	75	3	0	1272	0	07013	2	5	2	2	5	76	7	1	245	0	07013	2	5	2	2	5	77	12	0	142	0	07013	2	5	2	2	5	78	8	0	508	0	07013	2	5	2	2	5	79	2	0	298	0	07013	2	5	2	2	5	80	14	1	377	0	07013	2	5	2	2	6	81	12	0	405	0	07013	2	5	2	2	6	82	7	1	304	0	07013	2	5	2	2	6	83	10	1	327	0	07013	2	5	2	2	6	84	8	0	269	0	07013	2	5	2	2	6	85	11	1	254	0	07013	2	5	2	2	6	86	1	0	295	0	07013	2	5	2	2	6	87	5	1	310	0	07013	2	5	2	2	6	88	13	0	525	0	07013	2	5	2	2	6	89	2	0	387	0	07013	2	5	2	2	6	90	16	1	1014	0	07013	2	5	2	2	6	91	9	1	887	0	07013	2	5	2	2	6	92	6	1	293	0	07013	2	5	2	2	6	93	15	0	837	0	07013	2	5	2	2	6	94	4	1	605	0	07013	2	5	2	2	6	95	14	1	262	0	07013	2	5	2	2	6	96	3	0	351	0	07013	2	5	2	2	7	97	2	0	476	0	07013	2	5	2	2	7	98	11	1	1043	0	07013	2	5	2	2	7	99	10	1	707	0	07013	2	5	2	2	7	100	5	1	401	0	07013	2	5	2	2	7	101	3	0	524	0	07013	2	5	2	2	7	102	9	0	514	0	07013	2	5	2	2	7	103	1	0	432	0	07013	2	5	2	2	7	104	14	1	353	0	07013	2	5	2	2	7	105	12	0	478	0	07013	2	5	2	2	7	106	8	0	502	0	07013	2	5	2	2	7	107	6	1	284	0	07013	2	5	2	2	7	108	7	1	204	0	07013	2	5	2	2	7	109	4	1	296	0	07013	2	5	2	2	7	110	16	1	1079	0	07013	2	5	2	2	7	111	13	0	404	0	07013	2	5	2	2	7	112	15	0	279	0	07013	2	5	2	2	8	113	7	1	415	0	07013	2	5	2	2	8	114	5	1	289	0	07013	2	5	2	2	8	115	1	0	393	0	07013	2	5	2	2	8	116	15	1	420	0	07013	2	5	2	2	8	117	8	0	342	0	07013	2	5	2	2	8	118	12	0	1556	0	07013	2	5	2	2	8	119	3	0	477	0	07013	2	5	2	2	8	120	11	1	373	0	07013	2	5	2	2	8	121	9	0	282	0	07013	2	5	2	2	8	122	6	1	2090	0	07013	2	5	2	2	8	123	14	1	2036	0	07013	2	5	2	2	8	124	10	1	3969	0	07013	2	5	2	2	8	125	2	0	1355	0	07013	2	5	2	2	8	126	13	0	605	0	07013	2	5	2	2	8	127	4	1	334	0	07013	2	5	2	2	8	128	16	1	612	0	07014	2	6	1	1	1	1	6	0	5087	3	21337014	2	6	1	1	1	2	2	0	3701	3	14547014	2	6	1	1	1	3	1	1	859	3	10777014	2	6	1	1	1	4	5	1	1234	3	10377014	2	6	1	1	1	5	4	1	1397	3	15607014	2	6	1	1	1	6	7	1	1425	3	10857014	2	6	1	1	1	7	3	0	1273	3	12187014	2	6	1	1	1	8	8	1	1425	3	9807014	2	6	1	1	2	9	6	1	4257	2	23667014	2	6	1	1	2	10	8	1	4550	2	9257014	2	6	1	1	2	11	1	1	1230	3	18347014	2	6	1	1	2	12	5	1	2373	3	16227014	2	6	1	1	2	13	2	1	3373	2	8947014	2	6	1	1	2	14	4	0	2122	2	33547014	2	6	1	1	2	15	7	1	4251	1	12287014	2	6	1	1	2	16	3	1	2124	1	23687014	2	6	1	1	3	17	1	1	974	3	15407014	2	6	1	1	3	18	4	1	2774	3	8497014	2	6	1	1	3	19	6	0	5665	2	22417014	2	6	1	1	3	20	8	1	959	3	7907014	2	6	1	1	3	21	7	1	1326	3	13657014	2	6	1	1	3	22	2	1	14726	1	10947014	2	6	1	1	3	23	3	0	16589	1	8767014	2	6	1	1	3	24	5	1	1034	3	16727014	2	6	1	2	1	1	10	1	8970	0	07014	2	6	1	2	1	2	14	1	3240	0	07014	2	6	1	2	1	3	9	0	1192	0	07014	2	6	1	2	1	4	16	1	1649	0	07014	2	6	1	2	1	5	4	1	613	0	07014	2	6	1	2	1	6	3	1	3887	0	07014	2	6	1	2	1	7	13	0	1468	0	07014	2	6	1	2	1	8	15	0	105	0	07014	2	6	1	2	1	9	7	0	921	0	07014	2	6	1	2	1	10	1	1	5613	0	07014	2	6	1	2	1	11	5	0	7849	0	07014	2	6	1	2	1	12	6	0	8158	0	07014	2	6	1	2	1	13	8	0	319	0	07014	2	6	1	2	1	14	2	1	1614	0	07014	2	6	1	2	1	15	12	1	1000	0	07014	2	6	1	2	1	16	11	0	1482	0	07014	2	6	1	2	2	17	1	1	4576	0	07014	2	6	1	2	2	18	3	1	615	0	07014	2	6	1	2	2	19	16	0	619	0	07014	2	6	1	2	2	20	8	0	325	0	07014	2	6	1	2	2	21	4	0	353	0	07014	2	6	1	2	2	22	11	0	358	0	07014	2	6	1	2	2	23	9	0	427	0	07014	2	6	1	2	2	24	6	0	349	0	07014	2	6	1	2	2	25	5	0	475	0	07014	2	6	1	2	2	26	10	1	306	0	07014	2	6	1	2	2	27	7	0	275	0	07014	2	6	1	2	2	28	2	1	713	0	07014	2	6	1	2	2	29	12	1	327	0	07014	2	6	1	2	2	30	13	0	6905	0	07014	2	6	1	2	2	31	15	1	1722	0	07014	2	6	1	2	2	32	14	1	2260	0	07014	2	6	1	2	3	33	7	0	556	0	07014	2	6	1	2	3	34	6	0	324	0	07014	2	6	1	2	3	35	9	0	516	0	07014	2	6	1	2	3	36	13	0	515	0	07014	2	6	1	2	3	37	1	0	11318	0	07014	2	6	1	2	3	38	10	0	1455	0	07014	2	6	1	2	3	39	11	0	411	0	07014	2	6	1	2	3	40	15	0	504	0	07014	2	6	1	2	3	41	8	0	999	0	07014	2	6	1	2	3	42	4	0	3120	0	07014	2	6	1	2	3	43	14	0	453	0	07014	2	6	1	2	3	44	16	1	158	0	07014	2	6	1	2	3	45	3	1	1663	0	07014	2	6	1	2	3	46	12	1	561	0	07014	2	6	1	2	3	47	5	0	661	0	07014	2	6	1	2	3	48	2	1	1029	0	07014	2	6	1	2	4	49	3	1	805	0	07014	2	6	1	2	4	50	6	0	295	0	07014	2	6	1	2	4	51	5	0	783	0	07014	2	6	1	2	4	52	14	0	4235	0	07014	2	6	1	2	4	53	7	1	5616	0	07014	2	6	1	2	4	54	16	1	4628	0	07014	2	6	1	2	4	55	1	1	2596	0	07014	2	6	1	2	4	56	2	1	1095	0	07014	2	6	1	2	4	57	10	0	1637	0	07014	2	6	1	2	4	58	15	0	3740	0	07014	2	6	1	2	4	59	13	0	2670	0	07014	2	6	1	2	4	60	12	1	2088	0	07014	2	6	1	2	4	61	11	0	1811	0	07014	2	6	1	2	4	62	8	1	2257	0	07014	2	6	1	2	4	63	9	1	520	0	07014	2	6	1	2	4	64	4	1	3851	0	07014	2	6	1	2	5	65	8	1	957	0	07014	2	6	1	2	5	66	16	1	277	0	07014	2	6	1	2	5	67	10	1	333	0	07014	2	6	1	2	5	68	3	1	750	0	07014	2	6	1	2	5	69	9	0	1241	0	07014	2	6	1	2	5	70	7	0	422	0	07014	2	6	1	2	5	71	12	1	370	0	07014	2	6	1	2	5	72	14	1	2564	0	07014	2	6	1	2	5	73	11	0	859	0	07014	2	6	1	2	5	74	4	1	1690	0	07014	2	6	1	2	5	75	15	1	358	0	07014	2	6	1	2	5	76	1	1	294	0	07014	2	6	1	2	5	77	2	0	2068	0	07014	2	6	1	2	5	78	5	0	427	0	07014	2	6	1	2	5	79	13	0	4340	0	07014	2	6	1	2	5	80	6	0	419	0	07014	2	6	1	2	6	81	7	1	1642	0	07014	2	6	1	2	6	82	2	0	2531	0	07014	2	6	1	2	6	83	1	1	350	0	07014	2	6	1	2	6	84	10	1	1784	0	07014	2	6	1	2	6	85	8	0	1824	0	07014	2	6	1	2	6	86	6	0	304	0	07014	2	6	1	2	6	87	11	0	381	0	07014	2	6	1	2	6	88	15	1	1508	0	07014	2	6	1	2	6	89	3	1	548	0	07014	2	6	1	2	6	90	4	1	969	0	07014	2	6	1	2	6	91	16	1	684	0	07014	2	6	1	2	6	92	5	0	1940	0	07014	2	6	1	2	6	93	13	1	5231	0	07014	2	6	1	2	6	94	14	1	330	0	07014	2	6	1	2	6	95	12	0	830	0	07014	2	6	1	2	6	96	9	0	1631	0	07014	2	6	1	2	7	97	7	1	329	0	07014	2	6	1	2	7	98	5	1	460	0	07014	2	6	1	2	7	99	8	0	2493	0	07014	2	6	1	2	7	100	11	0	430	0	07014	2	6	1	2	7	101	13	0	471	0	07014	2	6	1	2	7	102	4	1	407	0	07014	2	6	1	2	7	103	14	1	411	0	07014	2	6	1	2	7	104	12	0	3806	0	07014	2	6	1	2	7	105	2	1	3839	0	07014	2	6	1	2	7	106	16	1	326	0	07014	2	6	1	2	7	107	10	1	277	0	07014	2	6	1	2	7	108	1	0	1295	0	07014	2	6	1	2	7	109	3	1	330	0	07014	2	6	1	2	7	110	15	1	6136	0	07014	2	6	1	2	7	111	9	0	558	0	07014	2	6	1	2	7	112	6	1	6323	0	07014	2	6	1	2	8	113	14	1	1582	0	07014	2	6	1	2	8	114	8	0	352	0	07014	2	6	1	2	8	115	3	1	4932	0	07014	2	6	1	2	8	116	5	1	4372	0	07014	2	6	1	2	8	117	10	1	349	0	07014	2	6	1	2	8	118	1	0	3266	0	07014	2	6	1	2	8	119	7	0	2610	0	07014	2	6	1	2	8	120	16	1	427	0	07014	2	6	1	2	8	121	4	1	720	0	07014	2	6	1	2	8	122	9	1	3528	0	07014	2	6	1	2	8	123	15	0	413	0	07014	2	6	1	2	8	124	11	0	1141	0	07014	2	6	1	2	8	125	13	0	1281	0	07014	2	6	1	2	8	126	6	1	408	0	07014	2	6	1	2	8	127	12	1	4001	0	07014	2	6	1	2	8	128	2	0	2683	0	07015	2	7	2	1	1	1	4	0	3678	3	110977015	2	7	2	1	1	2	5	0	1479	3	10707015	2	7	2	1	1	3	6	0	3221	3	12907015	2	7	2	1	1	4	7	0	782	3	8117015	2	7	2	1	1	5	8	0	5636	3	36267015	2	7	2	1	1	6	3	1	2691	2	19357015	2	7	2	1	1	7	1	1	1784	2	12667015	2	7	2	1	1	8	2	1	136	2	36907015	2	7	2	1	2	9	4	0	1510	1	13217015	2	7	2	1	2	10	7	1	9353	2	11117015	2	7	2	1	2	11	1	1	7299	3	11217015	2	7	2	1	2	12	6	1	1054	3	10157015	2	7	2	1	2	13	3	1	391	3	6147015	2	7	2	1	2	14	8	1	824	2	10767015	2	7	2	1	2	15	2	1	953	2	10167015	2	7	2	1	2	16	5	1	2864	2	9737015	2	7	2	1	3	17	4	1	3375	3	9987015	2	7	2	1	3	18	6	1	18666	1	11187015	2	7	2	1	3	19	1	0	5418	1	13777015	2	7	2	1	3	20	7	0	3616	2	11027015	2	7	2	1	3	21	2	1	3261	2	12657015	2	7	2	1	3	22	8	1	2316	1	5757015	2	7	2	1	3	23	5	1	11518	2	6847015	2	7	2	1	3	24	3	1	13	3	12577015	2	7	2	2	1	1	12	1	6415	0	07015	2	7	2	2	1	2	14	0	1375	0	07015	2	7	2	2	1	3	15	1	2145	0	07015	2	7	2	2	1	4	9	1	448	0	07015	2	7	2	2	1	5	10	0	1620	0	07015	2	7	2	2	1	6	5	0	664	0	07015	2	7	2	2	1	7	7	1	1207	0	07015	2	7	2	2	1	8	6	1	440	0	07015	2	7	2	2	1	9	16	0	2324	0	07015	2	7	2	2	1	10	11	1	730	0	07015	2	7	2	2	1	11	8	0	806	0	07015	2	7	2	2	1	12	13	1	520	0	0