"","cond","subj","phase","block","trial","stim","resp","rt","rtiti"
"1","noload",1,"prac",0,1,0,"B",1345,1169
"2","noload",1,"prac",0,2,0,"A",1100,507
"3","noload",1,"prac",0,3,0,"B",174,1316
"4","noload",1,"prac",0,4,0,"B",893,469
"5","noload",1,"prac",0,5,0,"B",713,489
"6","noload",1,"prac",0,6,0,"A",709,373
"7","noload",1,"prac",0,7,0,"A",711,407
"8","noload",1,"prac",0,8,0,"B",653,388
"9","noload",1,"prac",0,9,0,"A",623,381
"10","noload",1,"prac",0,10,0,"A",742,475
"11","noload",1,"exp",1,1,4,"A",659,776
"12","noload",1,"exp",1,2,2,"A",618,615
"13","noload",1,"exp",1,3,1,"A",523,468
"14","noload",1,"exp",1,4,8,"B",1144,736
"15","noload",1,"exp",1,5,6,"B",581,458
"16","noload",1,"exp",1,6,7,"B",572,463
"17","noload",1,"exp",1,7,3,"A",5696,762
"18","noload",1,"exp",1,8,5,"B",952,423
"19","noload",1,"exp",1,9,10,"B",752,474
"20","noload",1,"exp",1,10,9,"B",538,443
"21","noload",1,"exp",2,1,2,"A",1069,582
"22","noload",1,"exp",2,2,10,"B",811,368
"23","noload",1,"exp",2,3,5,"A",1593,535
"24","noload",1,"exp",2,4,9,"B",504,397
"25","noload",1,"exp",2,5,3,"B",926,297
"26","noload",1,"exp",2,6,8,"A",955,507
"27","noload",1,"exp",2,7,7,"B",2375,391
"28","noload",1,"exp",2,8,6,"B",949,262
"29","noload",1,"exp",2,9,4,"A",329,589
"30","noload",1,"exp",2,10,1,"A",1883,458
"31","noload",1,"exp",3,1,4,"A",393,345
"32","noload",1,"exp",3,2,1,"A",328,330
"33","noload",1,"exp",3,3,8,"B",1116,380
"34","noload",1,"exp",3,4,5,"B",1678,479
"35","noload",1,"exp",3,5,2,"A",617,277
"36","noload",1,"exp",3,6,7,"B",500,234
"37","noload",1,"exp",3,7,10,"B",1733,772
"38","noload",1,"exp",3,8,3,"A",2045,297
"39","noload",1,"exp",3,9,9,"B",648,251
"40","noload",1,"exp",3,10,6,"B",725,582
"41","noload",1,"exp",4,1,10,"B",633,313
"42","noload",1,"exp",4,2,8,"A",652,254
"43","noload",1,"exp",4,3,2,"A",473,249
"44","noload",1,"exp",4,4,4,"A",645,249
"45","noload",1,"exp",4,5,3,"B",499,280
"46","noload",1,"exp",4,6,7,"B",1145,340
"47","noload",1,"exp",4,7,6,"B",758,317
"48","noload",1,"exp",4,8,5,"A",684,216
"49","noload",1,"exp",4,9,1,"A",620,314
"50","noload",1,"exp",4,10,9,"B",396,270
"51","noload",1,"exp",5,1,10,"B",620,377
"52","noload",1,"exp",5,2,6,"B",596,189
"53","noload",1,"exp",5,3,8,"A",500,347
"54","noload",1,"exp",5,4,3,"B",524,263
"55","noload",1,"exp",5,5,7,"B",508,276
"56","noload",1,"exp",5,6,2,"A",490,238
"57","noload",1,"exp",5,7,9,"B",315,237
"58","noload",1,"exp",5,8,1,"A",126,266
"59","noload",1,"exp",5,9,4,"A",565,263
"60","noload",1,"exp",5,10,5,"B",790,216
"61","noload",1,"exp",6,1,2,"A",637,190
"62","noload",1,"exp",6,2,9,"B",201,195
"63","noload",1,"exp",6,3,7,"B",491,174
"64","noload",1,"exp",6,4,5,"A",611,160
"65","noload",1,"exp",6,5,1,"A",509,134
"66","noload",1,"exp",6,6,6,"B",402,182
"67","noload",1,"exp",6,7,10,"B",872,186
"68","noload",1,"exp",6,8,3,"B",816,262
"69","noload",1,"exp",6,9,4,"A",1267,388
"70","noload",1,"exp",6,10,8,"B",3151,216
"71","noload",1,"exp",7,1,3,"A",975,244
"72","noload",1,"exp",7,2,7,"B",975,197
"73","noload",1,"exp",7,3,4,"A",806,184
"74","noload",1,"exp",7,4,8,"B",764,200
"75","noload",1,"exp",7,5,1,"A",443,230
"76","noload",1,"exp",7,6,2,"A",523,215
"77","noload",1,"exp",7,7,5,"A",1167,218
"78","noload",1,"exp",7,8,6,"B",368,827
"79","noload",1,"exp",7,9,9,"B",527,234
"80","noload",1,"exp",7,10,10,"B",727,219
"81","noload",1,"exp",8,1,10,"B",406,200
"82","noload",1,"exp",8,2,2,"A",404,198
"83","noload",1,"exp",8,3,1,"A",431,152
"84","noload",1,"exp",8,4,8,"B",630,184
"85","noload",1,"exp",8,5,9,"B",505,621
"86","noload",1,"exp",8,6,4,"A",724,231
"87","noload",1,"exp",8,7,5,"A",1081,182
"88","noload",1,"exp",8,8,7,"B",470,182
"89","noload",1,"exp",8,9,6,"B",487,298
"90","noload",1,"exp",8,10,3,"A",1387,227
"91","noload",1,"exp",9,1,4,"B",1048,666
"92","noload",1,"exp",9,2,3,"A",1464,173
"93","noload",1,"exp",9,3,8,"B",997,206
"94","noload",1,"exp",9,4,6,"B",675,188
"95","noload",1,"exp",9,5,7,"B",619,184
"96","noload",1,"exp",9,6,5,"A",966,280
"97","noload",1,"exp",9,7,2,"A",525,198
"98","noload",1,"exp",9,8,1,"A",543,174
"99","noload",1,"exp",9,9,10,"B",1261,205
"100","noload",1,"exp",9,10,9,"B",1084,168
"101","noload",1,"exp",10,1,3,"A",1291,446
"102","noload",1,"exp",10,2,4,"A",933,114
"103","noload",1,"exp",10,3,8,"B",3834,412
"104","noload",1,"exp",10,4,9,"B",501,220
"105","noload",1,"exp",10,5,7,"B",666,181
"106","noload",1,"exp",10,6,2,"A",701,220
"107","noload",1,"exp",10,7,10,"B",906,224
"108","noload",1,"exp",10,8,5,"A",607,186
"109","noload",1,"exp",10,9,1,"A",465,141
"110","noload",1,"exp",10,10,6,"B",427,179
"111","noload",1,"exp",11,1,6,"B",363,182
"112","noload",1,"exp",11,2,4,"A",1714,188
"113","noload",1,"exp",11,3,3,"A",1047,106
"114","noload",1,"exp",11,4,10,"B",392,200
"115","noload",1,"exp",11,5,8,"B",2167,185
"116","noload",1,"exp",11,6,2,"A",450,206
"117","noload",1,"exp",11,7,5,"A",758,159
"118","noload",1,"exp",11,8,7,"B",943,189
"119","noload",1,"exp",11,9,9,"B",441,194
"120","noload",1,"exp",11,10,1,"A",433,907
"121","noload",1,"exp",12,1,9,"B",569,189
"122","noload",1,"exp",12,2,10,"B",1457,195
"123","noload",1,"exp",12,3,2,"A",1612,227
"124","noload",1,"exp",12,4,8,"B",1164,646
"125","noload",1,"exp",12,5,1,"A",534,197
"126","noload",1,"exp",12,6,5,"A",676,189
"127","noload",1,"exp",12,7,3,"A",1466,113
"128","noload",1,"exp",12,8,6,"B",776,662
"129","noload",1,"exp",12,9,4,"A",1291,156
"130","noload",1,"exp",12,10,7,"B",765,233
"131","noload",10,"prac",0,1,0,"A",2975,1158
"132","noload",10,"prac",0,2,0,"B",1522,5668
"133","noload",10,"prac",0,3,0,"B",1566,696
"134","noload",10,"prac",0,4,0,"A",853,627
"135","noload",10,"prac",0,5,0,"A",759,403
"136","noload",10,"prac",0,6,0,"B",557,380
"137","noload",10,"prac",0,7,0,"B",980,330
"138","noload",10,"prac",0,8,0,"A",1062,442
"139","noload",10,"prac",0,9,0,"A",354,235
"140","noload",10,"prac",0,10,0,"B",375,180
"141","noload",10,"exp",1,1,2,"A",1077,591
"142","noload",10,"exp",1,2,4,"A",1869,470
"143","noload",10,"exp",1,3,9,"B",974,308
"144","noload",10,"exp",1,4,8,"B",1872,634
"145","noload",10,"exp",1,5,10,"B",1436,381
"146","noload",10,"exp",1,6,1,"A",925,856
"147","noload",10,"exp",1,7,3,"B",4556,558
"148","noload",10,"exp",1,8,7,"B",727,298
"149","noload",10,"exp",1,9,6,"B",750,198
"150","noload",10,"exp",1,10,5,"B",446,201
"151","noload",10,"exp",2,1,5,"A",1197,397
"152","noload",10,"exp",2,2,1,"A",798,239
"153","noload",10,"exp",2,3,9,"B",486,217
"154","noload",10,"exp",2,4,4,"A",412,191
"155","noload",10,"exp",2,5,8,"A",298,169
"156","noload",10,"exp",2,6,3,"B",121,134
"157","noload",10,"exp",2,7,7,"B",2999,148
"158","noload",10,"exp",2,8,6,"B",694,148
"159","noload",10,"exp",2,9,10,"B",318,125
"160","noload",10,"exp",2,10,2,"A",503,156
"161","noload",10,"exp",3,1,7,"B",266,210
"162","noload",10,"exp",3,2,5,"A",138,232
"163","noload",10,"exp",3,3,9,"B",728,157
"164","noload",10,"exp",3,4,3,"B",1071,135
"165","noload",10,"exp",3,5,2,"A",539,249
"166","noload",10,"exp",3,6,10,"B",714,236
"167","noload",10,"exp",3,7,6,"B",475,205
"168","noload",10,"exp",3,8,4,"A",348,166
"169","noload",10,"exp",3,9,8,"A",474,217
"170","noload",10,"exp",3,10,1,"A",457,182
"171","noload",10,"exp",4,1,6,"B",265,239
"172","noload",10,"exp",4,2,8,"A",421,170
"173","noload",10,"exp",4,3,3,"B",584,733
"174","noload",10,"exp",4,4,1,"A",330,173
"175","noload",10,"exp",4,5,5,"A",521,147
"176","noload",10,"exp",4,6,7,"A",808,2140
"177","noload",10,"exp",4,7,10,"B",1462,205
"178","noload",10,"exp",4,8,2,"A",646,681
"179","noload",10,"exp",4,9,4,"A",271,360
"180","noload",10,"exp",4,10,9,"B",438,878
"181","noload",10,"exp",5,1,5,"A",184,191
"182","noload",10,"exp",5,2,6,"B",181,168
"183","noload",10,"exp",5,3,9,"B",233,170
"184","noload",10,"exp",5,4,1,"A",189,133
"185","noload",10,"exp",5,5,8,"A",205,169
"186","noload",10,"exp",5,6,2,"A",250,126
"187","noload",10,"exp",5,7,4,"A",303,139
"188","noload",10,"exp",5,8,7,"B",347,161
"189","noload",10,"exp",5,9,3,"B",229,150
"190","noload",10,"exp",5,10,10,"A",323,134
"191","noload",10,"exp",6,1,5,"A",682,213
"192","noload",10,"exp",6,2,4,"A",277,158
"193","noload",10,"exp",6,3,8,"B",250,1292
"194","noload",10,"exp",6,4,6,"B",345,159
"195","noload",10,"exp",6,5,10,"A",333,1856
"196","noload",10,"exp",6,6,9,"B",297,265
"197","noload",10,"exp",6,7,7,"B",120,307
"198","noload",10,"exp",6,8,2,"A",291,223
"199","noload",10,"exp",6,9,3,"B",2761,582
"200","noload",10,"exp",6,10,1,"A",1371,176
"201","noload",10,"exp",7,1,5,"A",929,331
"202","noload",10,"exp",7,2,7,"B",381,171
"203","noload",10,"exp",7,3,4,"A",205,137
"204","noload",10,"exp",7,4,8,"A",630,102
"205","noload",10,"exp",7,5,1,"A",377,87
"206","noload",10,"exp",7,6,3,"B",379,135
"207","noload",10,"exp",7,7,10,"B",1517,79
"208","noload",10,"exp",7,8,9,"B",408,90
"209","noload",10,"exp",7,9,2,"A",853,244
"210","noload",10,"exp",7,10,6,"B",578,394
"211","noload",10,"exp",8,1,2,"A",538,1143
"212","noload",10,"exp",8,2,5,"A",391,138
"213","noload",10,"exp",8,3,9,"B",246,186
"214","noload",10,"exp",8,4,3,"A",375,213
"215","noload",10,"exp",8,5,10,"B",693,131
"216","noload",10,"exp",8,6,1,"A",351,183
"217","noload",10,"exp",8,7,8,"A",477,172
"218","noload",10,"exp",8,8,6,"B",319,254
"219","noload",10,"exp",8,9,7,"B",710,182
"220","noload",10,"exp",8,10,4,"A",243,184
"221","noload",10,"exp",9,1,6,"A",200,787
"222","noload",10,"exp",9,2,1,"A",189,212
"223","noload",10,"exp",9,3,9,"B",93,659
"224","noload",10,"exp",9,4,10,"B",52,495
"225","noload",10,"exp",9,5,5,"A",364,550
"226","noload",10,"exp",9,6,3,"B",1178,376
"227","noload",10,"exp",9,7,7,"B",350,357
"228","noload",10,"exp",9,8,8,"A",383,301
"229","noload",10,"exp",9,9,2,"B",685,312
"230","noload",10,"exp",9,10,4,"A",572,303
"231","noload",10,"exp",10,1,10,"B",2976,1927
"232","noload",10,"exp",10,2,1,"A",492,175
"233","noload",10,"exp",10,3,2,"A",214,181
"234","noload",10,"exp",10,4,3,"B",448,140
"235","noload",10,"exp",10,5,7,"B",2107,965
"236","noload",10,"exp",10,6,4,"A",292,222
"237","noload",10,"exp",10,7,5,"A",508,85
"238","noload",10,"exp",10,8,8,"B",570,446
"239","noload",10,"exp",10,9,9,"A",4,273
"240","noload",10,"exp",10,10,6,"B",376,355
"241","noload",10,"exp",11,1,8,"A",1125,151
"242","noload",10,"exp",11,2,10,"B",235,236
"243","noload",10,"exp",11,3,3,"B",374,148
"244","noload",10,"exp",11,4,6,"B",277,157
"245","noload",10,"exp",11,5,9,"B",347,164
"246","noload",10,"exp",11,6,2,"A",345,222
"247","noload",10,"exp",11,7,5,"A",535,164
"248","noload",10,"exp",11,8,4,"A",386,211
"249","noload",10,"exp",11,9,7,"B",198,336
"250","noload",10,"exp",11,10,1,"A",371,607
"251","noload",10,"exp",12,1,4,"A",651,126
"252","noload",10,"exp",12,2,8,"A",600,147
"253","noload",10,"exp",12,3,6,"B",747,83
"254","noload",10,"exp",12,4,5,"A",223,301
"255","noload",10,"exp",12,5,1,"A",277,189
"256","noload",10,"exp",12,6,2,"A",275,140
"257","noload",10,"exp",12,7,7,"B",316,158
"258","noload",10,"exp",12,8,10,"A",328,1067
"259","noload",10,"exp",12,9,3,"B",213,290
"260","noload",10,"exp",12,10,9,"B",414,418
"261","noload",11,"prac",0,1,0,"B",182,1322
"262","noload",11,"prac",0,2,0,"B",588,708
"263","noload",11,"prac",0,3,0,"B",453,451
"264","noload",11,"prac",0,4,0,"A",239,353
"265","noload",11,"prac",0,5,0,"A",235,379
"266","noload",11,"prac",0,6,0,"B",133,515
"267","noload",11,"prac",0,7,0,"A",460,427
"268","noload",11,"prac",0,8,0,"B",88,492
"269","noload",11,"prac",0,9,0,"A",332,383
"270","noload",11,"prac",0,10,0,"A",298,312
"271","noload",11,"exp",1,1,3,"B",388,1877
"272","noload",11,"exp",1,2,2,"A",1101,554
"273","noload",11,"exp",1,3,7,"B",508,997
"274","noload",11,"exp",1,4,8,"A",1805,743
"275","noload",11,"exp",1,5,5,"A",1866,931
"276","noload",11,"exp",1,6,1,"A",679,403
"277","noload",11,"exp",1,7,10,"B",1237,558
"278","noload",11,"exp",1,8,6,"B",440,355
"279","noload",11,"exp",1,9,9,"B",425,383
"280","noload",11,"exp",1,10,4,"A",349,404
"281","noload",11,"exp",2,1,10,"A",8846,1759
"282","noload",11,"exp",2,2,1,"A",457,280
"283","noload",11,"exp",2,3,4,"A",1261,746
"284","noload",11,"exp",2,4,7,"B",792,327
"285","noload",11,"exp",2,5,2,"A",375,278
"286","noload",11,"exp",2,6,9,"B",468,388
"287","noload",11,"exp",2,7,3,"A",1837,270
"288","noload",11,"exp",2,8,6,"B",637,364
"289","noload",11,"exp",2,9,5,"B",2248,557
"290","noload",11,"exp",2,10,8,"B",1129,348
"291","noload",11,"exp",3,1,2,"A",294,307
"292","noload",11,"exp",3,2,9,"B",260,201
"293","noload",11,"exp",3,3,8,"A",804,376
"294","noload",11,"exp",3,4,10,"B",623,427
"295","noload",11,"exp",3,5,3,"A",1482,359
"296","noload",11,"exp",3,6,1,"A",324,343
"297","noload",11,"exp",3,7,4,"A",405,312
"298","noload",11,"exp",3,8,6,"B",516,316
"299","noload",11,"exp",3,9,5,"B",5342,462
"300","noload",11,"exp",3,10,7,"B",203,276
"301","noload",11,"exp",4,1,4,"A",441,374
"302","noload",11,"exp",4,2,7,"B",365,361
"303","noload",11,"exp",4,3,2,"A",811,365
"304","noload",11,"exp",4,4,3,"A",2158,547
"305","noload",11,"exp",4,5,8,"B",596,588
"306","noload",11,"exp",4,6,5,"A",717,493
"307","noload",11,"exp",4,7,9,"B",298,295
"308","noload",11,"exp",4,8,6,"B",309,325
"309","noload",11,"exp",4,9,1,"A",383,379
"310","noload",11,"exp",4,10,10,"B",758,464
"311","noload",11,"exp",5,1,9,"B",286,296
"312","noload",11,"exp",5,2,3,"B",528,297
"313","noload",11,"exp",5,3,10,"B",232,488
"314","noload",11,"exp",5,4,7,"B",262,411
"315","noload",11,"exp",5,5,8,"A",1677,318
"316","noload",11,"exp",5,6,1,"A",440,370
"317","noload",11,"exp",5,7,4,"A",171,317
"318","noload",11,"exp",5,8,5,"B",798,445
"319","noload",11,"exp",5,9,2,"A",356,285
"320","noload",11,"exp",5,10,6,"B",161,275
"321","noload",11,"exp",6,1,7,"B",494,357
"322","noload",11,"exp",6,2,3,"B",581,348
"323","noload",11,"exp",6,3,1,"A",307,450
"324","noload",11,"exp",6,4,8,"B",669,293
"325","noload",11,"exp",6,5,9,"B",221,299
"326","noload",11,"exp",6,6,2,"A",428,341
"327","noload",11,"exp",6,7,4,"A",231,312
"328","noload",11,"exp",6,8,6,"B",282,613
"329","noload",11,"exp",6,9,10,"A",1123,457
"330","noload",11,"exp",6,10,5,"B",359,559
"331","noload",11,"exp",7,1,2,"A",345,238
"332","noload",11,"exp",7,2,9,"B",118,381
"333","noload",11,"exp",7,3,3,"B",449,458
"334","noload",11,"exp",7,4,10,"A",602,468
"335","noload",11,"exp",7,5,8,"B",1165,694
"336","noload",11,"exp",7,6,1,"A",291,383
"337","noload",11,"exp",7,7,4,"A",249,348
"338","noload",11,"exp",7,8,6,"B",166,282
"339","noload",11,"exp",7,9,5,"B",1077,413
"340","noload",11,"exp",7,10,7,"B",334,387
"341","noload",11,"exp",8,1,3,"B",521,356
"342","noload",11,"exp",8,2,10,"B",1222,332
"343","noload",11,"exp",8,3,1,"A",127,362
"344","noload",11,"exp",8,4,7,"B",247,363
"345","noload",11,"exp",8,5,2,"A",310,391
"346","noload",11,"exp",8,6,4,"A",186,419
"347","noload",11,"exp",8,7,6,"B",175,291
"348","noload",11,"exp",8,8,9,"B",214,260
"349","noload",11,"exp",8,9,5,"B",593,314
"350","noload",11,"exp",8,10,8,"B",41,307
"351","noload",11,"exp",9,1,8,"A",1134,374
"352","noload",11,"exp",9,2,4,"A",1350,633
"353","noload",11,"exp",9,3,2,"A",412,371
"354","noload",11,"exp",9,4,5,"A",538,263
"355","noload",11,"exp",9,5,3,"B",272,328
"356","noload",11,"exp",9,6,10,"B",1504,558
"357","noload",11,"exp",9,7,7,"B",277,542
"358","noload",11,"exp",9,8,1,"A",2422,461
"359","noload",11,"exp",9,9,9,"B",435,364
"360","noload",11,"exp",9,10,6,"B",271,294
"361","noload",11,"exp",10,1,3,"B",654,371
"362","noload",11,"exp",10,2,9,"B",548,260
"363","noload",11,"exp",10,3,1,"A",279,334
"364","noload",11,"exp",10,4,6,"B",345,381
"365","noload",11,"exp",10,5,5,"A",1583,429
"366","noload",11,"exp",10,6,10,"B",192,297
"367","noload",11,"exp",10,7,4,"A",384,366
"368","noload",11,"exp",10,8,8,"A",440,307
"369","noload",11,"exp",10,9,7,"B",229,292
"370","noload",11,"exp",10,10,2,"A",425,350
"371","noload",11,"exp",11,1,9,"B",518,415
"372","noload",11,"exp",11,2,7,"B",310,341
"373","noload",11,"exp",11,3,4,"A",311,535
"374","noload",11,"exp",11,4,2,"A",284,407
"375","noload",11,"exp",11,5,6,"B",488,317
"376","noload",11,"exp",11,6,1,"A",359,290
"377","noload",11,"exp",11,7,8,"A",3631,633
"378","noload",11,"exp",11,8,3,"B",745,253
"379","noload",11,"exp",11,9,5,"A",373,260
"380","noload",11,"exp",11,10,10,"B",362,276
"381","noload",11,"exp",12,1,4,"A",344,239
"382","noload",11,"exp",12,2,10,"B",859,378
"383","noload",11,"exp",12,3,2,"A",334,290
"384","noload",11,"exp",12,4,3,"B",671,342
"385","noload",11,"exp",12,5,8,"A",507,244
"386","noload",11,"exp",12,6,5,"A",325,313
"387","noload",11,"exp",12,7,6,"B",440,273
"388","noload",11,"exp",12,8,1,"A",252,285
"389","noload",11,"exp",12,9,7,"B",332,319
"390","noload",11,"exp",12,10,9,"B",422,281
"391","noload",13,"prac",0,1,0,"A",3030,1833
"392","noload",13,"prac",0,2,0,"A",1448,1133
"393","noload",13,"prac",0,3,0,"A",2079,723
"394","noload",13,"prac",0,4,0,"B",1007,1530
"395","noload",13,"prac",0,5,0,"A",1609,1229
"396","noload",13,"prac",0,6,0,"A",1270,838
"397","noload",13,"prac",0,7,0,"B",2675,1149
"398","noload",13,"prac",0,8,0,"B",1783,655
"399","noload",13,"prac",0,9,0,"B",1017,615
"400","noload",13,"prac",0,10,0,"B",1069,678
"401","noload",13,"exp",1,1,7,"B",1062,1261
"402","noload",13,"exp",1,2,5,"A",2380,1212
"403","noload",13,"exp",1,3,1,"A",1297,791
"404","noload",13,"exp",1,4,4,"A",1683,502
"405","noload",13,"exp",1,5,10,"B",1493,755
"406","noload",13,"exp",1,6,6,"B",1404,726
"407","noload",13,"exp",1,7,3,"B",1558,607
"408","noload",13,"exp",1,8,8,"A",976,711
"409","noload",13,"exp",1,9,9,"B",978,568
"410","noload",13,"exp",1,10,2,"A",668,709
"411","noload",13,"exp",2,1,5,"A",743,606
"412","noload",13,"exp",2,2,10,"B",908,468
"413","noload",13,"exp",2,3,9,"B",986,530
"414","noload",13,"exp",2,4,6,"B",1546,548
"415","noload",13,"exp",2,5,4,"A",811,382
"416","noload",13,"exp",2,6,7,"B",772,479
"417","noload",13,"exp",2,7,3,"B",1342,428
"418","noload",13,"exp",2,8,2,"A",764,471
"419","noload",13,"exp",2,9,1,"A",628,325
"420","noload",13,"exp",2,10,8,"A",1034,331
"421","noload",13,"exp",3,1,4,"A",742,429
"422","noload",13,"exp",3,2,8,"A",485,584
"423","noload",13,"exp",3,3,10,"B",635,829
"424","noload",13,"exp",3,4,6,"B",512,456
"425","noload",13,"exp",3,5,7,"B",790,502
"426","noload",13,"exp",3,6,1,"A",643,455
"427","noload",13,"exp",3,7,5,"B",1116,571
"428","noload",13,"exp",3,8,9,"B",508,404
"429","noload",13,"exp",3,9,2,"A",1527,618
"430","noload",13,"exp",3,10,3,"B",381,426
"431","noload",13,"exp",4,1,2,"A",798,286
"432","noload",13,"exp",4,2,9,"B",845,967
"433","noload",13,"exp",4,3,10,"B",1316,828
"434","noload",13,"exp",4,4,5,"A",1017,567
"435","noload",13,"exp",4,5,6,"B",757,461
"436","noload",13,"exp",4,6,3,"B",2011,512
"437","noload",13,"exp",4,7,7,"B",633,602
"438","noload",13,"exp",4,8,1,"A",760,467
"439","noload",13,"exp",4,9,8,"A",1306,515
"440","noload",13,"exp",4,10,4,"A",842,487
"441","noload",13,"exp",5,1,8,"A",853,403
"442","noload",13,"exp",5,2,3,"B",682,340
"443","noload",13,"exp",5,3,5,"A",1063,654
"444","noload",13,"exp",5,4,7,"B",1770,510
"445","noload",13,"exp",5,5,9,"B",1078,355
"446","noload",13,"exp",5,6,2,"A",1641,581
"447","noload",13,"exp",5,7,10,"B",936,390
"448","noload",13,"exp",5,8,6,"B",688,475
"449","noload",13,"exp",5,9,4,"A",761,420
"450","noload",13,"exp",5,10,1,"A",583,398
"451","noload",13,"exp",6,1,10,"B",830,327
"452","noload",13,"exp",6,2,2,"A",730,285
"453","noload",13,"exp",6,3,3,"B",611,446
"454","noload",13,"exp",6,4,5,"A",184,972
"455","noload",13,"exp",6,5,4,"A",1503,285
"456","noload",13,"exp",6,6,6,"B",769,299
"457","noload",13,"exp",6,7,9,"B",438,638
"458","noload",13,"exp",6,8,8,"A",986,724
"459","noload",13,"exp",6,9,1,"A",395,410
"460","noload",13,"exp",6,10,7,"B",594,362
"461","noload",13,"exp",7,1,7,"B",1323,392
"462","noload",13,"exp",7,2,1,"A",614,390
"463","noload",13,"exp",7,3,10,"B",686,377
"464","noload",13,"exp",7,4,2,"A",256,726
"465","noload",13,"exp",7,5,8,"A",580,330
"466","noload",13,"exp",7,6,5,"A",808,1036
"467","noload",13,"exp",7,7,6,"B",677,366
"468","noload",13,"exp",7,8,9,"B",1671,231
"469","noload",13,"exp",7,9,3,"B",350,214
"470","noload",13,"exp",7,10,4,"A",155,618
"471","noload",13,"exp",8,1,5,"A",1457,551
"472","noload",13,"exp",8,2,6,"B",2143,558
"473","noload",13,"exp",8,3,8,"A",1926,426
"474","noload",13,"exp",8,4,3,"B",2335,1559
"475","noload",13,"exp",8,5,9,"B",1625,498
"476","noload",13,"exp",8,6,4,"A",1272,361
"477","noload",13,"exp",8,7,7,"B",1515,347
"478","noload",13,"exp",8,8,10,"B",677,477
"479","noload",13,"exp",8,9,2,"A",956,492
"480","noload",13,"exp",8,10,1,"A",425,381
"481","noload",13,"exp",9,1,3,"B",487,314
"482","noload",13,"exp",9,2,7,"B",406,282
"483","noload",13,"exp",9,3,5,"A",455,613
"484","noload",13,"exp",9,4,1,"A",684,199
"485","noload",13,"exp",9,5,2,"A",1347,374
"486","noload",13,"exp",9,6,8,"B",917,396
"487","noload",13,"exp",9,7,4,"A",2592,295
"488","noload",13,"exp",9,8,10,"B",2565,249
"489","noload",13,"exp",9,9,9,"B",2585,259
"490","noload",13,"exp",9,10,6,"B",997,271
"491","noload",13,"exp",10,1,2,"A",780,217
"492","noload",13,"exp",10,2,10,"B",838,638
"493","noload",13,"exp",10,3,6,"B",628,357
"494","noload",13,"exp",10,4,8,"B",2351,360
"495","noload",13,"exp",10,5,1,"A",522,278
"496","noload",13,"exp",10,6,3,"A",1006,250
"497","noload",13,"exp",10,7,9,"B",1256,247
"498","noload",13,"exp",10,8,7,"B",505,271
"499","noload",13,"exp",10,9,4,"A",1776,278
"500","noload",13,"exp",10,10,5,"A",683,327
"501","noload",13,"exp",11,1,8,"B",1146,163
"502","noload",13,"exp",11,2,1,"A",567,252
"503","noload",13,"exp",11,3,3,"A",2067,438
"504","noload",13,"exp",11,4,10,"B",1652,159
"505","noload",13,"exp",11,5,2,"A",526,200
"506","noload",13,"exp",11,6,7,"B",750,184
"507","noload",13,"exp",11,7,4,"A",1528,220
"508","noload",13,"exp",11,8,9,"B",1534,276
"509","noload",13,"exp",11,9,6,"B",838,157
"510","noload",13,"exp",11,10,5,"A",2358,243
"511","noload",13,"exp",12,1,6,"B",522,405
"512","noload",13,"exp",12,2,8,"B",1390,518
"513","noload",13,"exp",12,3,9,"A",1002,454
"514","noload",13,"exp",12,4,4,"A",1772,243
"515","noload",13,"exp",12,5,1,"A",598,335
"516","noload",13,"exp",12,6,5,"A",1175,498
"517","noload",13,"exp",12,7,2,"A",413,339
"518","noload",13,"exp",12,8,10,"B",538,360
"519","noload",13,"exp",12,9,3,"A",1406,328
"520","noload",13,"exp",12,10,7,"B",1197,398
"521","noload",14,"prac",0,1,0,"A",7026,999
"522","noload",14,"prac",0,2,0,"A",4105,468
"523","noload",14,"prac",0,3,0,"A",1245,616
"524","noload",14,"prac",0,4,0,"A",716,412
"525","noload",14,"prac",0,5,0,"B",911,858
"526","noload",14,"prac",0,6,0,"B",2649,541
"527","noload",14,"prac",0,7,0,"B",1030,759
"528","noload",14,"prac",0,8,0,"A",907,804
"529","noload",14,"prac",0,9,0,"B",660,362
"530","noload",14,"prac",0,10,0,"B",835,764
"531","noload",14,"exp",1,1,1,"A",911,344
"532","noload",14,"exp",1,2,3,"B",902,364
"533","noload",14,"exp",1,3,5,"A",668,259
"534","noload",14,"exp",1,4,7,"B",666,291
"535","noload",14,"exp",1,5,2,"A",762,276
"536","noload",14,"exp",1,6,9,"B",670,261
"537","noload",14,"exp",1,7,4,"A",746,243
"538","noload",14,"exp",1,8,6,"B",366,265
"539","noload",14,"exp",1,9,8,"B",1277,286
"540","noload",14,"exp",1,10,10,"B",8136,316
"541","noload",14,"exp",2,1,1,"A",1029,215
"542","noload",14,"exp",2,2,10,"B",490,301
"543","noload",14,"exp",2,3,4,"A",918,207
"544","noload",14,"exp",2,4,8,"A",4006,283
"545","noload",14,"exp",2,5,3,"B",1341,315
"546","noload",14,"exp",2,6,6,"B",1695,278
"547","noload",14,"exp",2,7,2,"A",723,247
"548","noload",14,"exp",2,8,7,"B",1008,251
"549","noload",14,"exp",2,9,9,"B",615,309
"550","noload",14,"exp",2,10,5,"A",1211,222
"551","noload",14,"exp",3,1,5,"A",1766,713
"552","noload",14,"exp",3,2,4,"A",757,238
"553","noload",14,"exp",3,3,8,"A",1406,299
"554","noload",14,"exp",3,4,2,"A",686,233
"555","noload",14,"exp",3,5,7,"B",745,206
"556","noload",14,"exp",3,6,1,"A",430,215
"557","noload",14,"exp",3,7,3,"B",954,1579
"558","noload",14,"exp",3,8,10,"B",706,339
"559","noload",14,"exp",3,9,9,"B",487,346
"560","noload",14,"exp",3,10,6,"B",600,418
"561","noload",14,"exp",4,1,8,"A",1191,185
"562","noload",14,"exp",4,2,7,"B",1806,218
"563","noload",14,"exp",4,3,6,"B",457,263
"564","noload",14,"exp",4,4,9,"B",493,179
"565","noload",14,"exp",4,5,10,"B",281,196
"566","noload",14,"exp",4,6,3,"B",1788,246
"567","noload",14,"exp",4,7,2,"A",1127,315
"568","noload",14,"exp",4,8,1,"A",568,219
"569","noload",14,"exp",4,9,5,"A",2070,344
"570","noload",14,"exp",4,10,4,"A",515,300
"571","noload",14,"exp",5,1,3,"B",1110,631
"572","noload",14,"exp",5,2,1,"A",389,740
"573","noload",14,"exp",5,3,6,"B",347,180
"574","noload",14,"exp",5,4,2,"A",426,194
"575","noload",14,"exp",5,5,4,"A",491,269
"576","noload",14,"exp",5,6,9,"B",859,250
"577","noload",14,"exp",5,7,5,"A",623,284
"578","noload",14,"exp",5,8,10,"B",910,215
"579","noload",14,"exp",5,9,8,"A",3497,234
"580","noload",14,"exp",5,10,7,"B",880,291
"581","noload",14,"exp",6,1,6,"B",1125,295
"582","noload",14,"exp",6,2,8,"A",1877,479
"583","noload",14,"exp",6,3,4,"A",1157,366
"584","noload",14,"exp",6,4,7,"B",614,307
"585","noload",14,"exp",6,5,1,"A",656,404
"586","noload",14,"exp",6,6,3,"B",910,392
"587","noload",14,"exp",6,7,10,"B",582,315
"588","noload",14,"exp",6,8,9,"B",394,250
"589","noload",14,"exp",6,9,2,"A",793,217
"590","noload",14,"exp",6,10,5,"A",842,198
"591","noload",14,"exp",7,1,5,"A",1127,218
"592","noload",14,"exp",7,2,9,"B",414,244
"593","noload",14,"exp",7,3,2,"A",1060,281
"594","noload",14,"exp",7,4,3,"B",1884,215
"595","noload",14,"exp",7,5,1,"A",1286,187
"596","noload",14,"exp",7,6,7,"B",773,307
"597","noload",14,"exp",7,7,10,"A",936,295
"598","noload",14,"exp",7,8,4,"B",2317,237
"599","noload",14,"exp",7,9,8,"A",1032,520
"600","noload",14,"exp",7,10,6,"B",1580,267
"601","noload",14,"exp",8,1,3,"B",1238,290
"602","noload",14,"exp",8,2,4,"A",2484,904
"603","noload",14,"exp",8,3,7,"B",798,351
"604","noload",14,"exp",8,4,10,"B",1451,271
"605","noload",14,"exp",8,5,5,"A",804,1112
"606","noload",14,"exp",8,6,1,"A",607,283
"607","noload",14,"exp",8,7,8,"A",959,354
"608","noload",14,"exp",8,8,6,"B",805,264
"609","noload",14,"exp",8,9,9,"B",1412,273
"610","noload",14,"exp",8,10,2,"A",815,836
"611","noload",14,"exp",9,1,6,"B",1020,155
"612","noload",14,"exp",9,2,4,"A",1790,391
"613","noload",14,"exp",9,3,9,"B",957,269
"614","noload",14,"exp",9,4,3,"B",549,277
"615","noload",14,"exp",9,5,8,"A",659,265
"616","noload",14,"exp",9,6,7,"B",339,283
"617","noload",14,"exp",9,7,10,"B",424,270
"618","noload",14,"exp",9,8,1,"A",643,343
"619","noload",14,"exp",9,9,5,"A",524,408
"620","noload",14,"exp",9,10,2,"A",452,527
"621","noload",14,"exp",10,1,2,"A",1782,574
"622","noload",14,"exp",10,2,1,"A",836,221
"623","noload",14,"exp",10,3,9,"B",439,227
"624","noload",14,"exp",10,4,7,"B",1006,314
"625","noload",14,"exp",10,5,5,"A",1804,281
"626","noload",14,"exp",10,6,10,"B",421,283
"627","noload",14,"exp",10,7,4,"A",478,334
"628","noload",14,"exp",10,8,3,"B",550,277
"629","noload",14,"exp",10,9,6,"B",368,394
"630","noload",14,"exp",10,10,8,"A",766,250
"631","noload",14,"exp",11,1,7,"B",778,298
"632","noload",14,"exp",11,2,2,"A",1139,219
"633","noload",14,"exp",11,3,10,"B",510,229
"634","noload",14,"exp",11,4,1,"A",1029,277
"635","noload",14,"exp",11,5,9,"B",301,298
"636","noload",14,"exp",11,6,8,"B",5150,1194
"637","noload",14,"exp",11,7,6,"B",1224,255
"638","noload",14,"exp",11,8,3,"B",619,184
"639","noload",14,"exp",11,9,5,"A",1196,348
"640","noload",14,"exp",11,10,4,"A",1413,179
"641","noload",14,"exp",12,1,2,"A",850,158
"642","noload",14,"exp",12,2,7,"B",521,211
"643","noload",14,"exp",12,3,4,"A",437,204
"644","noload",14,"exp",12,4,6,"B",1237,304
"645","noload",14,"exp",12,5,9,"B",330,238
"646","noload",14,"exp",12,6,8,"A",1129,253
"647","noload",14,"exp",12,7,5,"A",999,287
"648","noload",14,"exp",12,8,1,"A",1389,229
"649","noload",14,"exp",12,9,10,"B",764,247
"650","noload",14,"exp",12,10,3,"B",1052,269
"651","noload",15,"prac",0,1,0,"A",4026,1350
"652","noload",15,"prac",0,2,0,"B",1721,1076
"653","noload",15,"prac",0,3,0,"B",2820,891
"654","noload",15,"prac",0,4,0,"A",1829,1637
"655","noload",15,"prac",0,5,0,"A",2206,1017
"656","noload",15,"prac",0,6,0,"A",1836,780
"657","noload",15,"prac",0,7,0,"B",2139,858
"658","noload",15,"prac",0,8,0,"A",1240,658
"659","noload",15,"prac",0,9,0,"B",1497,505
"660","noload",15,"prac",0,10,0,"B",1412,259
"661","noload",15,"exp",1,1,4,"A",3987,839
"662","noload",15,"exp",1,2,1,"A",1174,422
"663","noload",15,"exp",1,3,6,"B",10576,845
"664","noload",15,"exp",1,4,8,"B",3032,507
"665","noload",15,"exp",1,5,7,"B",1087,506
"666","noload",15,"exp",1,6,3,"A",1474,571
"667","noload",15,"exp",1,7,5,"B",13224,891
"668","noload",15,"exp",1,8,9,"B",3125,714
"669","noload",15,"exp",1,9,10,"A",12079,587
"670","noload",15,"exp",1,10,2,"A",1143,333
"671","noload",15,"exp",2,1,10,"B",6629,459
"672","noload",15,"exp",2,2,2,"A",1004,471
"673","noload",15,"exp",2,3,3,"B",4388,407
"674","noload",15,"exp",2,4,7,"B",1140,329
"675","noload",15,"exp",2,5,4,"A",907,340
"676","noload",15,"exp",2,6,8,"B",9746,905
"677","noload",15,"exp",2,7,6,"B",1081,406
"678","noload",15,"exp",2,8,1,"A",975,357
"679","noload",15,"exp",2,9,9,"B",936,326
"680","noload",15,"exp",2,10,5,"B",1609,333
"681","noload",15,"exp",3,1,2,"A",923,343
"682","noload",15,"exp",3,2,7,"B",1106,243
"683","noload",15,"exp",3,3,4,"A",826,307
"684","noload",15,"exp",3,4,10,"B",1404,295
"685","noload",15,"exp",3,5,5,"B",1016,214
"686","noload",15,"exp",3,6,9,"B",1111,233
"687","noload",15,"exp",3,7,3,"B",1593,251
"688","noload",15,"exp",3,8,6,"B",1390,279
"689","noload",15,"exp",3,9,8,"B",778,247
"690","noload",15,"exp",3,10,1,"A",895,355
"691","noload",15,"exp",4,1,1,"A",1485,1016
"692","noload",15,"exp",4,2,3,"B",1053,274
"693","noload",15,"exp",4,3,10,"B",2164,184
"694","noload",15,"exp",4,4,8,"B",1661,203
"695","noload",15,"exp",4,5,6,"B",1541,219
"696","noload",15,"exp",4,6,4,"A",840,1027
"697","noload",15,"exp",4,7,7,"B",1334,372
"698","noload",15,"exp",4,8,5,"B",1037,270
"699","noload",15,"exp",4,9,2,"A",1034,299
"700","noload",15,"exp",4,10,9,"B",1675,781
"701","noload",15,"exp",5,1,10,"A",23717,417
"702","noload",15,"exp",5,2,4,"A",945,335
"703","noload",15,"exp",5,3,5,"B",3103,5934
"704","noload",15,"exp",5,4,2,"A",813,258
"705","noload",15,"exp",5,5,8,"B",760,323
"706","noload",15,"exp",5,6,3,"A",1430,374
"707","noload",15,"exp",5,7,9,"B",974,404
"708","noload",15,"exp",5,8,1,"A",742,860
"709","noload",15,"exp",5,9,6,"B",797,223
"710","noload",15,"exp",5,10,7,"B",748,389
"711","noload",15,"exp",6,1,7,"B",1623,573
"712","noload",15,"exp",6,2,6,"B",965,312
"713","noload",15,"exp",6,3,8,"A",1153,393
"714","noload",15,"exp",6,4,4,"A",965,472
"715","noload",15,"exp",6,5,3,"A",1020,363
"716","noload",15,"exp",6,6,5,"A",1096,565
"717","noload",15,"exp",6,7,9,"B",767,474
"718","noload",15,"exp",6,8,1,"A",879,451
"719","noload",15,"exp",6,9,2,"A",747,372
"720","noload",15,"exp",6,10,10,"B",1535,373
"721","noload",15,"exp",7,1,4,"A",867,452
"722","noload",15,"exp",7,2,6,"B",887,267
"723","noload",15,"exp",7,3,7,"B",752,230
"724","noload",15,"exp",7,4,5,"B",1431,297
"725","noload",15,"exp",7,5,10,"A",878,351
"726","noload",15,"exp",7,6,2,"A",959,387
"727","noload",15,"exp",7,7,8,"B",1123,342
"728","noload",15,"exp",7,8,1,"A",1435,380
"729","noload",15,"exp",7,9,9,"B",757,350
"730","noload",15,"exp",7,10,3,"A",972,558
"731","noload",15,"exp",8,1,10,"A",1239,963
"732","noload",15,"exp",8,2,7,"B",806,327
"733","noload",15,"exp",8,3,6,"B",710,325
"734","noload",15,"exp",8,4,3,"A",855,340
"735","noload",15,"exp",8,5,5,"B",968,314
"736","noload",15,"exp",8,6,8,"B",604,247
"737","noload",15,"exp",8,7,1,"A",759,3426
"738","noload",15,"exp",8,8,2,"A",1136,502
"739","noload",15,"exp",8,9,9,"B",702,333
"740","noload",15,"exp",8,10,4,"A",932,367
"741","noload",15,"exp",9,1,1,"A",859,200
"742","noload",15,"exp",9,2,4,"A",830,264
"743","noload",15,"exp",9,3,3,"A",907,323
"744","noload",15,"exp",9,4,9,"B",638,335
"745","noload",15,"exp",9,5,2,"A",717,317
"746","noload",15,"exp",9,6,10,"A",1386,356
"747","noload",15,"exp",9,7,5,"B",924,376
"748","noload",15,"exp",9,8,7,"B",690,302
"749","noload",15,"exp",9,9,6,"B",1559,1027
"750","noload",15,"exp",9,10,8,"B",867,1029
"751","noload",15,"exp",10,1,9,"B",1293,244
"752","noload",15,"exp",10,2,5,"B",750,295
"753","noload",15,"exp",10,3,2,"A",574,306
"754","noload",15,"exp",10,4,7,"B",633,393
"755","noload",15,"exp",10,5,8,"B",725,279
"756","noload",15,"exp",10,6,10,"A",1101,332
"757","noload",15,"exp",10,7,6,"B",1035,269
"758","noload",15,"exp",10,8,3,"A",675,330
"759","noload",15,"exp",10,9,4,"A",774,275
"760","noload",15,"exp",10,10,1,"A",759,352
"761","noload",15,"exp",11,1,3,"A",1351,326
"762","noload",15,"exp",11,2,2,"A",872,263
"763","noload",15,"exp",11,3,5,"B",662,300
"764","noload",15,"exp",11,4,1,"A",643,296
"765","noload",15,"exp",11,5,7,"B",814,260
"766","noload",15,"exp",11,6,10,"A",595,300
"767","noload",15,"exp",11,7,9,"B",599,258
"768","noload",15,"exp",11,8,4,"A",832,263
"769","noload",15,"exp",11,9,8,"B",777,294
"770","noload",15,"exp",11,10,6,"B",637,222
"771","noload",15,"exp",12,1,3,"B",1564,8279
"772","noload",15,"exp",12,2,8,"A",800,369
"773","noload",15,"exp",12,3,10,"B",730,333
"774","noload",15,"exp",12,4,6,"B",780,265
"775","noload",15,"exp",12,5,7,"B",665,307
"776","noload",15,"exp",12,6,5,"A",987,372
"777","noload",15,"exp",12,7,9,"B",745,287
"778","noload",15,"exp",12,8,2,"A",644,328
"779","noload",15,"exp",12,9,4,"A",808,396
"780","noload",15,"exp",12,10,1,"A",650,364
"781","noload",16,"prac",0,1,0,"A",4964,954
"782","noload",16,"prac",0,2,0,"A",6942,785
"783","noload",16,"prac",0,3,0,"B",5035,1039
"784","noload",16,"prac",0,4,0,"B",2458,1002
"785","noload",16,"prac",0,5,0,"A",9050,918
"786","noload",16,"prac",0,6,0,"A",1270,633
"787","noload",16,"prac",0,7,0,"B",3543,833
"788","noload",16,"prac",0,8,0,"A",11079,777
"789","noload",16,"prac",0,9,0,"A",19559,755
"790","noload",16,"prac",0,10,0,"B",25238,1286
"791","noload",16,"exp",1,1,6,"B",2294,566
"792","noload",16,"exp",1,2,1,"A",1085,714
"793","noload",16,"exp",1,3,8,"A",925,439
"794","noload",16,"exp",1,4,3,"B",342,300
"795","noload",16,"exp",1,5,4,"A",1834,298
"796","noload",16,"exp",1,6,9,"B",608,748
"797","noload",16,"exp",1,7,7,"B",1248,412
"798","noload",16,"exp",1,8,5,"A",432,792
"799","noload",16,"exp",1,9,2,"A",1786,467
"800","noload",16,"exp",1,10,10,"B",421,473
"801","noload",16,"exp",2,1,5,"A",892,449
"802","noload",16,"exp",2,2,6,"B",655,420
"803","noload",16,"exp",2,3,3,"B",445,825
"804","noload",16,"exp",2,4,8,"A",568,363
"805","noload",16,"exp",2,5,1,"A",599,382
"806","noload",16,"exp",2,6,9,"B",568,315
"807","noload",16,"exp",2,7,10,"B",747,387
"808","noload",16,"exp",2,8,4,"A",747,389
"809","noload",16,"exp",2,9,2,"A",855,454
"810","noload",16,"exp",2,10,7,"B",400,323
"811","noload",16,"exp",3,1,2,"A",599,404
"812","noload",16,"exp",3,2,10,"B",299,454
"813","noload",16,"exp",3,3,4,"A",299,264
"814","noload",16,"exp",3,4,7,"B",286,344
"815","noload",16,"exp",3,5,8,"A",269,308
"816","noload",16,"exp",3,6,6,"B",859,375
"817","noload",16,"exp",3,7,3,"B",501,411
"818","noload",16,"exp",3,8,9,"B",441,387
"819","noload",16,"exp",3,9,5,"A",4453,357
"820","noload",16,"exp",3,10,1,"A",1188,373
"821","noload",16,"exp",4,1,7,"B",1663,382
"822","noload",16,"exp",4,2,4,"A",725,375
"823","noload",16,"exp",4,3,8,"B",1950,311
"824","noload",16,"exp",4,4,3,"B",1933,277
"825","noload",16,"exp",4,5,5,"B",6266,344
"826","noload",16,"exp",4,6,1,"A",472,391
"827","noload",16,"exp",4,7,10,"B",1064,412
"828","noload",16,"exp",4,8,2,"A",550,423
"829","noload",16,"exp",4,9,6,"B",328,444
"830","noload",16,"exp",4,10,9,"B",1343,301
"831","noload",16,"exp",5,1,5,"B",1302,1002
"832","noload",16,"exp",5,2,7,"B",261,377
"833","noload",16,"exp",5,3,10,"B",1226,243
"834","noload",16,"exp",5,4,9,"B",380,282
"835","noload",16,"exp",5,5,6,"B",288,284
"836","noload",16,"exp",5,6,3,"B",342,332
"837","noload",16,"exp",5,7,2,"A",374,261
"838","noload",16,"exp",5,8,4,"A",260,251
"839","noload",16,"exp",5,9,8,"B",684,294
"840","noload",16,"exp",5,10,1,"A",317,253
"841","noload",16,"exp",6,1,3,"B",969,284
"842","noload",16,"exp",6,2,8,"B",1004,375
"843","noload",16,"exp",6,3,5,"B",986,213
"844","noload",16,"exp",6,4,2,"A",421,268
"845","noload",16,"exp",6,5,9,"B",350,248
"846","noload",16,"exp",6,6,6,"B",293,321
"847","noload",16,"exp",6,7,7,"B",266,335
"848","noload",16,"exp",6,8,4,"A",383,316
"849","noload",16,"exp",6,9,10,"A",411,270
"850","noload",16,"exp",6,10,1,"A",309,215
"851","noload",16,"exp",7,1,5,"B",1883,296
"852","noload",16,"exp",7,2,2,"A",310,276
"853","noload",16,"exp",7,3,1,"A",283,232
"854","noload",16,"exp",7,4,6,"B",535,310
"855","noload",16,"exp",7,5,10,"A",357,318
"856","noload",16,"exp",7,6,7,"B",1592,313
"857","noload",16,"exp",7,7,4,"A",233,280
"858","noload",16,"exp",7,8,3,"A",323,327
"859","noload",16,"exp",7,9,8,"B",258,279
"860","noload",16,"exp",7,10,9,"B",1327,568
"861","noload",16,"exp",8,1,1,"A",328,236
"862","noload",16,"exp",8,2,10,"A",14,193
"863","noload",16,"exp",8,3,5,"B",198,254
"864","noload",16,"exp",8,4,7,"B",256,263
"865","noload",16,"exp",8,5,8,"B",293,321
"866","noload",16,"exp",8,6,2,"A",216,246
"867","noload",16,"exp",8,7,9,"B",314,312
"868","noload",16,"exp",8,8,3,"A",282,340
"869","noload",16,"exp",8,9,4,"A",266,307
"870","noload",16,"exp",8,10,6,"B",389,373
"871","noload",16,"exp",9,1,9,"B",760,292
"872","noload",16,"exp",9,2,1,"A",320,224
"873","noload",16,"exp",9,3,3,"A",478,1198
"874","noload",16,"exp",9,4,10,"A",217,262
"875","noload",16,"exp",9,5,6,"B",182,253
"876","noload",16,"exp",9,6,7,"B",309,228
"877","noload",16,"exp",9,7,5,"B",255,228
"878","noload",16,"exp",9,8,4,"A",58,343
"879","noload",16,"exp",9,9,2,"A",254,293
"880","noload",16,"exp",9,10,8,"B",248,299
"881","noload",16,"exp",10,1,10,"A",367,231
"882","noload",16,"exp",10,2,5,"B",339,281
"883","noload",16,"exp",10,3,4,"A",237,270
"884","noload",16,"exp",10,4,1,"A",287,265
"885","noload",16,"exp",10,5,6,"B",281,260
"886","noload",16,"exp",10,6,9,"A",437,525
"887","noload",16,"exp",10,7,7,"B",635,300
"888","noload",16,"exp",10,8,3,"A",303,350
"889","noload",16,"exp",10,9,2,"A",303,351
"890","noload",16,"exp",10,10,8,"B",489,316
"891","noload",16,"exp",11,1,2,"A",283,260
"892","noload",16,"exp",11,2,5,"B",245,249
"893","noload",16,"exp",11,3,10,"A",238,254
"894","noload",16,"exp",11,4,9,"B",294,307
"895","noload",16,"exp",11,5,1,"A",222,266
"896","noload",16,"exp",11,6,4,"A",231,264
"897","noload",16,"exp",11,7,8,"B",237,237
"898","noload",16,"exp",11,8,3,"A",271,231
"899","noload",16,"exp",11,9,7,"B",208,264
"900","noload",16,"exp",11,10,6,"B",1084,262
"901","noload",16,"exp",12,1,8,"B",1382,443
"902","noload",16,"exp",12,2,3,"A",503,524
"903","noload",16,"exp",12,3,10,"A",404,326
"904","noload",16,"exp",12,4,5,"B",334,371
"905","noload",16,"exp",12,5,6,"B",455,402
"906","noload",16,"exp",12,6,4,"A",268,692
"907","noload",16,"exp",12,7,2,"A",355,315
"908","noload",16,"exp",12,8,9,"B",281,388
"909","noload",16,"exp",12,9,1,"A",413,435
"910","noload",16,"exp",12,10,7,"B",476,444
"911","noload",17,"prac",0,1,0,"B",2204,2152
"912","noload",17,"prac",0,2,0,"A",4343,622
"913","noload",17,"prac",0,3,0,"A",678,431
"914","noload",17,"prac",0,4,0,"A",1054,659
"915","noload",17,"prac",0,5,0,"A",1020,315
"916","noload",17,"prac",0,6,0,"B",654,276
"917","noload",17,"prac",0,7,0,"B",165,616
"918","noload",17,"prac",0,8,0,"B",547,389
"919","noload",17,"prac",0,9,0,"B",549,453
"920","noload",17,"prac",0,10,0,"A",146,690
"921","noload",17,"exp",1,1,5,"B",3529,747
"922","noload",17,"exp",1,2,6,"B",1655,1557
"923","noload",17,"exp",1,3,9,"B",1333,754
"924","noload",17,"exp",1,4,3,"A",1765,760
"925","noload",17,"exp",1,5,4,"A",840,451
"926","noload",17,"exp",1,6,1,"A",908,356
"927","noload",17,"exp",1,7,10,"A",7459,429
"928","noload",17,"exp",1,8,7,"B",1117,350
"929","noload",17,"exp",1,9,2,"A",2286,298
"930","noload",17,"exp",1,10,8,"B",1819,618
"931","noload",17,"exp",2,1,8,"B",1270,424
"932","noload",17,"exp",2,2,3,"A",5321,553
"933","noload",17,"exp",2,3,9,"B",645,168
"934","noload",17,"exp",2,4,5,"B",2246,250
"935","noload",17,"exp",2,5,6,"B",646,217
"936","noload",17,"exp",2,6,2,"A",986,514
"937","noload",17,"exp",2,7,1,"A",449,253
"938","noload",17,"exp",2,8,4,"A",567,201
"939","noload",17,"exp",2,9,7,"B",550,183
"940","noload",17,"exp",2,10,10,"A",3311,410
"941","noload",17,"exp",3,1,2,"A",671,311
"942","noload",17,"exp",3,2,6,"B",999,307
"943","noload",17,"exp",3,3,1,"A",555,252
"944","noload",17,"exp",3,4,3,"A",1400,450
"945","noload",17,"exp",3,5,8,"B",2326,219
"946","noload",17,"exp",3,6,4,"A",1498,297
"947","noload",17,"exp",3,7,9,"B",604,312
"948","noload",17,"exp",3,8,10,"B",3753,683
"949","noload",17,"exp",3,9,5,"A",2088,478
"950","noload",17,"exp",3,10,7,"B",934,451
"951","noload",17,"exp",4,1,6,"B",941,108
"952","noload",17,"exp",4,2,9,"B",726,122
"953","noload",17,"exp",4,3,4,"A",487,267
"954","noload",17,"exp",4,4,5,"A",1302,332
"955","noload",17,"exp",4,5,3,"A",938,171
"956","noload",17,"exp",4,6,2,"A",702,252
"957","noload",17,"exp",4,7,10,"B",894,214
"958","noload",17,"exp",4,8,8,"B",939,201
"959","noload",17,"exp",4,9,7,"B",807,186
"960","noload",17,"exp",4,10,1,"A",578,169
"961","noload",17,"exp",5,1,5,"A",1829,326
"962","noload",17,"exp",5,2,7,"B",1032,697
"963","noload",17,"exp",5,3,2,"A",844,343
"964","noload",17,"exp",5,4,4,"A",524,216
"965","noload",17,"exp",5,5,6,"B",701,139
"966","noload",17,"exp",5,6,8,"B",1396,510
"967","noload",17,"exp",5,7,3,"A",858,344
"968","noload",17,"exp",5,8,10,"B",1596,637
"969","noload",17,"exp",5,9,1,"A",548,549
"970","noload",17,"exp",5,10,9,"B",687,379
"971","noload",17,"exp",6,1,10,"A",2532,259
"972","noload",17,"exp",6,2,8,"B",778,120
"973","noload",17,"exp",6,3,6,"B",446,88
"974","noload",17,"exp",6,4,9,"B",396,77
"975","noload",17,"exp",6,5,4,"A",393,122
"976","noload",17,"exp",6,6,7,"B",412,80
"977","noload",17,"exp",6,7,3,"A",1133,99
"978","noload",17,"exp",6,8,2,"A",1436,173
"979","noload",17,"exp",6,9,5,"A",1043,312
"980","noload",17,"exp",6,10,1,"A",455,310
"981","noload",17,"exp",7,1,6,"B",1174,68
"982","noload",17,"exp",7,2,7,"B",558,110
"983","noload",17,"exp",7,3,3,"A",4522,2025
"984","noload",17,"exp",7,4,5,"A",1817,742
"985","noload",17,"exp",7,5,1,"A",794,91
"986","noload",17,"exp",7,6,4,"A",1236,204
"987","noload",17,"exp",7,7,10,"B",1314,299
"988","noload",17,"exp",7,8,8,"B",1449,94
"989","noload",17,"exp",7,9,2,"A",934,357
"990","noload",17,"exp",7,10,9,"B",1428,85
"991","noload",17,"exp",8,1,2,"A",672,601
"992","noload",17,"exp",8,2,8,"B",1142,332
"993","noload",17,"exp",8,3,6,"B",1183,638
"994","noload",17,"exp",8,4,10,"A",2613,435
"995","noload",17,"exp",8,5,3,"A",2569,431
"996","noload",17,"exp",8,6,1,"A",453,578
"997","noload",17,"exp",8,7,7,"B",979,106
"998","noload",17,"exp",8,8,5,"A",2264,398
"999","noload",17,"exp",8,9,4,"A",548,165
"1000","noload",17,"exp",8,10,9,"B",3383,448
"1001","noload",17,"exp",9,1,1,"A",1659,424
"1002","noload",17,"exp",9,2,10,"A",6013,374
"1003","noload",17,"exp",9,3,4,"A",983,141
"1004","noload",17,"exp",9,4,5,"A",3259,362
"1005","noload",17,"exp",9,5,9,"A",1653,309
"1006","noload",17,"exp",9,6,7,"B",1253,259
"1007","noload",17,"exp",9,7,3,"A",1362,357
"1008","noload",17,"exp",9,8,8,"B",646,73
"1009","noload",17,"exp",9,9,6,"B",444,71
"1010","noload",17,"exp",9,10,2,"A",550,375
"1011","noload",17,"exp",10,1,6,"B",1347,292
"1012","noload",17,"exp",10,2,5,"A",1821,301
"1013","noload",17,"exp",10,3,7,"B",2157,895
"1014","noload",17,"exp",10,4,3,"A",1070,390
"1015","noload",17,"exp",10,5,4,"A",3083,1384
"1016","noload",17,"exp",10,6,2,"A",849,174
"1017","noload",17,"exp",10,7,8,"B",651,127
"1018","noload",17,"exp",10,8,10,"A",2639,83
"1019","noload",17,"exp",10,9,1,"A",800,211
"1020","noload",17,"exp",10,10,9,"B",2315,156
"1021","noload",17,"exp",11,1,4,"A",1221,363
"1022","noload",17,"exp",11,2,8,"B",567,75
"1023","noload",17,"exp",11,3,5,"A",4854,1446
"1024","noload",17,"exp",11,4,2,"A",709,214
"1025","noload",17,"exp",11,5,6,"B",809,92
"1026","noload",17,"exp",11,6,9,"B",1349,70
"1027","noload",17,"exp",11,7,1,"A",472,122
"1028","noload",17,"exp",11,8,10,"B",1469,230
"1029","noload",17,"exp",11,9,7,"B",1309,102
"1030","noload",17,"exp",11,10,3,"A",461,250
"1031","noload",17,"exp",12,1,2,"A",495,117
"1032","noload",17,"exp",12,2,1,"A",432,105
"1033","noload",17,"exp",12,3,8,"B",835,77
"1034","noload",17,"exp",12,4,3,"A",924,569
"1035","noload",17,"exp",12,5,9,"B",1530,444
"1036","noload",17,"exp",12,6,4,"A",854,340
"1037","noload",17,"exp",12,7,5,"A",1664,302
"1038","noload",17,"exp",12,8,6,"B",1043,199
"1039","noload",17,"exp",12,9,10,"A",1546,452
"1040","noload",17,"exp",12,10,7,"B",969,3164
"1041","noload",18,"prac",0,1,0,"A",413,1666
"1042","noload",18,"prac",0,2,0,"A",827,595
"1043","noload",18,"prac",0,3,0,"B",146,898
"1044","noload",18,"prac",0,4,0,"A",1029,918
"1045","noload",18,"prac",0,5,0,"B",1018,953
"1046","noload",18,"prac",0,6,0,"A",938,520
"1047","noload",18,"prac",0,7,0,"B",726,409
"1048","noload",18,"prac",0,8,0,"A",414,1989
"1049","noload",18,"prac",0,9,0,"A",838,559
"1050","noload",18,"prac",0,10,0,"B",342,378
"1051","noload",18,"exp",1,1,4,"A",812,657
"1052","noload",18,"exp",1,2,2,"A",746,512
"1053","noload",18,"exp",1,3,1,"A",659,438
"1054","noload",18,"exp",1,4,7,"B",617,406
"1055","noload",18,"exp",1,5,8,"B",669,373
"1056","noload",18,"exp",1,6,9,"B",596,364
"1057","noload",18,"exp",1,7,5,"B",349,325
"1058","noload",18,"exp",1,8,10,"B",971,414
"1059","noload",18,"exp",1,9,6,"B",716,444
"1060","noload",18,"exp",1,10,3,"A",3051,420
"1061","noload",18,"exp",2,1,1,"A",3259,445
"1062","noload",18,"exp",2,2,2,"A",2697,1031
"1063","noload",18,"exp",2,3,6,"B",1030,438
"1064","noload",18,"exp",2,4,8,"A",6538,572
"1065","noload",18,"exp",2,5,4,"A",4999,438
"1066","noload",18,"exp",2,6,7,"B",1676,428
"1067","noload",18,"exp",2,7,3,"A",2567,573
"1068","noload",18,"exp",2,8,10,"B",2881,325
"1069","noload",18,"exp",2,9,9,"B",1805,746
"1070","noload",18,"exp",2,10,5,"A",1264,477
"1071","noload",18,"exp",3,1,6,"B",7108,1049
"1072","noload",18,"exp",3,2,4,"B",4143,430
"1073","noload",18,"exp",3,3,5,"A",1991,504
"1074","noload",18,"exp",3,4,9,"B",1694,484
"1075","noload",18,"exp",3,5,7,"B",1009,459
"1076","noload",18,"exp",3,6,3,"A",1318,462
"1077","noload",18,"exp",3,7,10,"B",841,340
"1078","noload",18,"exp",3,8,8,"B",3292,308
"1079","noload",18,"exp",3,9,1,"A",1063,399
"1080","noload",18,"exp",3,10,2,"A",1735,293
"1081","noload",18,"exp",4,1,6,"B",1973,293
"1082","noload",18,"exp",4,2,8,"B",1189,374
"1083","noload",18,"exp",4,3,3,"A",1187,325
"1084","noload",18,"exp",4,4,1,"A",690,237
"1085","noload",18,"exp",4,5,9,"B",2265,387
"1086","noload",18,"exp",4,6,7,"B",1289,315
"1087","noload",18,"exp",4,7,10,"B",871,312
"1088","noload",18,"exp",4,8,4,"A",1555,315
"1089","noload",18,"exp",4,9,5,"A",1847,445
"1090","noload",18,"exp",4,10,2,"A",1071,295
"1091","noload",18,"exp",5,1,5,"A",3893,390
"1092","noload",18,"exp",5,2,3,"A",1339,409
"1093","noload",18,"exp",5,3,7,"B",10066,361
"1094","noload",18,"exp",5,4,2,"A",3295,712
"1095","noload",18,"exp",5,5,6,"B",1723,407
"1096","noload",18,"exp",5,6,4,"A",3729,509
"1097","noload",18,"exp",5,7,10,"B",2361,372
"1098","noload",18,"exp",5,8,9,"B",4194,269
"1099","noload",18,"exp",5,9,1,"A",1000,259
"1100","noload",18,"exp",5,10,8,"B",2360,260
"1101","noload",18,"exp",6,1,8,"B",3184,370
"1102","noload",18,"exp",6,2,3,"A",4139,379
"1103","noload",18,"exp",6,3,6,"B",1769,332
"1104","noload",18,"exp",6,4,1,"A",1539,362
"1105","noload",18,"exp",6,5,10,"B",2103,254
"1106","noload",18,"exp",6,6,9,"B",4459,381
"1107","noload",18,"exp",6,7,4,"A",2379,362
"1108","noload",18,"exp",6,8,5,"A",2109,438
"1109","noload",18,"exp",6,9,7,"B",3936,312
"1110","noload",18,"exp",6,10,2,"A",3565,363
"1111","noload",18,"exp",7,1,4,"A",2203,344
"1112","noload",18,"exp",7,2,3,"A",1949,326
"1113","noload",18,"exp",7,3,1,"A",1002,549
"1114","noload",18,"exp",7,4,8,"B",2371,322
"1115","noload",18,"exp",7,5,6,"B",1661,396
"1116","noload",18,"exp",7,6,9,"B",3653,292
"1117","noload",18,"exp",7,7,2,"A",1641,308
"1118","noload",18,"exp",7,8,5,"A",1791,265
"1119","noload",18,"exp",7,9,7,"B",2252,259
"1120","noload",18,"exp",7,10,10,"B",2333,277
"1121","noload",18,"exp",8,1,1,"A",1670,343
"1122","noload",18,"exp",8,2,8,"A",5375,231
"1123","noload",18,"exp",8,3,3,"A",2008,204
"1124","noload",18,"exp",8,4,2,"A",2776,408
"1125","noload",18,"exp",8,5,9,"B",2550,232
"1126","noload",18,"exp",8,6,10,"B",1615,293
"1127","noload",18,"exp",8,7,7,"B",3463,448
"1128","noload",18,"exp",8,8,5,"A",1413,226
"1129","noload",18,"exp",8,9,6,"B",1146,274
"1130","noload",18,"exp",8,10,4,"A",1790,311
"1131","noload",18,"exp",9,1,5,"A",1787,293
"1132","noload",18,"exp",9,2,4,"A",1866,276
"1133","noload",18,"exp",9,3,6,"A",2839,4996
"1134","noload",18,"exp",9,4,8,"B",1922,310
"1135","noload",18,"exp",9,5,7,"B",2349,214
"1136","noload",18,"exp",9,6,2,"A",5975,297
"1137","noload",18,"exp",9,7,1,"A",1374,389
"1138","noload",18,"exp",9,8,9,"B",2606,362
"1139","noload",18,"exp",9,9,3,"A",2056,327
"1140","noload",18,"exp",9,10,10,"B",1576,310
"1141","noload",18,"exp",10,1,1,"A",1231,343
"1142","noload",18,"exp",10,2,8,"B",1396,302
"1143","noload",18,"exp",10,3,6,"B",906,225
"1144","noload",18,"exp",10,4,2,"A",5542,318
"1145","noload",18,"exp",10,5,7,"B",997,270
"1146","noload",18,"exp",10,6,5,"A",2475,365
"1147","noload",18,"exp",10,7,10,"B",2597,367
"1148","noload",18,"exp",10,8,9,"B",5183,293
"1149","noload",18,"exp",10,9,4,"A",1753,268
"1150","noload",18,"exp",10,10,3,"A",3021,266
"1151","noload",18,"exp",11,1,3,"A",1307,323
"1152","noload",18,"exp",11,2,5,"A",3244,282
"1153","noload",18,"exp",11,3,2,"A",2805,458
"1154","noload",18,"exp",11,4,4,"A",1607,364
"1155","noload",18,"exp",11,5,6,"B",2367,284
"1156","noload",18,"exp",11,6,1,"A",1286,347
"1157","noload",18,"exp",11,7,9,"B",3299,346
"1158","noload",18,"exp",11,8,8,"A",12359,331
"1159","noload",18,"exp",11,9,10,"B",1325,263
"1160","noload",18,"exp",11,10,7,"B",1916,365
"1161","noload",18,"exp",12,1,6,"B",726,280
"1162","noload",18,"exp",12,2,1,"A",988,325
"1163","noload",18,"exp",12,3,5,"A",1409,285
"1164","noload",18,"exp",12,4,10,"B",1343,317
"1165","noload",18,"exp",12,5,8,"B",2984,306
"1166","noload",18,"exp",12,6,9,"B",1476,284
"1167","noload",18,"exp",12,7,7,"B",2263,269
"1168","noload",18,"exp",12,8,3,"A",1100,298
"1169","noload",18,"exp",12,9,4,"A",3533,358
"1170","noload",18,"exp",12,10,2,"A",2256,391
"1171","noload",19,"prac",0,1,0,"A",1119,1331
"1172","noload",19,"prac",0,2,0,"B",384,270
"1173","noload",19,"prac",0,3,0,"A",156,381
"1174","noload",19,"prac",0,4,0,"B",580,218
"1175","noload",19,"prac",0,5,0,"B",121,404
"1176","noload",19,"prac",0,6,0,"B",472,216
"1177","noload",19,"prac",0,7,0,"A",86,280
"1178","noload",19,"prac",0,8,0,"A",174,242
"1179","noload",19,"prac",0,9,0,"B",149,263
"1180","noload",19,"prac",0,10,0,"A",126,250
"1181","noload",19,"exp",1,1,7,"B",621,1290
"1182","noload",19,"exp",1,2,2,"A",99,760
"1183","noload",19,"exp",1,3,4,"A",491,303
"1184","noload",19,"exp",1,4,5,"A",301,346
"1185","noload",19,"exp",1,5,9,"B",562,516
"1186","noload",19,"exp",1,6,1,"A",282,325
"1187","noload",19,"exp",1,7,6,"B",339,344
"1188","noload",19,"exp",1,8,8,"A",296,325
"1189","noload",19,"exp",1,9,10,"B",288,283
"1190","noload",19,"exp",1,10,3,"B",555,236
"1191","noload",19,"exp",2,1,8,"B",1277,797
"1192","noload",19,"exp",2,2,6,"B",891,381
"1193","noload",19,"exp",2,3,1,"A",469,658
"1194","noload",19,"exp",2,4,7,"B",620,394
"1195","noload",19,"exp",2,5,10,"B",565,376
"1196","noload",19,"exp",2,6,9,"B",501,316
"1197","noload",19,"exp",2,7,5,"A",939,346
"1198","noload",19,"exp",2,8,4,"A",807,314
"1199","noload",19,"exp",2,9,3,"A",1913,298
"1200","noload",19,"exp",2,10,2,"A",1638,302
"1201","noload",19,"exp",3,1,5,"A",1467,470
"1202","noload",19,"exp",3,2,4,"A",1476,317
"1203","noload",19,"exp",3,3,2,"A",684,342
"1204","noload",19,"exp",3,4,7,"B",1883,294
"1205","noload",19,"exp",3,5,9,"B",590,278
"1206","noload",19,"exp",3,6,1,"A",623,318
"1207","noload",19,"exp",3,7,3,"A",1275,301
"1208","noload",19,"exp",3,8,10,"B",1878,290
"1209","noload",19,"exp",3,9,8,"B",1196,237
"1210","noload",19,"exp",3,10,6,"B",601,262
"1211","noload",19,"exp",4,1,7,"B",909,356
"1212","noload",19,"exp",4,2,4,"A",1523,359
"1213","noload",19,"exp",4,3,2,"A",661,268
"1214","noload",19,"exp",4,4,3,"A",1319,307
"1215","noload",19,"exp",4,5,6,"B",533,244
"1216","noload",19,"exp",4,6,10,"B",1162,263
"1217","noload",19,"exp",4,7,8,"B",1023,253
"1218","noload",19,"exp",4,8,9,"B",799,290
"1219","noload",19,"exp",4,9,1,"A",459,295
"1220","noload",19,"exp",4,10,5,"A",1339,409
"1221","noload",19,"exp",5,1,7,"B",678,398
"1222","noload",19,"exp",5,2,4,"A",1236,349
"1223","noload",19,"exp",5,3,2,"A",809,381
"1224","noload",19,"exp",5,4,8,"B",582,301
"1225","noload",19,"exp",5,5,6,"B",553,362
"1226","noload",19,"exp",5,6,10,"B",682,341
"1227","noload",19,"exp",5,7,1,"A",428,308
"1228","noload",19,"exp",5,8,3,"A",1088,345
"1229","noload",19,"exp",5,9,9,"B",567,329
"1230","noload",19,"exp",5,10,5,"A",1191,280
"1231","noload",19,"exp",6,1,8,"B",981,363
"1232","noload",19,"exp",6,2,1,"A",421,249
"1233","noload",19,"exp",6,3,4,"A",1322,214
"1234","noload",19,"exp",6,4,9,"B",783,156
"1235","noload",19,"exp",6,5,6,"B",680,212
"1236","noload",19,"exp",6,6,7,"B",685,233
"1237","noload",19,"exp",6,7,5,"A",1247,283
"1238","noload",19,"exp",6,8,2,"A",1026,260
"1239","noload",19,"exp",6,9,3,"A",1060,315
"1240","noload",19,"exp",6,10,10,"B",1132,259
"1241","noload",19,"exp",7,1,6,"B",927,361
"1242","noload",19,"exp",7,2,10,"B",854,308
"1243","noload",19,"exp",7,3,7,"B",790,278
"1244","noload",19,"exp",7,4,8,"B",1280,276
"1245","noload",19,"exp",7,5,3,"A",921,356
"1246","noload",19,"exp",7,6,2,"A",1193,314
"1247","noload",19,"exp",7,7,5,"A",964,295
"1248","noload",19,"exp",7,8,1,"A",963,310
"1249","noload",19,"exp",7,9,9,"B",983,301
"1250","noload",19,"exp",7,10,4,"A",1741,300
"1251","noload",19,"exp",8,1,4,"A",2375,422
"1252","noload",19,"exp",8,2,8,"B",1300,284
"1253","noload",19,"exp",8,3,7,"B",1306,257
"1254","noload",19,"exp",8,4,3,"A",794,235
"1255","noload",19,"exp",8,5,9,"B",742,252
"1256","noload",19,"exp",8,6,2,"A",1246,955
"1257","noload",19,"exp",8,7,10,"B",1236,301
"1258","noload",19,"exp",8,8,6,"B",793,301
"1259","noload",19,"exp",8,9,5,"A",1037,302
"1260","noload",19,"exp",8,10,1,"A",682,325
"1261","noload",19,"exp",9,1,4,"A",1284,327
"1262","noload",19,"exp",9,2,8,"B",1238,318
"1263","noload",19,"exp",9,3,10,"B",654,246
"1264","noload",19,"exp",9,4,3,"A",1160,212
"1265","noload",19,"exp",9,5,9,"B",599,271
"1266","noload",19,"exp",9,6,5,"A",729,268
"1267","noload",19,"exp",9,7,6,"B",422,221
"1268","noload",19,"exp",9,8,7,"B",775,246
"1269","noload",19,"exp",9,9,2,"A",1073,281
"1270","noload",19,"exp",9,10,1,"A",522,245
"1271","noload",19,"exp",10,1,1,"A",452,292
"1272","noload",19,"exp",10,2,5,"B",992,728
"1273","noload",19,"exp",10,3,6,"B",413,253
"1274","noload",19,"exp",10,4,3,"A",788,261
"1275","noload",19,"exp",10,5,9,"B",699,249
"1276","noload",19,"exp",10,6,7,"B",623,268
"1277","noload",19,"exp",10,7,2,"A",792,297
"1278","noload",19,"exp",10,8,4,"A",950,327
"1279","noload",19,"exp",10,9,8,"A",998,592
"1280","noload",19,"exp",10,10,10,"B",2190,326
"1281","noload",19,"exp",11,1,4,"A",2195,459
"1282","noload",19,"exp",11,2,5,"A",1079,276
"1283","noload",19,"exp",11,3,1,"A",664,203
"1284","noload",19,"exp",11,4,3,"A",917,222
"1285","noload",19,"exp",11,5,6,"B",508,213
"1286","noload",19,"exp",11,6,10,"B",628,213
"1287","noload",19,"exp",11,7,2,"A",683,231
"1288","noload",19,"exp",11,8,8,"B",686,233
"1289","noload",19,"exp",11,9,7,"B",550,244
"1290","noload",19,"exp",11,10,9,"B",408,395
"1291","noload",19,"exp",12,1,4,"A",895,245
"1292","noload",19,"exp",12,2,9,"B",461,380
"1293","noload",19,"exp",12,3,3,"A",911,327
"1294","noload",19,"exp",12,4,2,"A",1058,250
"1295","noload",19,"exp",12,5,5,"A",989,245
"1296","noload",19,"exp",12,6,8,"B",1673,251
"1297","noload",19,"exp",12,7,1,"A",970,268
"1298","noload",19,"exp",12,8,7,"B",724,262
"1299","noload",19,"exp",12,9,10,"B",1990,263
"1300","noload",19,"exp",12,10,6,"B",927,299
"1301","noload",2,"prac",0,1,0,"A",154,2282
"1302","noload",2,"prac",0,2,0,"A",868,707
"1303","noload",2,"prac",0,3,0,"B",699,457
"1304","noload",2,"prac",0,4,0,"B",174,309
"1305","noload",2,"prac",0,5,0,"A",471,329
"1306","noload",2,"prac",0,6,0,"B",571,303
"1307","noload",2,"prac",0,7,0,"B",559,271
"1308","noload",2,"prac",0,8,0,"B",570,285
"1309","noload",2,"prac",0,9,0,"A",505,350
"1310","noload",2,"prac",0,10,0,"A",157,733
"1311","noload",2,"exp",1,1,7,"B",583,542
"1312","noload",2,"exp",1,2,2,"A",725,519
"1313","noload",2,"exp",1,3,5,"A",3984,579
"1314","noload",2,"exp",1,4,3,"B",783,524
"1315","noload",2,"exp",1,5,10,"B",931,414
"1316","noload",2,"exp",1,6,4,"A",810,509
"1317","noload",2,"exp",1,7,9,"B",630,422
"1318","noload",2,"exp",1,8,1,"A",588,437
"1319","noload",2,"exp",1,9,8,"A",885,360
"1320","noload",2,"exp",1,10,6,"B",328,395
"1321","noload",2,"exp",2,1,10,"B",984,463
"1322","noload",2,"exp",2,2,2,"A",951,568
"1323","noload",2,"exp",2,3,6,"B",547,516
"1324","noload",2,"exp",2,4,8,"A",586,675
"1325","noload",2,"exp",2,5,4,"A",1847,604
"1326","noload",2,"exp",2,6,3,"B",575,630
"1327","noload",2,"exp",2,7,5,"A",764,599
"1328","noload",2,"exp",2,8,1,"A",800,499
"1329","noload",2,"exp",2,9,9,"B",374,530
"1330","noload",2,"exp",2,10,7,"B",606,474
"1331","noload",2,"exp",3,1,3,"B",750,710
"1332","noload",2,"exp",3,2,8,"A",490,462
"1333","noload",2,"exp",3,3,9,"B",328,443
"1334","noload",2,"exp",3,4,6,"B",346,401
"1335","noload",2,"exp",3,5,2,"A",359,402
"1336","noload",2,"exp",3,6,5,"B",457,327
"1337","noload",2,"exp",3,7,1,"A",336,389
"1338","noload",2,"exp",3,8,7,"B",184,669
"1339","noload",2,"exp",3,9,4,"A",766,362
"1340","noload",2,"exp",3,10,10,"B",129,474
"1341","noload",2,"exp",4,1,3,"A",3013,1044
"1342","noload",2,"exp",4,2,5,"B",137,535
"1343","noload",2,"exp",4,3,1,"A",393,298
"1344","noload",2,"exp",4,4,7,"B",422,316
"1345","noload",2,"exp",4,5,4,"A",414,355
"1346","noload",2,"exp",4,6,10,"A",308,293
"1347","noload",2,"exp",4,7,2,"A",613,308
"1348","noload",2,"exp",4,8,8,"B",76,747
"1349","noload",2,"exp",4,9,6,"B",681,341
"1350","noload",2,"exp",4,10,9,"B",814,372
"1351","noload",2,"exp",5,1,10,"A",845,521
"1352","noload",2,"exp",5,2,1,"A",314,251
"1353","noload",2,"exp",5,3,3,"A",307,275
"1354","noload",2,"exp",5,4,6,"B",693,302
"1355","noload",2,"exp",5,5,9,"B",390,261
"1356","noload",2,"exp",5,6,2,"A",398,302
"1357","noload",2,"exp",5,7,7,"B",628,244
"1358","noload",2,"exp",5,8,8,"A",869,773
"1359","noload",2,"exp",5,9,4,"A",447,264
"1360","noload",2,"exp",5,10,5,"B",1413,371
"1361","noload",2,"exp",6,1,1,"A",362,421
"1362","noload",2,"exp",6,2,4,"A",470,342
"1363","noload",2,"exp",6,3,10,"A",1400,451
"1364","noload",2,"exp",6,4,6,"B",582,364
"1365","noload",2,"exp",6,5,9,"B",342,315
"1366","noload",2,"exp",6,6,8,"B",351,326
"1367","noload",2,"exp",6,7,5,"B",404,344
"1368","noload",2,"exp",6,8,3,"A",358,384
"1369","noload",2,"exp",6,9,7,"B",375,390
"1370","noload",2,"exp",6,10,2,"A",558,366
"1371","noload",2,"exp",7,1,8,"B",293,306
"1372","noload",2,"exp",7,2,9,"A",281,291
"1373","noload",2,"exp",7,3,10,"B",227,244
"1374","noload",2,"exp",7,4,4,"B",272,230
"1375","noload",2,"exp",7,5,7,"B",296,246
"1376","noload",2,"exp",7,6,1,"A",296,246
"1377","noload",2,"exp",7,7,3,"A",359,258
"1378","noload",2,"exp",7,8,5,"A",340,282
"1379","noload",2,"exp",7,9,6,"B",262,235
"1380","noload",2,"exp",7,10,2,"A",280,339
"1381","noload",2,"exp",8,1,3,"B",1291,736
"1382","noload",2,"exp",8,2,10,"B",443,263
"1383","noload",2,"exp",8,3,2,"A",284,278
"1384","noload",2,"exp",8,4,7,"B",397,222
"1385","noload",2,"exp",8,5,4,"A",467,260
"1386","noload",2,"exp",8,6,8,"A",630,376
"1387","noload",2,"exp",8,7,5,"A",253,223
"1388","noload",2,"exp",8,8,6,"B",340,233
"1389","noload",2,"exp",8,9,1,"A",315,268
"1390","noload",2,"exp",8,10,9,"B",308,213
"1391","noload",2,"exp",9,1,10,"B",722,342
"1392","noload",2,"exp",9,2,3,"B",556,220
"1393","noload",2,"exp",9,3,8,"A",731,334
"1394","noload",2,"exp",9,4,4,"A",456,263
"1395","noload",2,"exp",9,5,6,"B",409,269
"1396","noload",2,"exp",9,6,1,"A",326,568
"1397","noload",2,"exp",9,7,2,"A",588,277
"1398","noload",2,"exp",9,8,5,"A",1210,288
"1399","noload",2,"exp",9,9,9,"B",868,277
"1400","noload",2,"exp",9,10,7,"B",427,289
"1401","noload",2,"exp",10,1,10,"B",287,553
"1402","noload",2,"exp",10,2,2,"B",312,249
"1403","noload",2,"exp",10,3,7,"A",253,302
"1404","noload",2,"exp",10,4,5,"A",359,227
"1405","noload",2,"exp",10,5,8,"B",478,222
"1406","noload",2,"exp",10,6,1,"A",1962,245
"1407","noload",2,"exp",10,7,3,"A",329,268
"1408","noload",2,"exp",10,8,4,"A",326,249
"1409","noload",2,"exp",10,9,6,"B",250,222
"1410","noload",2,"exp",10,10,9,"B",301,507
"1411","noload",2,"exp",11,1,4,"A",364,488
"1412","noload",2,"exp",11,2,6,"B",355,284
"1413","noload",2,"exp",11,3,2,"A",381,346
"1414","noload",2,"exp",11,4,3,"B",1661,651
"1415","noload",2,"exp",11,5,5,"A",763,790
"1416","noload",2,"exp",11,6,10,"B",828,356
"1417","noload",2,"exp",11,7,7,"B",413,276
"1418","noload",2,"exp",11,8,1,"A",295,325
"1419","noload",2,"exp",11,9,9,"B",838,863
"1420","noload",2,"exp",11,10,8,"A",447,394
"1421","noload",2,"exp",12,1,1,"A",471,504
"1422","noload",2,"exp",12,2,8,"A",573,387
"1423","noload",2,"exp",12,3,10,"B",282,260
"1424","noload",2,"exp",12,4,9,"B",314,267
"1425","noload",2,"exp",12,5,2,"A",396,363
"1426","noload",2,"exp",12,6,6,"B",283,309
"1427","noload",2,"exp",12,7,3,"B",356,443
"1428","noload",2,"exp",12,8,4,"A",230,263
"1429","noload",2,"exp",12,9,7,"B",253,211
"1430","noload",2,"exp",12,10,5,"A",379,265
"1431","noload",20,"prac",0,1,0,"B",564,1175
"1432","noload",20,"prac",0,2,0,"B",428,515
"1433","noload",20,"prac",0,3,0,"A",530,1821
"1434","noload",20,"prac",0,4,0,"B",1226,819
"1435","noload",20,"prac",0,5,0,"B",1386,628
"1436","noload",20,"prac",0,6,0,"A",1124,392
"1437","noload",20,"prac",0,7,0,"A",745,526
"1438","noload",20,"prac",0,8,0,"B",760,388
"1439","noload",20,"prac",0,9,0,"A",696,340
"1440","noload",20,"prac",0,10,0,"A",780,393
"1441","noload",20,"exp",1,1,7,"B",1864,1439
"1442","noload",20,"exp",1,2,10,"B",977,1991
"1443","noload",20,"exp",1,3,5,"A",1177,1176
"1444","noload",20,"exp",1,4,9,"B",1082,645
"1445","noload",20,"exp",1,5,3,"B",1250,558
"1446","noload",20,"exp",1,6,8,"A",1320,690
"1447","noload",20,"exp",1,7,6,"B",695,630
"1448","noload",20,"exp",1,8,2,"A",684,488
"1449","noload",20,"exp",1,9,1,"A",1065,402
"1450","noload",20,"exp",1,10,4,"A",954,490
"1451","noload",20,"exp",2,1,6,"B",681,3107
"1452","noload",20,"exp",2,2,9,"B",572,1424
"1453","noload",20,"exp",2,3,1,"A",571,1405
"1454","noload",20,"exp",2,4,4,"A",487,393
"1455","noload",20,"exp",2,5,5,"B",454,500
"1456","noload",20,"exp",2,6,10,"B",2213,595
"1457","noload",20,"exp",2,7,2,"A",1141,508
"1458","noload",20,"exp",2,8,3,"A",1581,282
"1459","noload",20,"exp",2,9,7,"B",415,340
"1460","noload",20,"exp",2,10,8,"B",2075,253
"1461","noload",20,"exp",3,1,9,"B",567,555
"1462","noload",20,"exp",3,2,7,"B",473,378
"1463","noload",20,"exp",3,3,4,"A",351,311
"1464","noload",20,"exp",3,4,3,"B",779,281
"1465","noload",20,"exp",3,5,6,"B",335,324
"1466","noload",20,"exp",3,6,5,"A",538,263
"1467","noload",20,"exp",3,7,8,"A",1096,327
"1468","noload",20,"exp",3,8,1,"A",345,381
"1469","noload",20,"exp",3,9,2,"A",678,416
"1470","noload",20,"exp",3,10,10,"B",558,319
"1471","noload",20,"exp",4,1,9,"B",117,1149
"1472","noload",20,"exp",4,2,7,"B",332,302
"1473","noload",20,"exp",4,3,1,"A",223,317
"1474","noload",20,"exp",4,4,10,"B",377,343
"1475","noload",20,"exp",4,5,6,"B",1655,341
"1476","noload",20,"exp",4,6,5,"A",1851,226
"1477","noload",20,"exp",4,7,4,"A",475,284
"1478","noload",20,"exp",4,8,3,"B",2437,275
"1479","noload",20,"exp",4,9,8,"B",391,328
"1480","noload",20,"exp",4,10,2,"A",1182,251
"1481","noload",20,"exp",5,1,6,"B",350,439
"1482","noload",20,"exp",5,2,4,"A",287,234
"1483","noload",20,"exp",5,3,8,"B",328,316
"1484","noload",20,"exp",5,4,3,"B",523,470
"1485","noload",20,"exp",5,5,7,"B",287,280
"1486","noload",20,"exp",5,6,9,"B",372,271
"1487","noload",20,"exp",5,7,1,"A",285,264
"1488","noload",20,"exp",5,8,10,"A",911,262
"1489","noload",20,"exp",5,9,5,"A",530,413
"1490","noload",20,"exp",5,10,2,"A",239,335
"1491","noload",20,"exp",6,1,8,"B",825,287
"1492","noload",20,"exp",6,2,7,"B",314,331
"1493","noload",20,"exp",6,3,2,"A",71,487
"1494","noload",20,"exp",6,4,5,"A",709,309
"1495","noload",20,"exp",6,5,10,"B",249,317
"1496","noload",20,"exp",6,6,3,"B",507,626
"1497","noload",20,"exp",6,7,9,"B",719,382
"1498","noload",20,"exp",6,8,6,"B",487,315
"1499","noload",20,"exp",6,9,4,"A",551,422
"1500","noload",20,"exp",6,10,1,"A",370,238
"1501","noload",20,"exp",7,1,7,"B",229,837
"1502","noload",20,"exp",7,2,6,"B",132,350
"1503","noload",20,"exp",7,3,1,"A",278,254
"1504","noload",20,"exp",7,4,10,"A",491,334
"1505","noload",20,"exp",7,5,2,"A",701,235
"1506","noload",20,"exp",7,6,9,"B",476,251
"1507","noload",20,"exp",7,7,5,"B",452,288
"1508","noload",20,"exp",7,8,3,"B",1271,297
"1509","noload",20,"exp",7,9,4,"A",325,375
"1510","noload",20,"exp",7,10,8,"B",579,409
"1511","noload",20,"exp",8,1,5,"A",526,537
"1512","noload",20,"exp",8,2,2,"A",256,246
"1513","noload",20,"exp",8,3,8,"B",304,334
"1514","noload",20,"exp",8,4,9,"B",2293,803
"1515","noload",20,"exp",8,5,4,"B",2032,313
"1516","noload",20,"exp",8,6,6,"B",198,335
"1517","noload",20,"exp",8,7,1,"A",939,296
"1518","noload",20,"exp",8,8,3,"A",937,247
"1519","noload",20,"exp",8,9,10,"B",616,309
"1520","noload",20,"exp",8,10,7,"B",367,345
"1521","noload",20,"exp",9,1,5,"A",1974,324
"1522","noload",20,"exp",9,2,9,"B",967,331
"1523","noload",20,"exp",9,3,6,"B",329,285
"1524","noload",20,"exp",9,4,1,"A",150,213
"1525","noload",20,"exp",9,5,8,"B",436,252
"1526","noload",20,"exp",9,6,7,"B",1573,306
"1527","noload",20,"exp",9,7,2,"A",262,267
"1528","noload",20,"exp",9,8,4,"A",2121,294
"1529","noload",20,"exp",9,9,10,"B",473,313
"1530","noload",20,"exp",9,10,3,"A",2120,484
"1531","noload",20,"exp",10,1,4,"A",1145,655
"1532","noload",20,"exp",10,2,1,"A",333,272
"1533","noload",20,"exp",10,3,5,"A",1628,372
"1534","noload",20,"exp",10,4,2,"A",366,249
"1535","noload",20,"exp",10,5,10,"B",343,205
"1536","noload",20,"exp",10,6,6,"B",237,316
"1537","noload",20,"exp",10,7,7,"B",249,267
"1538","noload",20,"exp",10,8,8,"B",892,225
"1539","noload",20,"exp",10,9,3,"A",718,462
"1540","noload",20,"exp",10,10,9,"B",329,220
"1541","noload",20,"exp",11,1,2,"A",421,394
"1542","noload",20,"exp",11,2,1,"A",254,355
"1543","noload",20,"exp",11,3,3,"A",567,313
"1544","noload",20,"exp",11,4,7,"B",582,314
"1545","noload",20,"exp",11,5,8,"B",774,244
"1546","noload",20,"exp",11,6,9,"A",725,1096
"1547","noload",20,"exp",11,7,4,"B",1174,261
"1548","noload",20,"exp",11,8,6,"B",462,235
"1549","noload",20,"exp",11,9,10,"A",388,291
"1550","noload",20,"exp",11,10,5,"A",2412,243
"1551","noload",20,"exp",12,1,8,"B",372,365
"1552","noload",20,"exp",12,2,5,"A",180,314
"1553","noload",20,"exp",12,3,7,"A",658,264
"1554","noload",20,"exp",12,4,9,"A",457,327
"1555","noload",20,"exp",12,5,2,"A",741,268
"1556","noload",20,"exp",12,6,6,"B",330,240
"1557","noload",20,"exp",12,7,10,"B",822,203
"1558","noload",20,"exp",12,8,1,"A",361,244
"1559","noload",20,"exp",12,9,4,"A",512,231
"1560","noload",20,"exp",12,10,3,"A",1213,213
"1561","noload",21,"prac",0,1,0,"A",363,790
"1562","noload",21,"prac",0,2,0,"B",130,845
"1563","noload",21,"prac",0,3,0,"A",166,505
"1564","noload",21,"prac",0,4,0,"B",408,363
"1565","noload",21,"prac",0,5,0,"B",408,380
"1566","noload",21,"prac",0,6,0,"A",505,195
"1567","noload",21,"prac",0,7,0,"B",452,274
"1568","noload",21,"prac",0,8,0,"B",459,249
"1569","noload",21,"prac",0,9,0,"A",378,199
"1570","noload",21,"prac",0,10,0,"A",398,269
"1571","noload",21,"exp",1,1,7,"B",531,768
"1572","noload",21,"exp",1,2,8,"A",520,2386
"1573","noload",21,"exp",1,3,1,"A",783,445
"1574","noload",21,"exp",1,4,6,"B",937,823
"1575","noload",21,"exp",1,5,2,"A",665,511
"1576","noload",21,"exp",1,6,4,"A",742,507
"1577","noload",21,"exp",1,7,9,"B",1171,302
"1578","noload",21,"exp",1,8,5,"A",518,972
"1579","noload",21,"exp",1,9,3,"B",925,391
"1580","noload",21,"exp",1,10,10,"B",384,398
"1581","noload",21,"exp",2,1,7,"B",197,541
"1582","noload",21,"exp",2,2,4,"A",734,435
"1583","noload",21,"exp",2,3,10,"B",475,331
"1584","noload",21,"exp",2,4,3,"B",692,354
"1585","noload",21,"exp",2,5,6,"B",743,398
"1586","noload",21,"exp",2,6,8,"A",1645,392
"1587","noload",21,"exp",2,7,9,"B",788,373
"1588","noload",21,"exp",2,8,5,"A",519,416
"1589","noload",21,"exp",2,9,2,"A",411,380
"1590","noload",21,"exp",2,10,1,"A",810,317
"1591","noload",21,"exp",3,1,3,"B",552,487
"1592","noload",21,"exp",3,2,5,"A",684,551
"1593","noload",21,"exp",3,3,2,"A",686,506
"1594","noload",21,"exp",3,4,10,"B",954,457
"1595","noload",21,"exp",3,5,4,"A",653,382
"1596","noload",21,"exp",3,6,6,"B",488,380
"1597","noload",21,"exp",3,7,8,"A",519,398
"1598","noload",21,"exp",3,8,7,"B",603,471
"1599","noload",21,"exp",3,9,1,"A",570,429
"1600","noload",21,"exp",3,10,9,"B",642,424
"1601","noload",21,"exp",4,1,9,"B",586,466
"1602","noload",21,"exp",4,2,3,"A",1069,568
"1603","noload",21,"exp",4,3,10,"A",487,379
"1604","noload",21,"exp",4,4,7,"B",590,407
"1605","noload",21,"exp",4,5,8,"B",566,441
"1606","noload",21,"exp",4,6,5,"B",646,330
"1607","noload",21,"exp",4,7,4,"A",536,392
"1608","noload",21,"exp",4,8,1,"A",455,358
"1609","noload",21,"exp",4,9,6,"B",469,324
"1610","noload",21,"exp",4,10,2,"A",762,342
"1611","noload",21,"exp",5,1,4,"A",391,487
"1612","noload",21,"exp",5,2,2,"A",426,430
"1613","noload",21,"exp",5,3,5,"B",547,2083
"1614","noload",21,"exp",5,4,9,"B",490,478
"1615","noload",21,"exp",5,5,6,"B",448,331
"1616","noload",21,"exp",5,6,3,"A",383,429
"1617","noload",21,"exp",5,7,8,"B",503,446
"1618","noload",21,"exp",5,8,10,"A",437,415
"1619","noload",21,"exp",5,9,1,"A",380,345
"1620","noload",21,"exp",5,10,7,"B",408,428
"1621","noload",21,"exp",6,1,2,"A",367,392
"1622","noload",21,"exp",6,2,3,"A",830,342
"1623","noload",21,"exp",6,3,1,"A",364,342
"1624","noload",21,"exp",6,4,8,"B",411,366
"1625","noload",21,"exp",6,5,9,"B",420,393
"1626","noload",21,"exp",6,6,7,"B",456,387
"1627","noload",21,"exp",6,7,4,"A",504,414
"1628","noload",21,"exp",6,8,10,"A",367,411
"1629","noload",21,"exp",6,9,5,"B",326,344
"1630","noload",21,"exp",6,10,6,"B",393,379
"1631","noload",21,"exp",7,1,5,"A",521,406
"1632","noload",21,"exp",7,2,3,"A",350,406
"1633","noload",21,"exp",7,3,2,"A",345,396
"1634","noload",21,"exp",7,4,6,"B",234,412
"1635","noload",21,"exp",7,5,9,"A",309,341
"1636","noload",21,"exp",7,6,1,"A",204,341
"1637","noload",21,"exp",7,7,4,"B",150,310
"1638","noload",21,"exp",7,8,8,"B",284,200
"1639","noload",21,"exp",7,9,7,"B",222,155
"1640","noload",21,"exp",7,10,10,"B",343,284
"1641","noload",21,"exp",8,1,1,"A",286,553
"1642","noload",21,"exp",8,2,9,"A",347,356
"1643","noload",21,"exp",8,3,7,"B",234,330
"1644","noload",21,"exp",8,4,2,"A",213,356
"1645","noload",21,"exp",8,5,5,"A",270,295
"1646","noload",21,"exp",8,6,3,"A",315,251
"1647","noload",21,"exp",8,7,10,"B",218,390
"1648","noload",21,"exp",8,8,4,"B",282,357
"1649","noload",21,"exp",8,9,8,"B",123,374
"1650","noload",21,"exp",8,10,6,"B",203,423
"1651","noload",21,"exp",9,1,1,"A",652,2478
"1652","noload",21,"exp",9,2,7,"B",394,362
"1653","noload",21,"exp",9,3,3,"A",237,254
"1654","noload",21,"exp",9,4,2,"A",265,334
"1655","noload",21,"exp",9,5,6,"B",349,388
"1656","noload",21,"exp",9,6,9,"A",309,423
"1657","noload",21,"exp",9,7,10,"B",304,318
"1658","noload",21,"exp",9,8,5,"A",312,298
"1659","noload",21,"exp",9,9,8,"B",282,293
"1660","noload",21,"exp",9,10,4,"B",375,310
"1661","noload",21,"exp",10,1,3,"A",2184,430
"1662","noload",21,"exp",10,2,7,"A",399,255
"1663","noload",21,"exp",10,3,1,"A",374,227
"1664","noload",21,"exp",10,4,4,"A",332,335
"1665","noload",21,"exp",10,5,5,"A",266,275
"1666","noload",21,"exp",10,6,8,"B",283,326
"1667","noload",21,"exp",10,7,2,"B",349,309
"1668","noload",21,"exp",10,8,10,"B",190,278
"1669","noload",21,"exp",10,9,9,"B",330,285
"1670","noload",21,"exp",10,10,6,"B",372,286
"1671","noload",21,"exp",11,1,4,"A",523,534
"1672","noload",21,"exp",11,2,6,"B",221,250
"1673","noload",21,"exp",11,3,2,"B",369,250
"1674","noload",21,"exp",11,4,9,"B",346,686
"1675","noload",21,"exp",11,5,3,"A",206,313
"1676","noload",21,"exp",11,6,5,"A",324,311
"1677","noload",21,"exp",11,7,7,"A",353,312
"1678","noload",21,"exp",11,8,10,"B",360,245
"1679","noload",21,"exp",11,9,1,"A",192,377
"1680","noload",21,"exp",11,10,8,"B",473,329
"1681","noload",21,"exp",12,1,4,"A",1571,1278
"1682","noload",21,"exp",12,2,5,"A",969,317
"1683","noload",21,"exp",12,3,8,"B",704,430
"1684","noload",21,"exp",12,4,3,"A",935,309
"1685","noload",21,"exp",12,5,2,"A",787,291
"1686","noload",21,"exp",12,6,6,"B",569,284
"1687","noload",21,"exp",12,7,1,"A",798,317
"1688","noload",21,"exp",12,8,10,"B",767,346
"1689","noload",21,"exp",12,9,9,"B",630,406
"1690","noload",21,"exp",12,10,7,"B",583,414
"1691","noload",22,"prac",0,1,0,"A",253,3188
"1692","noload",22,"prac",0,2,0,"B",568,1883
"1693","noload",22,"prac",0,3,0,"B",319,1250
"1694","noload",22,"prac",0,4,0,"B",279,12222
"1695","noload",22,"prac",0,5,0,"B",189,1174
"1696","noload",22,"prac",0,6,0,"A",105,766
"1697","noload",22,"prac",0,7,0,"A",455,530
"1698","noload",22,"prac",0,8,0,"A",326,553
"1699","noload",22,"prac",0,9,0,"B",30,452
"1700","noload",22,"prac",0,10,0,"A",379,425
"1701","noload",22,"exp",1,1,10,"B",435,3612
"1702","noload",22,"exp",1,2,1,"A",573,1091
"1703","noload",22,"exp",1,3,4,"A",702,1196
"1704","noload",22,"exp",1,4,7,"B",4012,3254
"1705","noload",22,"exp",1,5,6,"B",1379,1883
"1706","noload",22,"exp",1,6,8,"B",2435,621
"1707","noload",22,"exp",1,7,2,"A",1470,838
"1708","noload",22,"exp",1,8,9,"B",3608,2927
"1709","noload",22,"exp",1,9,3,"A",2042,787
"1710","noload",22,"exp",1,10,5,"A",2024,541
"1711","noload",22,"exp",2,1,7,"B",967,396
"1712","noload",22,"exp",2,2,8,"B",3716,350
"1713","noload",22,"exp",2,3,3,"A",2523,248
"1714","noload",22,"exp",2,4,2,"A",1210,239
"1715","noload",22,"exp",2,5,5,"A",2002,296
"1716","noload",22,"exp",2,6,4,"A",1582,350
"1717","noload",22,"exp",2,7,10,"B",4004,15819
"1718","noload",22,"exp",2,8,6,"B",1351,584
"1719","noload",22,"exp",2,9,9,"B",4372,869
"1720","noload",22,"exp",2,10,1,"A",637,366
"1721","noload",22,"exp",3,1,1,"A",550,518
"1722","noload",22,"exp",3,2,7,"B",1000,275
"1723","noload",22,"exp",3,3,9,"B",2631,281
"1724","noload",22,"exp",3,4,6,"B",586,514
"1725","noload",22,"exp",3,5,2,"A",887,345
"1726","noload",22,"exp",3,6,8,"B",6142,430
"1727","noload",22,"exp",3,7,10,"B",1208,379
"1728","noload",22,"exp",3,8,5,"A",2539,316
"1729","noload",22,"exp",3,9,4,"A",1295,421
"1730","noload",22,"exp",3,10,3,"A",1140,408
"1731","noload",22,"exp",4,1,6,"B",662,411
"1732","noload",22,"exp",4,2,3,"A",1648,445
"1733","noload",22,"exp",4,3,10,"B",895,374
"1734","noload",22,"exp",4,4,9,"B",1748,806
"1735","noload",22,"exp",4,5,1,"A",543,796
"1736","noload",22,"exp",4,6,2,"A",699,424
"1737","noload",22,"exp",4,7,4,"A",1620,363
"1738","noload",22,"exp",4,8,5,"A",1134,341
"1739","noload",22,"exp",4,9,8,"B",1407,410
"1740","noload",22,"exp",4,10,7,"B",1651,319
"1741","noload",22,"exp",5,1,9,"B",1978,391
"1742","noload",22,"exp",5,2,10,"B",956,492
"1743","noload",22,"exp",5,3,1,"A",601,293
"1744","noload",22,"exp",5,4,3,"A",1398,368
"1745","noload",22,"exp",5,5,7,"B",642,258
"1746","noload",22,"exp",5,6,8,"B",1888,285
"1747","noload",22,"exp",5,7,4,"A",7943,261
"1748","noload",22,"exp",5,8,2,"A",578,313
"1749","noload",22,"exp",5,9,5,"A",2655,262
"1750","noload",22,"exp",5,10,6,"B",531,302
"1751","noload",22,"exp",6,1,1,"A",551,330
"1752","noload",22,"exp",6,2,3,"A",1095,293
"1753","noload",22,"exp",6,3,6,"B",617,246
"1754","noload",22,"exp",6,4,5,"A",4565,746
"1755","noload",22,"exp",6,5,4,"A",1790,343
"1756","noload",22,"exp",6,6,8,"A",3079,437
"1757","noload",22,"exp",6,7,10,"B",1461,379
"1758","noload",22,"exp",6,8,9,"B",3418,550
"1759","noload",22,"exp",6,9,7,"B",794,298
"1760","noload",22,"exp",6,10,2,"A",922,339
"1761","noload",22,"exp",7,1,2,"A",1102,204
"1762","noload",22,"exp",7,2,8,"B",1993,762
"1763","noload",22,"exp",7,3,3,"A",1549,294
"1764","noload",22,"exp",7,4,10,"B",1113,843
"1765","noload",22,"exp",7,5,7,"B",777,567
"1766","noload",22,"exp",7,6,4,"A",1562,342
"1767","noload",22,"exp",7,7,9,"B",1827,325
"1768","noload",22,"exp",7,8,1,"A",651,589
"1769","noload",22,"exp",7,9,5,"A",2173,308
"1770","noload",22,"exp",7,10,6,"B",507,259
"1771","noload",22,"exp",8,1,1,"A",422,251
"1772","noload",22,"exp",8,2,4,"A",728,346
"1773","noload",22,"exp",8,3,10,"B",1165,282
"1774","noload",22,"exp",8,4,6,"B",361,228
"1775","noload",22,"exp",8,5,2,"A",678,269
"1776","noload",22,"exp",8,6,8,"B",2712,267
"1777","noload",22,"exp",8,7,5,"A",2403,248
"1778","noload",22,"exp",8,8,9,"B",1836,590
"1779","noload",22,"exp",8,9,7,"B",1936,246
"1780","noload",22,"exp",8,10,3,"A",3396,685
"1781","noload",22,"exp",9,1,4,"A",2267,276
"1782","noload",22,"exp",9,2,10,"B",807,330
"1783","noload",22,"exp",9,3,8,"A",2176,1000
"1784","noload",22,"exp",9,4,2,"A",763,277
"1785","noload",22,"exp",9,5,9,"B",2278,574
"1786","noload",22,"exp",9,6,7,"B",624,286
"1787","noload",22,"exp",9,7,3,"A",1701,204
"1788","noload",22,"exp",9,8,1,"A",510,230
"1789","noload",22,"exp",9,9,6,"B",417,229
"1790","noload",22,"exp",9,10,5,"A",4523,232
"1791","noload",22,"exp",10,1,1,"A",409,220
"1792","noload",22,"exp",10,2,6,"B",474,267
"1793","noload",22,"exp",10,3,7,"B",472,215
"1794","noload",22,"exp",10,4,4,"A",839,161
"1795","noload",22,"exp",10,5,10,"B",2171,494
"1796","noload",22,"exp",10,6,9,"B",1684,215
"1797","noload",22,"exp",10,7,2,"A",778,249
"1798","noload",22,"exp",10,8,5,"A",1295,245
"1799","noload",22,"exp",10,9,3,"A",1773,293
"1800","noload",22,"exp",10,10,8,"B",1965,249
"1801","noload",22,"exp",11,1,2,"A",758,253
"1802","noload",22,"exp",11,2,1,"A",335,500
"1803","noload",22,"exp",11,3,6,"B",535,214
"1804","noload",22,"exp",11,4,5,"A",1078,223
"1805","noload",22,"exp",11,5,3,"A",1167,220
"1806","noload",22,"exp",11,6,10,"B",1051,223
"1807","noload",22,"exp",11,7,4,"A",1285,263
"1808","noload",22,"exp",11,8,7,"B",1686,346
"1809","noload",22,"exp",11,9,8,"B",2002,582
"1810","noload",22,"exp",11,10,9,"B",2075,347
"1811","noload",22,"exp",12,1,6,"B",541,234
"1812","noload",22,"exp",12,2,9,"B",524,199
"1813","noload",22,"exp",12,3,10,"B",654,228
"1814","noload",22,"exp",12,4,2,"A",367,266
"1815","noload",22,"exp",12,5,5,"A",916,219
"1816","noload",22,"exp",12,6,7,"B",475,253
"1817","noload",22,"exp",12,7,8,"B",2743,286
"1818","noload",22,"exp",12,8,1,"A",365,214
"1819","noload",22,"exp",12,9,4,"A",1863,254
"1820","noload",22,"exp",12,10,3,"A",3321,310
"1821","noload",3,"prac",0,1,0,"A",667,931
"1822","noload",3,"prac",0,2,0,"A",1019,870
"1823","noload",3,"prac",0,3,0,"B",1530,1534
"1824","noload",3,"prac",0,4,0,"B",297,1286
"1825","noload",3,"prac",0,5,0,"A",477,653
"1826","noload",3,"prac",0,6,0,"B",566,778
"1827","noload",3,"prac",0,7,0,"B",482,901
"1828","noload",3,"prac",0,8,0,"B",568,875
"1829","noload",3,"prac",0,9,0,"A",556,669
"1830","noload",3,"prac",0,10,0,"A",246,664
"1831","noload",3,"exp",1,1,4,"A",886,730
"1832","noload",3,"exp",1,2,5,"A",1839,836
"1833","noload",3,"exp",1,3,9,"B",588,820
"1834","noload",3,"exp",1,4,3,"B",1111,774
"1835","noload",3,"exp",1,5,7,"B",816,614
"1836","noload",3,"exp",1,6,1,"A",586,447
"1837","noload",3,"exp",1,7,2,"A",560,372
"1838","noload",3,"exp",1,8,10,"A",5316,947
"1839","noload",3,"exp",1,9,6,"B",549,293
"1840","noload",3,"exp",1,10,8,"B",1373,580
"1841","noload",3,"exp",2,1,5,"A",565,504
"1842","noload",3,"exp",2,2,6,"B",627,595
"1843","noload",3,"exp",2,3,7,"B",797,301
"1844","noload",3,"exp",2,4,1,"A",564,217
"1845","noload",3,"exp",2,5,9,"B",72,840
"1846","noload",3,"exp",2,6,10,"B",219,616
"1847","noload",3,"exp",2,7,2,"A",1237,604
"1848","noload",3,"exp",2,8,4,"A",374,1011
"1849","noload",3,"exp",2,9,3,"B",348,485
"1850","noload",3,"exp",2,10,8,"A",587,339
"1851","noload",3,"exp",3,1,6,"B",428,483
"1852","noload",3,"exp",3,2,7,"B",460,551
"1853","noload",3,"exp",3,3,3,"B",214,452
"1854","noload",3,"exp",3,4,5,"A",1320,372
"1855","noload",3,"exp",3,5,4,"A",602,262
"1856","noload",3,"exp",3,6,1,"A",453,292
"1857","noload",3,"exp",3,7,2,"A",693,483
"1858","noload",3,"exp",3,8,9,"B",387,260
"1859","noload",3,"exp",3,9,8,"A",462,349
"1860","noload",3,"exp",3,10,10,"B",344,253
"1861","noload",3,"exp",4,1,1,"A",492,223
"1862","noload",3,"exp",4,2,6,"B",897,376
"1863","noload",3,"exp",4,3,5,"A",165,214
"1864","noload",3,"exp",4,4,9,"B",269,228
"1865","noload",3,"exp",4,5,8,"A",406,169
"1866","noload",3,"exp",4,6,3,"B",495,308
"1867","noload",3,"exp",4,7,10,"A",1372,162
"1868","noload",3,"exp",4,8,4,"A",422,173
"1869","noload",3,"exp",4,9,7,"B",310,198
"1870","noload",3,"exp",4,10,2,"A",479,241
"1871","noload",3,"exp",5,1,10,"B",192,199
"1872","noload",3,"exp",5,2,1,"A",321,258
"1873","noload",3,"exp",5,3,8,"A",679,260
"1874","noload",3,"exp",5,4,5,"A",443,261
"1875","noload",3,"exp",5,5,2,"A",475,218
"1876","noload",3,"exp",5,6,4,"A",331,221
"1877","noload",3,"exp",5,7,6,"B",1252,162
"1878","noload",3,"exp",5,8,9,"B",196,157
"1879","noload",3,"exp",5,9,3,"B",142,107
"1880","noload",3,"exp",5,10,7,"B",157,223
"1881","noload",3,"exp",6,1,10,"B",452,223
"1882","noload",3,"exp",6,2,4,"A",276,237
"1883","noload",3,"exp",6,3,5,"A",392,201
"1884","noload",3,"exp",6,4,8,"A",396,156
"1885","noload",3,"exp",6,5,7,"A",714,154
"1886","noload",3,"exp",6,6,1,"A",486,216
"1887","noload",3,"exp",6,7,6,"B",413,212
"1888","noload",3,"exp",6,8,3,"B",1019,170
"1889","noload",3,"exp",6,9,9,"B",1389,629
"1890","noload",3,"exp",6,10,2,"A",397,253
"1891","noload",3,"exp",7,1,7,"B",374,211
"1892","noload",3,"exp",7,2,5,"A",1841,403
"1893","noload",3,"exp",7,3,2,"A",316,173
"1894","noload",3,"exp",7,4,8,"A",453,770
"1895","noload",3,"exp",7,5,4,"A",263,172
"1896","noload",3,"exp",7,6,10,"B",439,211
"1897","noload",3,"exp",7,7,1,"A",215,179
"1898","noload",3,"exp",7,8,9,"B",2,294
"1899","noload",3,"exp",7,9,6,"B",252,222
"1900","noload",3,"exp",7,10,3,"B",329,189
"1901","noload",3,"exp",8,1,3,"B",377,471
"1902","noload",3,"exp",8,2,4,"A",1148,341
"1903","noload",3,"exp",8,3,7,"B",408,236
"1904","noload",3,"exp",8,4,5,"B",1941,221
"1905","noload",3,"exp",8,5,2,"A",660,202
"1906","noload",3,"exp",8,6,6,"A",1412,196
"1907","noload",3,"exp",8,7,10,"B",1715,204
"1908","noload",3,"exp",8,8,8,"B",1659,345
"1909","noload",3,"exp",8,9,9,"A",947,340
"1910","noload",3,"exp",8,10,1,"A",906,195
"1911","noload",3,"exp",9,1,4,"A",1535,149
"1912","noload",3,"exp",9,2,9,"B",937,86
"1913","noload",3,"exp",9,3,10,"B",276,78
"1914","noload",3,"exp",9,4,5,"A",829,54
"1915","noload",3,"exp",9,5,6,"B",712,71
"1916","noload",3,"exp",9,6,7,"B",747,49
"1917","noload",3,"exp",9,7,2,"A",590,88
"1918","noload",3,"exp",9,8,1,"A",295,86
"1919","noload",3,"exp",9,9,8,"A",299,104
"1920","noload",3,"exp",9,10,3,"B",266,81
"1921","noload",3,"exp",10,1,2,"A",249,93
"1922","noload",3,"exp",10,2,6,"B",204,136
"1923","noload",3,"exp",10,3,4,"A",277,110
"1924","noload",3,"exp",10,4,7,"B",146,148
"1925","noload",3,"exp",10,5,9,"B",170,124
"1926","noload",3,"exp",10,6,1,"B",63,715
"1927","noload",3,"exp",10,7,10,"B",288,75
"1928","noload",3,"exp",10,8,8,"A",122,101
"1929","noload",3,"exp",10,9,5,"A",196,108
"1930","noload",3,"exp",10,10,3,"B",551,87
"1931","noload",3,"exp",11,1,5,"A",682,73
"1932","noload",3,"exp",11,2,3,"B",173,87
"1933","noload",3,"exp",11,3,9,"B",222,122
"1934","noload",3,"exp",11,4,1,"A",430,198
"1935","noload",3,"exp",11,5,7,"B",156,123
"1936","noload",3,"exp",11,6,6,"B",301,155
"1937","noload",3,"exp",11,7,2,"A",343,140
"1938","noload",3,"exp",11,8,4,"A",293,98
"1939","noload",3,"exp",11,9,8,"A",332,79
"1940","noload",3,"exp",11,10,10,"B",534,85
"1941","noload",3,"exp",12,1,8,"A",1134,52
"1942","noload",3,"exp",12,2,6,"B",310,71
"1943","noload",3,"exp",12,3,2,"B",442,71
"1944","noload",3,"exp",12,4,4,"A",300,137
"1945","noload",3,"exp",12,5,10,"B",431,103
"1946","noload",3,"exp",12,6,1,"A",230,136
"1947","noload",3,"exp",12,7,9,"B",379,56
"1948","noload",3,"exp",12,8,5,"A",648,59
"1949","noload",3,"exp",12,9,3,"B",522,38
"1950","noload",3,"exp",12,10,7,"B",327,57
"1951","noload",4,"prac",0,1,0,"A",696,901
"1952","noload",4,"prac",0,2,0,"A",754,1099
"1953","noload",4,"prac",0,3,0,"A",800,675
"1954","noload",4,"prac",0,4,0,"B",611,542
"1955","noload",4,"prac",0,5,0,"B",1047,571
"1956","noload",4,"prac",0,6,0,"B",542,363
"1957","noload",4,"prac",0,7,0,"B",727,488
"1958","noload",4,"prac",0,8,0,"A",676,524
"1959","noload",4,"prac",0,9,0,"B",588,530
"1960","noload",4,"prac",0,10,0,"A",127,1338
"1961","noload",4,"exp",1,1,7,"B",1359,849
"1962","noload",4,"exp",1,2,6,"B",1846,570
"1963","noload",4,"exp",1,3,9,"B",1082,709
"1964","noload",4,"exp",1,4,4,"A",5063,1139
"1965","noload",4,"exp",1,5,3,"B",10540,532
"1966","noload",4,"exp",1,6,8,"A",3270,697
"1967","noload",4,"exp",1,7,1,"A",1970,733
"1968","noload",4,"exp",1,8,10,"A",1178,552
"1969","noload",4,"exp",1,9,2,"A",884,550
"1970","noload",4,"exp",1,10,5,"A",1333,500
"1971","noload",4,"exp",2,1,10,"B",835,573
"1972","noload",4,"exp",2,2,4,"A",709,662
"1973","noload",4,"exp",2,3,6,"B",918,460
"1974","noload",4,"exp",2,4,9,"B",1132,578
"1975","noload",4,"exp",2,5,5,"A",621,588
"1976","noload",4,"exp",2,6,7,"B",1149,565
"1977","noload",4,"exp",2,7,2,"A",715,524
"1978","noload",4,"exp",2,8,3,"B",539,505
"1979","noload",4,"exp",2,9,8,"A",551,1976
"1980","noload",4,"exp",2,10,1,"A",959,626
"1981","noload",4,"exp",3,1,4,"B",41880,919
"1982","noload",4,"exp",3,2,6,"B",910,999
"1983","noload",4,"exp",3,3,5,"A",3196,1071
"1984","noload",4,"exp",3,4,10,"B",4631,571
"1985","noload",4,"exp",3,5,1,"A",919,452
"1986","noload",4,"exp",3,6,7,"B",3396,639
"1987","noload",4,"exp",3,7,3,"A",3877,464
"1988","noload",4,"exp",3,8,9,"B",1460,267
"1989","noload",4,"exp",3,9,2,"A",4687,557
"1990","noload",4,"exp",3,10,8,"B",2811,416
"1991","noload",4,"exp",4,1,5,"A",3283,470
"1992","noload",4,"exp",4,2,9,"B",816,341
"1993","noload",4,"exp",4,3,7,"B",1531,719
"1994","noload",4,"exp",4,4,3,"A",3462,1102
"1995","noload",4,"exp",4,5,1,"A",1853,579
"1996","noload",4,"exp",4,6,8,"B",2107,228
"1997","noload",4,"exp",4,7,10,"B",2077,495
"1998","noload",4,"exp",4,8,2,"A",960,322
"1999","noload",4,"exp",4,9,4,"A",1315,909
"2000","noload",4,"exp",4,10,6,"B",1393,569
"2001","noload",4,"exp",5,1,6,"B",938,648
"2002","noload",4,"exp",5,2,7,"B",1228,501
"2003","noload",4,"exp",5,3,9,"A",1118,734
"2004","noload",4,"exp",5,4,3,"A",2424,558
"2005","noload",4,"exp",5,5,10,"B",2960,293
"2006","noload",4,"exp",5,6,5,"A",8467,1420
"2007","noload",4,"exp",5,7,4,"A",4160,566
"2008","noload",4,"exp",5,8,1,"A",794,378
"2009","noload",4,"exp",5,9,2,"A",864,542
"2010","noload",4,"exp",5,10,8,"B",1863,557
"2011","noload",4,"exp",6,1,9,"B",813,323
"2012","noload",4,"exp",6,2,5,"A",5175,632
"2013","noload",4,"exp",6,3,3,"A",1962,389
"2014","noload",4,"exp",6,4,1,"A",1319,398
"2015","noload",4,"exp",6,5,6,"B",805,377
"2016","noload",4,"exp",6,6,7,"B",1259,538
"2017","noload",4,"exp",6,7,10,"B",2550,472
"2018","noload",4,"exp",6,8,2,"A",664,1501
"2019","noload",4,"exp",6,9,8,"B",1403,469
"2020","noload",4,"exp",6,10,4,"A",932,431
"2021","noload",4,"exp",7,1,6,"B",698,391
"2022","noload",4,"exp",7,2,7,"B",1261,619
"2023","noload",4,"exp",7,3,3,"A",1848,475
"2024","noload",4,"exp",7,4,4,"B",1397,428
"2025","noload",4,"exp",7,5,9,"B",4793,397
"2026","noload",4,"exp",7,6,10,"B",2143,351
"2027","noload",4,"exp",7,7,8,"B",1127,491
"2028","noload",4,"exp",7,8,2,"A",845,393
"2029","noload",4,"exp",7,9,5,"A",2479,389
"2030","noload",4,"exp",7,10,1,"A",1335,390
"2031","noload",4,"exp",8,1,5,"A",2573,885
"2032","noload",4,"exp",8,2,4,"A",1907,404
"2033","noload",4,"exp",8,3,7,"B",720,547
"2034","noload",4,"exp",8,4,9,"B",852,369
"2035","noload",4,"exp",8,5,3,"A",1258,649
"2036","noload",4,"exp",8,6,1,"A",1094,357
"2037","noload",4,"exp",8,7,2,"A",1223,1038
"2038","noload",4,"exp",8,8,10,"B",1227,374
"2039","noload",4,"exp",8,9,8,"B",1175,437
"2040","noload",4,"exp",8,10,6,"B",1315,411
"2041","noload",4,"exp",9,1,3,"A",923,742
"2042","noload",4,"exp",9,2,10,"B",1161,324
"2043","noload",4,"exp",9,3,1,"A",746,324
"2044","noload",4,"exp",9,4,2,"A",1076,348
"2045","noload",4,"exp",9,5,7,"B",554,411
"2046","noload",4,"exp",9,6,4,"A",767,410
"2047","noload",4,"exp",9,7,5,"A",1816,453
"2048","noload",4,"exp",9,8,8,"B",585,320
"2049","noload",4,"exp",9,9,9,"B",1132,355
"2050","noload",4,"exp",9,10,6,"B",1706,499
"2051","noload",4,"exp",10,1,6,"B",1016,408
"2052","noload",4,"exp",10,2,9,"B",882,309
"2053","noload",4,"exp",10,3,4,"A",968,381
"2054","noload",4,"exp",10,4,1,"B",669,1685
"2055","noload",4,"exp",10,5,3,"A",1837,446
"2056","noload",4,"exp",10,6,10,"B",1335,421
"2057","noload",4,"exp",10,7,7,"B",920,420
"2058","noload",4,"exp",10,8,5,"A",2943,382
"2059","noload",4,"exp",10,9,8,"B",911,392
"2060","noload",4,"exp",10,10,2,"A",1086,408
"2061","noload",4,"exp",11,1,7,"B",765,471
"2062","noload",4,"exp",11,2,4,"A",6743,1941
"2063","noload",4,"exp",11,3,6,"B",644,328
"2064","noload",4,"exp",11,4,1,"A",816,789
"2065","noload",4,"exp",11,5,3,"A",2731,499
"2066","noload",4,"exp",11,6,9,"B",2359,644
"2067","noload",4,"exp",11,7,8,"B",1453,546
"2068","noload",4,"exp",11,8,10,"A",1849,1436
"2069","noload",4,"exp",11,9,2,"A",1195,477
"2070","noload",4,"exp",11,10,5,"B",2109,646
"2071","noload",4,"exp",12,1,9,"B",3114,621
"2072","noload",4,"exp",12,2,10,"B",2028,373
"2073","noload",4,"exp",12,3,7,"B",1086,553
"2074","noload",4,"exp",12,4,6,"B",623,333
"2075","noload",4,"exp",12,5,3,"A",714,332
"2076","noload",4,"exp",12,6,5,"B",7737,411
"2077","noload",4,"exp",12,7,1,"A",1578,393
"2078","noload",4,"exp",12,8,2,"A",502,540
"2079","noload",4,"exp",12,9,8,"B",626,436
"2080","noload",4,"exp",12,10,4,"B",1743,1390
"2081","noload",5,"prac",0,1,0,"B",1887,875
"2082","noload",5,"prac",0,2,0,"B",1149,965
"2083","noload",5,"prac",0,3,0,"B",868,565
"2084","noload",5,"prac",0,4,0,"A",748,1125
"2085","noload",5,"prac",0,5,0,"A",984,526
"2086","noload",5,"prac",0,6,0,"B",971,1101
"2087","noload",5,"prac",0,7,0,"B",757,366
"2088","noload",5,"prac",0,8,0,"A",1051,670
"2089","noload",5,"prac",0,9,0,"A",857,567
"2090","noload",5,"prac",0,10,0,"A",612,496
"2091","noload",5,"exp",1,1,6,"B",2962,807
"2092","noload",5,"exp",1,2,7,"B",4422,1406
"2093","noload",5,"exp",1,3,1,"A",2819,523
"2094","noload",5,"exp",1,4,2,"A",2783,1439
"2095","noload",5,"exp",1,5,5,"A",5100,669
"2096","noload",5,"exp",1,6,9,"B",1326,697
"2097","noload",5,"exp",1,7,8,"B",5065,883
"2098","noload",5,"exp",1,8,10,"B",2913,350
"2099","noload",5,"exp",1,9,3,"B",3565,347
"2100","noload",5,"exp",1,10,4,"A",1113,986
"2101","noload",5,"exp",2,1,10,"B",2105,1380
"2102","noload",5,"exp",2,2,5,"A",1659,732
"2103","noload",5,"exp",2,3,8,"B",3613,374
"2104","noload",5,"exp",2,4,4,"A",2489,670
"2105","noload",5,"exp",2,5,1,"A",1587,468
"2106","noload",5,"exp",2,6,3,"A",3501,620
"2107","noload",5,"exp",2,7,9,"B",1969,365
"2108","noload",5,"exp",2,8,7,"B",1125,456
"2109","noload",5,"exp",2,9,2,"A",1358,435
"2110","noload",5,"exp",2,10,6,"B",1103,621
"2111","noload",5,"exp",3,1,2,"A",5082,904
"2112","noload",5,"exp",3,2,7,"B",1886,873
"2113","noload",5,"exp",3,3,8,"B",7717,486
"2114","noload",5,"exp",3,4,3,"A",2166,270
"2115","noload",5,"exp",3,5,4,"A",1332,370
"2116","noload",5,"exp",3,6,5,"A",1450,335
"2117","noload",5,"exp",3,7,1,"A",808,396
"2118","noload",5,"exp",3,8,10,"B",1303,366
"2119","noload",5,"exp",3,9,9,"B",2159,387
"2120","noload",5,"exp",3,10,6,"B",2829,341
"2121","noload",5,"exp",4,1,2,"A",1996,446
"2122","noload",5,"exp",4,2,9,"A",5118,355
"2123","noload",5,"exp",4,3,4,"A",2086,393
"2124","noload",5,"exp",4,4,5,"A",1604,311
"2125","noload",5,"exp",4,5,7,"B",744,1134
"2126","noload",5,"exp",4,6,1,"A",808,684
"2127","noload",5,"exp",4,7,10,"B",2874,1100
"2128","noload",5,"exp",4,8,6,"B",932,483
"2129","noload",5,"exp",4,9,3,"A",6732,520
"2130","noload",5,"exp",4,10,8,"B",4453,406
"2131","noload",5,"exp",5,1,1,"A",654,34979
"2132","noload",5,"exp",5,2,5,"A",6019,508
"2133","noload",5,"exp",5,3,9,"B",2748,504
"2134","noload",5,"exp",5,4,8,"B",4552,332
"2135","noload",5,"exp",5,5,7,"B",1279,403
"2136","noload",5,"exp",5,6,2,"A",1443,389
"2137","noload",5,"exp",5,7,3,"A",2931,385
"2138","noload",5,"exp",5,8,10,"B",2304,367
"2139","noload",5,"exp",5,9,4,"B",1670,439
"2140","noload",5,"exp",5,10,6,"B",2167,299
"2141","noload",5,"exp",6,1,6,"B",990,469
"2142","noload",5,"exp",6,2,7,"B",676,380
"2143","noload",5,"exp",6,3,2,"A",715,348
"2144","noload",5,"exp",6,4,4,"A",1193,1322
"2145","noload",5,"exp",6,5,1,"A",624,316
"2146","noload",5,"exp",6,6,9,"A",3348,325
"2147","noload",5,"exp",6,7,10,"B",2564,296
"2148","noload",5,"exp",6,8,3,"A",2826,324
"2149","noload",5,"exp",6,9,5,"A",2676,399
"2150","noload",5,"exp",6,10,8,"B",1562,453
"2151","noload",5,"exp",7,1,1,"A",588,323
"2152","noload",5,"exp",7,2,10,"B",1119,337
"2153","noload",5,"exp",7,3,9,"A",1854,293
"2154","noload",5,"exp",7,4,2,"A",687,297
"2155","noload",5,"exp",7,5,3,"A",1263,364
"2156","noload",5,"exp",7,6,5,"A",2373,309
"2157","noload",5,"exp",7,7,4,"B",2208,253
"2158","noload",5,"exp",7,8,7,"B",493,307
"2159","noload",5,"exp",7,9,6,"B",348,307
"2160","noload",5,"exp",7,10,8,"B",1393,284
"2161","noload",5,"exp",8,1,3,"A",1222,283
"2162","noload",5,"exp",8,2,2,"A",1034,283
"2163","noload",5,"exp",8,3,10,"B",1271,359
"2164","noload",5,"exp",8,4,1,"A",788,451
"2165","noload",5,"exp",8,5,8,"B",614,339
"2166","noload",5,"exp",8,6,6,"B",3317,260
"2167","noload",5,"exp",8,7,4,"B",596,349
"2168","noload",5,"exp",8,8,5,"A",710,279
"2169","noload",5,"exp",8,9,7,"B",581,249
"2170","noload",5,"exp",8,10,9,"A",1021,650
"2171","noload",5,"exp",9,1,6,"B",637,285
"2172","noload",5,"exp",9,2,3,"A",2299,345
"2173","noload",5,"exp",9,3,5,"A",1085,313
"2174","noload",5,"exp",9,4,8,"B",442,277
"2175","noload",5,"exp",9,5,1,"A",1523,279
"2176","noload",5,"exp",9,6,4,"B",1133,228
"2177","noload",5,"exp",9,7,9,"A",1395,252
"2178","noload",5,"exp",9,8,7,"B",458,281
"2179","noload",5,"exp",9,9,10,"B",1196,284
"2180","noload",5,"exp",9,10,2,"A",740,328
"2181","noload",5,"exp",10,1,8,"B",711,278
"2182","noload",5,"exp",10,2,1,"A",539,297
"2183","noload",5,"exp",10,3,2,"B",647,3772
"2184","noload",5,"exp",10,4,10,"B",1847,427
"2185","noload",5,"exp",10,5,9,"A",649,557
"2186","noload",5,"exp",10,6,7,"B",1504,270
"2187","noload",5,"exp",10,7,5,"A",1261,300
"2188","noload",5,"exp",10,8,3,"A",2358,291
"2189","noload",5,"exp",10,9,6,"B",655,292
"2190","noload",5,"exp",10,10,4,"B",1351,247
"2191","noload",5,"exp",11,1,7,"B",2985,467
"2192","noload",5,"exp",11,2,10,"B",1263,429
"2193","noload",5,"exp",11,3,2,"A",552,536
"2194","noload",5,"exp",11,4,3,"A",3993,859
"2195","noload",5,"exp",11,5,4,"B",699,264
"2196","noload",5,"exp",11,6,1,"A",1695,262
"2197","noload",5,"exp",11,7,5,"A",1594,265
"2198","noload",5,"exp",11,8,6,"B",606,248
"2199","noload",5,"exp",11,9,8,"B",3445,1066
"2200","noload",5,"exp",11,10,9,"B",2844,408
"2201","noload",5,"exp",12,1,2,"A",4966,284
"2202","noload",5,"exp",12,2,3,"A",2103,319
"2203","noload",5,"exp",12,3,8,"B",1079,310
"2204","noload",5,"exp",12,4,5,"A",1838,287
"2205","noload",5,"exp",12,5,4,"B",490,285
"2206","noload",5,"exp",12,6,6,"B",5211,436
"2207","noload",5,"exp",12,7,10,"B",474,331
"2208","noload",5,"exp",12,8,9,"A",580,440
"2209","noload",5,"exp",12,9,1,"A",2333,325
"2210","noload",5,"exp",12,10,7,"B",656,294
"2211","noload",6,"prac",0,1,0,"A",743,1707
"2212","noload",6,"prac",0,2,0,"B",128,3546
"2213","noload",6,"prac",0,3,0,"A",912,1879
"2214","noload",6,"prac",0,4,0,"A",670,854
"2215","noload",6,"prac",0,5,0,"B",546,1059
"2216","noload",6,"prac",0,6,0,"B",798,593
"2217","noload",6,"prac",0,7,0,"B",803,470
"2218","noload",6,"prac",0,8,0,"A",572,528
"2219","noload",6,"prac",0,9,0,"A",421,540
"2220","noload",6,"prac",0,10,0,"B",489,413
"2221","noload",6,"exp",1,1,10,"B",5818,1564
"2222","noload",6,"exp",1,2,7,"B",1136,997
"2223","noload",6,"exp",1,3,5,"A",2173,853
"2224","noload",6,"exp",1,4,3,"B",1842,503
"2225","noload",6,"exp",1,5,9,"B",988,437
"2226","noload",6,"exp",1,6,6,"B",1025,385
"2227","noload",6,"exp",1,7,8,"A",949,566
"2228","noload",6,"exp",1,8,1,"A",1961,422
"2229","noload",6,"exp",1,9,4,"A",1197,1324
"2230","noload",6,"exp",1,10,2,"A",1628,501
"2231","noload",6,"exp",2,1,8,"A",3415,806
"2232","noload",6,"exp",2,2,3,"B",2021,1145
"2233","noload",6,"exp",2,3,9,"B",828,373
"2234","noload",6,"exp",2,4,2,"A",1067,1379
"2235","noload",6,"exp",2,5,1,"A",1077,351
"2236","noload",6,"exp",2,6,7,"B",1096,629
"2237","noload",6,"exp",2,7,6,"B",444,406
"2238","noload",6,"exp",2,8,4,"A",861,971
"2239","noload",6,"exp",2,9,5,"A",507,436
"2240","noload",6,"exp",2,10,10,"B",1253,402
"2241","noload",6,"exp",3,1,2,"A",737,823
"2242","noload",6,"exp",3,2,5,"A",606,411
"2243","noload",6,"exp",3,3,9,"B",1500,556
"2244","noload",6,"exp",3,4,10,"B",935,1012
"2245","noload",6,"exp",3,5,6,"B",652,415
"2246","noload",6,"exp",3,6,4,"A",1080,897
"2247","noload",6,"exp",3,7,8,"A",420,232
"2248","noload",6,"exp",3,8,3,"B",510,424
"2249","noload",6,"exp",3,9,7,"B",568,363
"2250","noload",6,"exp",3,10,1,"B",1227,1331
"2251","noload",6,"exp",4,1,5,"A",520,292
"2252","noload",6,"exp",4,2,1,"A",624,334
"2253","noload",6,"exp",4,3,6,"B",475,459
"2254","noload",6,"exp",4,4,9,"B",589,357
"2255","noload",6,"exp",4,5,2,"A",1035,875
"2256","noload",6,"exp",4,6,7,"B",491,478
"2257","noload",6,"exp",4,7,4,"A",1663,383
"2258","noload",6,"exp",4,8,10,"B",1514,283
"2259","noload",6,"exp",4,9,3,"B",2647,636
"2260","noload",6,"exp",4,10,8,"A",1325,313
"2261","noload",6,"exp",5,1,10,"B",742,364
"2262","noload",6,"exp",5,2,1,"A",411,349
"2263","noload",6,"exp",5,3,2,"A",457,550
"2264","noload",6,"exp",5,4,8,"A",456,324
"2265","noload",6,"exp",5,5,7,"B",456,246
"2266","noload",6,"exp",5,6,9,"B",474,265
"2267","noload",6,"exp",5,7,6,"B",453,275
"2268","noload",6,"exp",5,8,3,"B",428,260
"2269","noload",6,"exp",5,9,4,"A",170,302
"2270","noload",6,"exp",5,10,5,"A",555,460
"2271","noload",6,"exp",6,1,5,"A",355,253
"2272","noload",6,"exp",6,2,4,"A",395,251
"2273","noload",6,"exp",6,3,9,"B",1839,483
"2274","noload",6,"exp",6,4,7,"B",491,286
"2275","noload",6,"exp",6,5,8,"A",468,261
"2276","noload",6,"exp",6,6,2,"A",591,311
"2277","noload",6,"exp",6,7,3,"B",492,242
"2278","noload",6,"exp",6,8,6,"B",697,264
"2279","noload",6,"exp",6,9,10,"B",487,267
"2280","noload",6,"exp",6,10,1,"A",471,248
"2281","noload",6,"exp",7,1,10,"B",434,267
"2282","noload",6,"exp",7,2,1,"A",382,411
"2283","noload",6,"exp",7,3,2,"A",1251,402
"2284","noload",6,"exp",7,4,5,"A",456,263
"2285","noload",6,"exp",7,5,3,"B",947,246
"2286","noload",6,"exp",7,6,6,"B",650,287
"2287","noload",6,"exp",7,7,9,"A",1128,316
"2288","noload",6,"exp",7,8,8,"A",394,331
"2289","noload",6,"exp",7,9,7,"B",404,297
"2290","noload",6,"exp",7,10,4,"A",583,396
"2291","noload",6,"exp",8,1,1,"A",382,251
"2292","noload",6,"exp",8,2,6,"B",522,228
"2293","noload",6,"exp",8,3,3,"B",394,283
"2294","noload",6,"exp",8,4,5,"A",315,204
"2295","noload",6,"exp",8,5,2,"A",1218,395
"2296","noload",6,"exp",8,6,9,"B",1452,400
"2297","noload",6,"exp",8,7,7,"B",423,254
"2298","noload",6,"exp",8,8,10,"B",414,307
"2299","noload",6,"exp",8,9,8,"A",427,307
"2300","noload",6,"exp",8,10,4,"A",599,222
"2301","noload",6,"exp",9,1,3,"B",464,285
"2302","noload",6,"exp",9,2,9,"B",362,324
"2303","noload",6,"exp",9,3,2,"A",316,238
"2304","noload",6,"exp",9,4,1,"A",263,1181
"2305","noload",6,"exp",9,5,4,"A",1631,631
"2306","noload",6,"exp",9,6,6,"B",760,402
"2307","noload",6,"exp",9,7,7,"B",423,301
"2308","noload",6,"exp",9,8,8,"A",1263,270
"2309","noload",6,"exp",9,9,5,"A",351,342
"2310","noload",6,"exp",9,10,10,"B",375,277
"2311","noload",6,"exp",10,1,8,"A",427,243
"2312","noload",6,"exp",10,2,2,"A",351,230
"2313","noload",6,"exp",10,3,3,"B",360,371
"2314","noload",6,"exp",10,4,4,"A",429,212
"2315","noload",6,"exp",10,5,1,"A",509,229
"2316","noload",6,"exp",10,6,6,"B",334,227
"2317","noload",6,"exp",10,7,9,"B",396,364
"2318","noload",6,"exp",10,8,7,"B",1672,250
"2319","noload",6,"exp",10,9,10,"B",268,278
