"","cond","subj","block","trial","stim","resp","rt"
"1","neutral",10,1,1,7,"A",3586
"2","neutral",10,1,2,8,"B",1618
"3","neutral",10,1,3,9,"B",1236
"4","neutral",10,1,4,5,"A",898
"5","neutral",10,1,5,10,"B",861
"6","neutral",10,1,6,1,"A",691
"7","neutral",10,1,7,2,"B",647
"8","neutral",10,1,8,3,"A",727
"9","neutral",10,1,9,6,"B",1012
"10","neutral",10,1,10,4,"A",763
"11","neutral",10,2,1,9,"B",1283
"12","neutral",10,2,2,7,"A",684
"13","neutral",10,2,3,10,"B",603
"14","neutral",10,2,4,6,"B",765
"15","neutral",10,2,5,1,"A",483
"16","neutral",10,2,6,3,"A",763
"17","neutral",10,2,7,5,"A",722
"18","neutral",10,2,8,4,"A",687
"19","neutral",10,2,9,2,"B",526
"20","neutral",10,2,10,8,"B",653
"21","neutral",10,3,1,5,"A",724
"22","neutral",10,3,2,8,"B",570
"23","neutral",10,3,3,1,"A",450
"24","neutral",10,3,4,4,"A",575
"25","neutral",10,3,5,2,"B",482
"26","neutral",10,3,6,10,"B",763
"27","neutral",10,3,7,9,"B",680
"28","neutral",10,3,8,6,"B",730
"29","neutral",10,3,9,3,"A",604
"30","neutral",10,3,10,7,"A",1004
"31","neutral",10,4,1,2,"B",807
"32","neutral",10,4,2,4,"A",531
"33","neutral",10,4,3,1,"A",564
"34","neutral",10,4,4,5,"A",604
"35","neutral",10,4,5,8,"B",488
"36","neutral",10,4,6,6,"B",448
"37","neutral",10,4,7,7,"A",564
"38","neutral",10,4,8,10,"B",484
"39","neutral",10,4,9,3,"A",485
"40","neutral",10,4,10,9,"B",698
"41","neutral",10,5,1,3,"A",689
"42","neutral",10,5,2,1,"A",612
"43","neutral",10,5,3,10,"B",522
"44","neutral",10,5,4,2,"B",527
"45","neutral",10,5,5,4,"A",563
"46","neutral",10,5,6,6,"B",482
"47","neutral",10,5,7,8,"B",484
"48","neutral",10,5,8,7,"A",525
"49","neutral",10,5,9,5,"A",579
"50","neutral",10,5,10,9,"B",605
"51","neutral",10,6,1,10,"B",801
"52","neutral",10,6,2,8,"B",564
"53","neutral",10,6,3,6,"B",484
"54","neutral",10,6,4,3,"A",486
"55","neutral",10,6,5,4,"A",527
"56","neutral",10,6,6,7,"A",453
"57","neutral",10,6,7,5,"A",372
"58","neutral",10,6,8,9,"B",462
"59","neutral",10,6,9,1,"A",369
"60","neutral",10,6,10,2,"B",488
"61","neutral",10,7,1,3,"A",688
"62","neutral",10,7,2,5,"A",530
"63","neutral",10,7,3,10,"B",406
"64","neutral",10,7,4,1,"A",528
"65","neutral",10,7,5,8,"A",364
"66","neutral",10,7,6,4,"A",525
"67","neutral",10,7,7,2,"B",500
"68","neutral",10,7,8,6,"B",651
"69","neutral",10,7,9,7,"A",526
"70","neutral",10,7,10,9,"B",583
"71","neutral",10,8,1,10,"B",1119
"72","neutral",10,8,2,2,"B",523
"73","neutral",10,8,3,8,"B",502
"74","neutral",10,8,4,7,"A",499
"75","neutral",10,8,5,1,"A",459
"76","neutral",10,8,6,5,"A",483
"77","neutral",10,8,7,3,"A",485
"78","neutral",10,8,8,9,"B",447
"79","neutral",10,8,9,4,"A",521
"80","neutral",10,8,10,6,"B",421
"81","neutral",11,1,1,9,"B",7381
"82","neutral",11,1,2,2,"A",8586
"83","neutral",11,1,3,10,"B",2749
"84","neutral",11,1,4,1,"A",1440
"85","neutral",11,1,5,3,"B",3886
"86","neutral",11,1,6,5,"A",1654
"87","neutral",11,1,7,4,"A",2214
"88","neutral",11,1,8,6,"B",1473
"89","neutral",11,1,9,8,"A",10881
"90","neutral",11,1,10,7,"B",1851
"91","neutral",11,2,1,7,"B",4129
"92","neutral",11,2,2,4,"A",2511
"93","neutral",11,2,3,1,"A",1159
"94","neutral",11,2,4,6,"B",1282
"95","neutral",11,2,5,2,"A",837
"96","neutral",11,2,6,10,"B",1831
"97","neutral",11,2,7,3,"A",1677
"98","neutral",11,2,8,5,"A",1201
"99","neutral",11,2,9,8,"A",1236
"100","neutral",11,2,10,9,"B",2464
"101","neutral",11,3,1,6,"B",2067
"102","neutral",11,3,2,1,"A",1599
"103","neutral",11,3,3,4,"A",1273
"104","neutral",11,3,4,5,"A",682
"105","neutral",11,3,5,10,"B",2741
"106","neutral",11,3,6,3,"A",10836
"107","neutral",11,3,7,9,"B",2983
"108","neutral",11,3,8,7,"B",2628
"109","neutral",11,3,9,2,"A",1157
"110","neutral",11,3,10,8,"B",7266
"111","neutral",11,4,1,6,"B",2823
"112","neutral",11,4,2,4,"A",1948
"113","neutral",11,4,3,8,"B",5640
"114","neutral",11,4,4,5,"A",3821
"115","neutral",11,4,5,7,"B",2509
"116","neutral",11,4,6,10,"B",6469
"117","neutral",11,4,7,1,"A",1874
"118","neutral",11,4,8,9,"B",1635
"119","neutral",11,4,9,3,"A",4206
"120","neutral",11,4,10,2,"A",1594
"121","neutral",11,5,1,4,"A",12381
"122","neutral",11,5,2,5,"A",1636
"123","neutral",11,5,3,10,"B",3813
"124","neutral",11,5,4,8,"B",1865
"125","neutral",11,5,5,2,"A",2511
"126","neutral",11,5,6,7,"B",2387
"127","neutral",11,5,7,1,"A",1363
"128","neutral",11,5,8,6,"B",1787
"129","neutral",11,5,9,9,"B",967
"130","neutral",11,5,10,3,"A",2665
"131","neutral",11,6,1,5,"A",3584
"132","neutral",11,6,2,10,"B",1754
"133","neutral",11,6,3,9,"B",917
"134","neutral",11,6,4,7,"B",2264
"135","neutral",11,6,5,6,"B",2031
"136","neutral",11,6,6,1,"A",845
"137","neutral",11,6,7,4,"A",927
"138","neutral",11,6,8,3,"A",2116
"139","neutral",11,6,9,8,"B",1761
"140","neutral",11,6,10,2,"A",1558
"141","neutral",11,7,1,3,"A",3736
"142","neutral",11,7,2,6,"B",1160
"143","neutral",11,7,3,4,"A",886
"144","neutral",11,7,4,8,"B",1357
"145","neutral",11,7,5,1,"A",1714
"146","neutral",11,7,6,10,"B",1519
"147","neutral",11,7,7,5,"A",1158
"148","neutral",11,7,8,7,"B",3298
"149","neutral",11,7,9,9,"B",1040
"150","neutral",11,7,10,2,"A",842
"151","neutral",11,8,1,2,"A",1597
"152","neutral",11,8,2,1,"A",726
"153","neutral",11,8,3,5,"A",1152
"154","neutral",11,8,4,7,"B",1128
"155","neutral",11,8,5,10,"B",8103
"156","neutral",11,8,6,8,"B",6350
"157","neutral",11,8,7,9,"B",1081
"158","neutral",11,8,8,6,"B",796
"159","neutral",11,8,9,4,"A",1282
"160","neutral",11,8,10,3,"A",2344
"161","neutral",12,1,1,9,"B",32513
"162","neutral",12,1,2,5,"A",14395
"163","neutral",12,1,3,6,"B",4371
"164","neutral",12,1,4,1,"A",2944
"165","neutral",12,1,5,10,"B",5327
"166","neutral",12,1,6,7,"B",7036
"167","neutral",12,1,7,3,"B",2749
"168","neutral",12,1,8,4,"A",4249
"169","neutral",12,1,9,8,"A",13364
"170","neutral",12,1,10,2,"A",1827
"171","neutral",12,2,1,5,"A",5042
"172","neutral",12,2,2,6,"B",6509
"173","neutral",12,2,3,8,"A",2313
"174","neutral",12,2,4,10,"B",1281
"175","neutral",12,2,5,2,"A",1907
"176","neutral",12,2,6,3,"B",1354
"177","neutral",12,2,7,1,"A",1234
"178","neutral",12,2,8,7,"B",1034
"179","neutral",12,2,9,9,"B",1759
"180","neutral",12,2,10,4,"A",1013
"181","neutral",12,3,1,10,"B",5045
"182","neutral",12,3,2,9,"B",1320
"183","neutral",12,3,3,7,"B",2227
"184","neutral",12,3,4,8,"A",1950
"185","neutral",12,3,5,4,"A",807
"186","neutral",12,3,6,1,"A",605
"187","neutral",12,3,7,3,"B",607
"188","neutral",12,3,8,2,"A",646
"189","neutral",12,3,9,5,"A",680
"190","neutral",12,3,10,6,"B",688
"191","neutral",12,4,1,8,"A",2266
"192","neutral",12,4,2,10,"B",527
"193","neutral",12,4,3,9,"B",492
"194","neutral",12,4,4,6,"B",610
"195","neutral",12,4,5,7,"B",519
"196","neutral",12,4,6,1,"A",721
"197","neutral",12,4,7,4,"A",1357
"198","neutral",12,4,8,2,"A",684
"199","neutral",12,4,9,3,"B",601
"200","neutral",12,4,10,5,"A",879
"201","neutral",12,5,1,2,"A",1397
"202","neutral",12,5,2,3,"B",1648
"203","neutral",12,5,3,5,"A",995
"204","neutral",12,5,4,10,"B",687
"205","neutral",12,5,5,4,"A",607
"206","neutral",12,5,6,9,"B",605
"207","neutral",12,5,7,1,"A",805
"208","neutral",12,5,8,8,"A",693
"209","neutral",12,5,9,7,"B",678
"210","neutral",12,5,10,6,"B",699
"211","neutral",12,6,1,2,"A",1358
"212","neutral",12,6,2,1,"A",645
"213","neutral",12,6,3,4,"A",518
"214","neutral",12,6,4,6,"B",561
"215","neutral",12,6,5,3,"B",649
"216","neutral",12,6,6,5,"A",602
"217","neutral",12,6,7,10,"B",961
"218","neutral",12,6,8,8,"A",964
"219","neutral",12,6,9,7,"B",599
"220","neutral",12,6,10,9,"B",798
"221","neutral",12,7,1,9,"B",6705
"222","neutral",12,7,2,10,"B",605
"223","neutral",12,7,3,7,"B",684
"224","neutral",12,7,4,1,"A",1436
"225","neutral",12,7,5,6,"B",689
"226","neutral",12,7,6,3,"B",551
"227","neutral",12,7,7,5,"A",550
"228","neutral",12,7,8,8,"A",767
"229","neutral",12,7,9,4,"A",525
"230","neutral",12,7,10,2,"A",726
"231","neutral",12,8,1,6,"B",1001
"232","neutral",12,8,2,9,"B",760
"233","neutral",12,8,3,3,"B",569
"234","neutral",12,8,4,7,"B",525
"235","neutral",12,8,5,5,"A",608
"236","neutral",12,8,6,4,"A",608
"237","neutral",12,8,7,2,"A",649
"238","neutral",12,8,8,10,"B",642
"239","neutral",12,8,9,1,"A",647
"240","neutral",12,8,10,8,"A",728
"241","neutral",13,1,1,10,"B",4089
"242","neutral",13,1,2,1,"A",5008
"243","neutral",13,1,3,3,"A",2379
"244","neutral",13,1,4,5,"B",4874
"245","neutral",13,1,5,9,"B",2216
"246","neutral",13,1,6,6,"B",2419
"247","neutral",13,1,7,8,"B",7006
"248","neutral",13,1,8,2,"A",3735
"249","neutral",13,1,9,4,"A",3528
"250","neutral",13,1,10,7,"B",2779
"251","neutral",13,2,1,6,"B",8808
"252","neutral",13,2,2,8,"B",2067
"253","neutral",13,2,3,3,"A",3340
"254","neutral",13,2,4,7,"B",2789
"255","neutral",13,2,5,9,"B",1946
"256","neutral",13,2,6,5,"A",6191
"257","neutral",13,2,7,4,"A",3304
"258","neutral",13,2,8,1,"A",1557
"259","neutral",13,2,9,10,"B",3655
"260","neutral",13,2,10,2,"A",1081
"261","neutral",13,3,1,9,"B",5080
"262","neutral",13,3,2,5,"A",5875
"263","neutral",13,3,3,3,"B",2065
"264","neutral",13,3,4,1,"A",2190
"265","neutral",13,3,5,8,"A",1839
"266","neutral",13,3,6,6,"B",1394
"267","neutral",13,3,7,7,"B",1280
"268","neutral",13,3,8,10,"B",1124
"269","neutral",13,3,9,2,"A",844
"270","neutral",13,3,10,4,"A",1639
"271","neutral",13,4,1,4,"A",3504
"272","neutral",13,4,2,9,"B",2230
"273","neutral",13,4,3,7,"B",1558
"274","neutral",13,4,4,1,"A",3139
"275","neutral",13,4,5,6,"B",1361
"276","neutral",13,4,6,10,"B",5491
"277","neutral",13,4,7,8,"B",5163
"278","neutral",13,4,8,2,"A",1279
"279","neutral",13,4,9,3,"A",1084
"280","neutral",13,4,10,5,"A",2979
"281","neutral",13,5,1,7,"B",6150
"282","neutral",13,5,2,9,"B",2914
"283","neutral",13,5,3,8,"B",2389
"284","neutral",13,5,4,5,"A",4880
"285","neutral",13,5,5,6,"B",2825
"286","neutral",13,5,6,4,"A",1738
"287","neutral",13,5,7,10,"B",2111
"288","neutral",13,5,8,2,"A",1754
"289","neutral",13,5,9,3,"A",2383
"290","neutral",13,5,10,1,"A",1160
"291","neutral",13,6,1,8,"B",7696
"292","neutral",13,6,2,5,"A",2629
"293","neutral",13,6,3,4,"A",1594
"294","neutral",13,6,4,2,"A",1992
"295","neutral",13,6,5,6,"B",1356
"296","neutral",13,6,6,7,"B",1514
"297","neutral",13,6,7,9,"B",1994
"298","neutral",13,6,8,10,"A",4687
"299","neutral",13,6,9,3,"A",1908
"300","neutral",13,6,10,1,"A",840
"301","neutral",13,7,1,6,"B",6425
"302","neutral",13,7,2,5,"A",2271
"303","neutral",13,7,3,3,"B",3452
"304","neutral",13,7,4,1,"A",1206
"305","neutral",13,7,5,7,"B",1360
"306","neutral",13,7,6,9,"B",884
"307","neutral",13,7,7,10,"B",681
"308","neutral",13,7,8,2,"A",996
"309","neutral",13,7,9,4,"A",735
"310","neutral",13,7,10,8,"A",1201
"311","neutral",13,8,1,5,"A",8215
"312","neutral",13,8,2,3,"A",2390
"313","neutral",13,8,3,6,"B",1671
"314","neutral",13,8,4,10,"A",4483
"315","neutral",13,8,5,2,"A",649
"316","neutral",13,8,6,1,"A",1237
"317","neutral",13,8,7,8,"A",2582
"318","neutral",13,8,8,7,"B",1081
"319","neutral",13,8,9,9,"B",796
"320","neutral",13,8,10,4,"A",1003
"321","neutral",14,1,1,3,"A",10345
"322","neutral",14,1,2,7,"A",6299
"323","neutral",14,1,3,6,"B",2812
"324","neutral",14,1,4,9,"B",4079
"325","neutral",14,1,5,10,"B",2222
"326","neutral",14,1,6,5,"A",1924
"327","neutral",14,1,7,2,"B",6264
"328","neutral",14,1,8,4,"A",5111
"329","neutral",14,1,9,8,"B",5773
"330","neutral",14,1,10,1,"A",5042
"331","neutral",14,2,1,3,"A",3730
"332","neutral",14,2,2,4,"A",1271
"333","neutral",14,2,3,9,"B",2780
"334","neutral",14,2,4,5,"A",3692
"335","neutral",14,2,5,1,"A",2519
"336","neutral",14,2,6,8,"B",4323
"337","neutral",14,2,7,10,"B",1910
"338","neutral",14,2,8,6,"B",4881
"339","neutral",14,2,9,2,"B",5243
"340","neutral",14,2,10,7,"A",2348
"341","neutral",14,3,1,6,"B",3215
"342","neutral",14,3,2,4,"A",6346
"343","neutral",14,3,3,10,"B",2464
"344","neutral",14,3,4,9,"B",2624
"345","neutral",14,3,5,8,"B",10900
"346","neutral",14,3,6,3,"A",7267
"347","neutral",14,3,7,2,"A",8514
"348","neutral",14,3,8,5,"A",3376
"349","neutral",14,3,9,1,"A",4173
"350","neutral",14,3,10,7,"B",4261
"351","neutral",14,4,1,4,"A",11180
"352","neutral",14,4,2,10,"B",5003
"353","neutral",14,4,3,1,"A",3770
"354","neutral",14,4,4,5,"A",4802
"355","neutral",14,4,5,2,"A",8443
"356","neutral",14,4,6,9,"B",4286
"357","neutral",14,4,7,8,"B",5159
"358","neutral",14,4,8,6,"B",4365
"359","neutral",14,4,9,3,"A",7474
"360","neutral",14,4,10,7,"B",4612
"361","neutral",14,5,1,6,"B",7939
"362","neutral",14,5,2,10,"B",2346
"363","neutral",14,5,3,4,"A",2862
"364","neutral",14,5,4,9,"B",4802
"365","neutral",14,5,5,1,"A",6184
"366","neutral",14,5,6,8,"B",3536
"367","neutral",14,5,7,3,"A",8094
"368","neutral",14,5,8,5,"A",4845
"369","neutral",14,5,9,7,"B",8093
"370","neutral",14,5,10,2,"A",4102
"371","neutral",14,6,1,2,"A",12805
"372","neutral",14,6,2,8,"B",5161
"373","neutral",14,6,3,7,"B",3893
"374","neutral",14,6,4,4,"A",4135
"375","neutral",14,6,5,5,"A",6862
"376","neutral",14,6,6,3,"A",17886
"377","neutral",14,6,7,6,"B",5671
"378","neutral",14,6,8,9,"B",7422
"379","neutral",14,6,9,1,"A",10114
"380","neutral",14,6,10,10,"B",3452
"381","neutral",14,7,1,6,"B",7019
"382","neutral",14,7,2,9,"B",3058
"383","neutral",14,7,3,3,"A",3471
"384","neutral",14,7,4,8,"B",2844
"385","neutral",14,7,5,2,"A",2688
"386","neutral",14,7,6,5,"A",3377
"387","neutral",14,7,7,4,"A",2858
"388","neutral",14,7,8,10,"B",4215
"389","neutral",14,7,9,1,"A",2223
"390","neutral",14,7,10,7,"B",4601
"391","neutral",14,8,1,5,"A",6546
"392","neutral",14,8,2,2,"A",3413
"393","neutral",14,8,3,8,"B",40274
"394","neutral",14,8,4,1,"A",4733
"395","neutral",14,8,5,4,"A",6851
"396","neutral",14,8,6,9,"B",4877
"397","neutral",14,8,7,7,"B",4724
"398","neutral",14,8,8,3,"A",2861
"399","neutral",14,8,9,10,"B",4207
"400","neutral",14,8,10,6,"B",4963
"401","neutral",15,1,1,6,"B",8771
"402","neutral",15,1,2,3,"B",1946
"403","neutral",15,1,3,10,"B",1554
"404","neutral",15,1,4,9,"B",1710
"405","neutral",15,1,5,5,"A",3218
"406","neutral",15,1,6,4,"A",2031
"407","neutral",15,1,7,7,"B",13565
"408","neutral",15,1,8,1,"A",1788
"409","neutral",15,1,9,2,"B",956
"410","neutral",15,1,10,8,"B",1040
"411","neutral",15,2,1,10,"B",87394
"412","neutral",15,2,2,9,"B",2432
"413","neutral",15,2,3,3,"A",1716
"414","neutral",15,2,4,8,"A",1669
"415","neutral",15,2,5,4,"A",766
"416","neutral",15,2,6,2,"A",723
"417","neutral",15,2,7,7,"B",720
"418","neutral",15,2,8,5,"B",801
"419","neutral",15,2,9,1,"A",722
"420","neutral",15,2,10,6,"B",484
"421","neutral",15,3,1,2,"A",1361
"422","neutral",15,3,2,3,"B",451
"423","neutral",15,3,3,8,"A",612
"424","neutral",15,3,4,1,"A",521
"425","neutral",15,3,5,10,"A",643
"426","neutral",15,3,6,6,"B",528
"427","neutral",15,3,7,7,"B",439
"428","neutral",15,3,8,5,"A",447
"429","neutral",15,3,9,9,"B",482
"430","neutral",15,3,10,4,"A",493
"431","neutral",15,4,1,2,"A",1362
"432","neutral",15,4,2,7,"A",610
"433","neutral",15,4,3,10,"A",489
"434","neutral",15,4,4,6,"B",526
"435","neutral",15,4,5,4,"A",529
"436","neutral",15,4,6,8,"A",444
"437","neutral",15,4,7,3,"A",530
"438","neutral",15,4,8,5,"A",490
"439","neutral",15,4,9,9,"B",451
"440","neutral",15,4,10,1,"A",405
"441","neutral",15,5,1,6,"B",1040
"442","neutral",15,5,2,8,"A",446
"443","neutral",15,5,3,10,"B",520
"444","neutral",15,5,4,1,"A",682
"445","neutral",15,5,5,4,"A",522
"446","neutral",15,5,6,9,"B",446
"447","neutral",15,5,7,2,"A",481
"448","neutral",15,5,8,3,"B",836
"449","neutral",15,5,9,5,"A",524
"450","neutral",15,5,10,7,"B",695
"451","neutral",15,6,1,9,"B",882
"452","neutral",15,6,2,6,"B",561
"453","neutral",15,6,3,5,"A",530
"454","neutral",15,6,4,7,"A",917
"455","neutral",15,6,5,1,"A",680
"456","neutral",15,6,6,2,"A",558
"457","neutral",15,6,7,8,"A",485
"458","neutral",15,6,8,10,"B",444
"459","neutral",15,6,9,3,"B",609
"460","neutral",15,6,10,4,"A",479
"461","neutral",15,7,1,9,"B",995
"462","neutral",15,7,2,10,"A",450
"463","neutral",15,7,3,5,"A",564
"464","neutral",15,7,4,2,"A",638
"465","neutral",15,7,5,6,"B",405
"466","neutral",15,7,6,4,"B",607
"467","neutral",15,7,7,1,"A",567
"468","neutral",15,7,8,7,"B",403
"469","neutral",15,7,9,8,"A",524
"470","neutral",15,7,10,3,"B",450
"471","neutral",15,8,1,5,"A",924
"472","neutral",15,8,2,8,"A",688
"473","neutral",15,8,3,3,"B",1834
"474","neutral",15,8,4,7,"B",2528
"475","neutral",15,8,5,6,"B",791
"476","neutral",15,8,6,1,"A",644
"477","neutral",15,8,7,2,"A",767
"478","neutral",15,8,8,4,"B",846
"479","neutral",15,8,9,9,"B",672
"480","neutral",15,8,10,10,"B",1088
"481","neutral",16,1,1,8,"B",6196
"482","neutral",16,1,2,7,"A",6353
"483","neutral",16,1,3,6,"B",5006
"484","neutral",16,1,4,1,"A",2150
"485","neutral",16,1,5,2,"B",6878
"486","neutral",16,1,6,4,"A",1548
"487","neutral",16,1,7,10,"B",1399
"488","neutral",16,1,8,5,"A",1090
"489","neutral",16,1,9,3,"A",871
"490","neutral",16,1,10,9,"B",1036
"491","neutral",16,2,1,8,"B",5715
"492","neutral",16,2,2,7,"A",4213
"493","neutral",16,2,3,1,"A",967
"494","neutral",16,2,4,9,"B",1198
"495","neutral",16,2,5,6,"B",2632
"496","neutral",16,2,6,10,"B",4533
"497","neutral",16,2,7,4,"A",879
"498","neutral",16,2,8,5,"A",846
"499","neutral",16,2,9,2,"B",1007
"500","neutral",16,2,10,3,"A",1360
"501","neutral",16,3,1,4,"B",3511
"502","neutral",16,3,2,6,"B",1353
"503","neutral",16,3,3,8,"B",2108
"504","neutral",16,3,4,9,"A",799
"505","neutral",16,3,5,7,"B",799
"506","neutral",16,3,6,5,"A",759
"507","neutral",16,3,7,3,"A",923
"508","neutral",16,3,8,1,"A",1043
"509","neutral",16,3,9,10,"B",964
"510","neutral",16,3,10,2,"A",998
"511","neutral",16,4,1,9,"B",7033
"512","neutral",16,4,2,2,"A",1952
"513","neutral",16,4,3,7,"B",1273
"514","neutral",16,4,4,10,"A",1038
"515","neutral",16,4,5,4,"A",882
"516","neutral",16,4,6,8,"B",877
"517","neutral",16,4,7,3,"A",817
"518","neutral",16,4,8,6,"B",884
"519","neutral",16,4,9,5,"B",998
"520","neutral",16,4,10,1,"A",801
"521","neutral",16,5,1,7,"B",5800
"522","neutral",16,5,2,10,"B",4583
"523","neutral",16,5,3,8,"B",2479
"524","neutral",16,5,4,1,"A",1797
"525","neutral",16,5,5,5,"A",2433
"526","neutral",16,5,6,9,"B",3542
"527","neutral",16,5,7,6,"B",3345
"528","neutral",16,5,8,2,"A",3815
"529","neutral",16,5,9,3,"A",1393
"530","neutral",16,5,10,4,"A",3785
"531","neutral",16,6,1,7,"B",5672
"532","neutral",16,6,2,1,"A",1801
"533","neutral",16,6,3,6,"B",1802
"534","neutral",16,6,4,2,"A",1500
"535","neutral",16,6,5,10,"B",5007
"536","neutral",16,6,6,5,"A",3261
"537","neutral",16,6,7,3,"A",1633
"538","neutral",16,6,8,4,"A",2906
"539","neutral",16,6,9,8,"B",1867
"540","neutral",16,6,10,9,"B",2671
"541","neutral",16,7,1,2,"A",4168
"542","neutral",16,7,2,8,"B",2503
"543","neutral",16,7,3,3,"A",1293
"544","neutral",16,7,4,1,"A",1165
"545","neutral",16,7,5,10,"B",1988
"546","neutral",16,7,6,4,"A",3257
"547","neutral",16,7,7,5,"B",3344
"548","neutral",16,7,8,6,"B",2028
"549","neutral",16,7,9,9,"B",3340
"550","neutral",16,7,10,7,"B",1599
"551","neutral",16,8,1,8,"B",2906
"552","neutral",16,8,2,4,"A",2820
"553","neutral",16,8,3,6,"B",2036
"554","neutral",16,8,4,9,"B",2661
"555","neutral",16,8,5,1,"A",1792
"556","neutral",16,8,6,10,"B",2227
"557","neutral",16,8,7,2,"A",3062
"558","neutral",16,8,8,5,"A",2030
"559","neutral",16,8,9,7,"B",2390
"560","neutral",16,8,10,3,"A",1417
"561","neutral",17,1,1,10,"B",8098
"562","neutral",17,1,2,1,"A",25633
"563","neutral",17,1,3,4,"A",23205
"564","neutral",17,1,4,3,"A",10560
"565","neutral",17,1,5,9,"B",16106
"566","neutral",17,1,6,5,"A",15399
"567","neutral",17,1,7,6,"B",11111
"568","neutral",17,1,8,7,"B",9860
"569","neutral",17,1,9,2,"A",18808
"570","neutral",17,1,10,8,"B",17337
"571","neutral",17,2,1,3,"A",18530
"572","neutral",17,2,2,6,"B",6397
"573","neutral",17,2,3,1,"A",5325
"574","neutral",17,2,4,9,"B",10796
"575","neutral",17,2,5,10,"B",16939
"576","neutral",17,2,6,7,"B",11247
"577","neutral",17,2,7,5,"A",11480
"578","neutral",17,2,8,8,"B",10356
"579","neutral",17,2,9,4,"A",5406
"580","neutral",17,2,10,2,"A",5646
"581","neutral",17,3,1,2,"A",5285
"582","neutral",17,3,2,1,"A",8173
"583","neutral",17,3,3,5,"A",9923
"584","neutral",17,3,4,4,"A",7987
"585","neutral",17,3,5,6,"B",6117
"586","neutral",17,3,6,9,"B",3979
"587","neutral",17,3,7,10,"B",24078
"588","neutral",17,3,8,8,"B",17187
"589","neutral",17,3,9,7,"B",6122
"590","neutral",17,3,10,3,"A",8651
"591","neutral",17,4,1,8,"B",11191
"592","neutral",17,4,2,10,"B",18810
"593","neutral",17,4,3,2,"A",8022
"594","neutral",17,4,4,3,"A",9054
"595","neutral",17,4,5,5,"A",7977
"596","neutral",17,4,6,7,"B",9172
"597","neutral",17,4,7,1,"A",4448
"598","neutral",17,4,8,6,"B",5238
"599","neutral",17,4,9,9,"B",4685
"600","neutral",17,4,10,4,"A",7897
"601","neutral",17,5,1,1,"A",4612
"602","neutral",17,5,2,4,"A",3624
"603","neutral",17,5,3,9,"B",5648
"604","neutral",17,5,4,2,"A",4178
"605","neutral",17,5,5,3,"A",6629
"606","neutral",17,5,6,6,"B",5687
"607","neutral",17,5,7,7,"B",7660
"608","neutral",17,5,8,8,"B",7392
"609","neutral",17,5,9,10,"B",5170
"610","neutral",17,5,10,5,"A",6869
"611","neutral",17,6,1,10,"B",4253
"612","neutral",17,6,2,8,"B",5362
"613","neutral",17,6,3,9,"B",3247
"614","neutral",17,6,4,2,"A",3960
"615","neutral",17,6,5,4,"A",4968
"616","neutral",17,6,6,1,"A",5003
"617","neutral",17,6,7,7,"B",4685
"618","neutral",17,6,8,6,"B",5004
"619","neutral",17,6,9,5,"A",4964
"620","neutral",17,6,10,3,"A",8827
"621","neutral",17,7,1,5,"A",4214
"622","neutral",17,7,2,3,"A",6826
"623","neutral",17,7,3,9,"B",3039
"624","neutral",17,7,4,7,"B",5916
"625","neutral",17,7,5,8,"B",6397
"626","neutral",17,7,6,6,"B",2865
"627","neutral",17,7,7,4,"A",5564
"628","neutral",17,7,8,1,"A",2075
"629","neutral",17,7,9,2,"A",3182
"630","neutral",17,7,10,10,"B",13851
"631","neutral",17,8,1,2,"A",3031
"632","neutral",17,8,2,9,"B",2948
"633","neutral",17,8,3,3,"A",6316
"634","neutral",17,8,4,4,"A",4374
"635","neutral",17,8,5,10,"B",9135
"636","neutral",17,8,6,7,"B",6470
"637","neutral",17,8,7,6,"B",3463
"638","neutral",17,8,8,1,"A",3220
"639","neutral",17,8,9,8,"B",6079
"640","neutral",17,8,10,5,"A",16469
"641","neutral",4,1,1,4,"A",3426
"642","neutral",4,1,2,3,"A",4612
"643","neutral",4,1,3,10,"B",1681
"644","neutral",4,1,4,1,"A",1396
"645","neutral",4,1,5,5,"A",1047
"646","neutral",4,1,6,2,"B",1396
"647","neutral",4,1,7,6,"B",1125
"648","neutral",4,1,8,9,"B",1058
"649","neutral",4,1,9,8,"B",970
"650","neutral",4,1,10,7,"A",1045
"651","neutral",4,2,1,2,"B",1204
"652","neutral",4,2,2,1,"A",723
"653","neutral",4,2,3,8,"B",847
"654","neutral",4,2,4,7,"A",602
"655","neutral",4,2,5,9,"B",684
"656","neutral",4,2,6,4,"A",645
"657","neutral",4,2,7,5,"A",691
"658","neutral",4,2,8,10,"B",731
"659","neutral",4,2,9,3,"A",724
"660","neutral",4,2,10,6,"B",670
"661","neutral",4,3,1,8,"B",1131
"662","neutral",4,3,2,6,"B",761
"663","neutral",4,3,3,9,"B",693
"664","neutral",4,3,4,3,"A",679
"665","neutral",4,3,5,10,"B",691
"666","neutral",4,3,6,1,"A",1166
"667","neutral",4,3,7,7,"A",684
"668","neutral",4,3,8,4,"A",644
"669","neutral",4,3,9,5,"A",639
"670","neutral",4,3,10,2,"B",687
"671","neutral",4,4,1,10,"B",928
"672","neutral",4,4,2,4,"A",1197
"673","neutral",4,4,3,2,"B",769
"674","neutral",4,4,4,9,"B",648
"675","neutral",4,4,5,6,"B",761
"676","neutral",4,4,6,1,"A",735
"677","neutral",4,4,7,7,"A",773
"678","neutral",4,4,8,8,"B",811
"679","neutral",4,4,9,3,"A",760
"680","neutral",4,4,10,5,"A",689
"681","neutral",4,5,1,1,"A",841
"682","neutral",4,5,2,5,"A",728
"683","neutral",4,5,3,10,"B",443
"684","neutral",4,5,4,8,"A",411
"685","neutral",4,5,5,9,"B",1475
"686","neutral",4,5,6,2,"B",846
"687","neutral",4,5,7,3,"A",800
"688","neutral",4,5,8,4,"A",563
"689","neutral",4,5,9,6,"B",603
"690","neutral",4,5,10,7,"A",804
"691","neutral",4,6,1,6,"B",731
"692","neutral",4,6,2,5,"A",564
"693","neutral",4,6,3,9,"B",682
"694","neutral",4,6,4,2,"B",484
"695","neutral",4,6,5,1,"A",566
"696","neutral",4,6,6,3,"A",485
"697","neutral",4,6,7,8,"B",567
"698","neutral",4,6,8,10,"B",525
"699","neutral",4,6,9,4,"A",492
"700","neutral",4,6,10,7,"A",520
"701","neutral",4,7,1,1,"A",643
"702","neutral",4,7,2,4,"B",453
"703","neutral",4,7,3,9,"B",568
"704","neutral",4,7,4,2,"B",578
"705","neutral",4,7,5,10,"B",566
"706","neutral",4,7,6,6,"B",605
"707","neutral",4,7,7,3,"A",568
"708","neutral",4,7,8,8,"B",509
"709","neutral",4,7,9,5,"A",478
"710","neutral",4,7,10,7,"A",570
"711","neutral",4,8,1,8,"B",1919
"712","neutral",4,8,2,3,"A",483
"713","neutral",4,8,3,9,"B",406
"714","neutral",4,8,4,6,"B",610
"715","neutral",4,8,5,10,"B",522
"716","neutral",4,8,6,7,"A",488
"717","neutral",4,8,7,1,"A",419
"718","neutral",4,8,8,4,"A",413
"719","neutral",4,8,9,5,"A",445
"720","neutral",4,8,10,2,"A",484
"721","neutral",5,1,1,1,"A",3787
"722","neutral",5,1,2,5,"A",1327
"723","neutral",5,1,3,7,"A",929
"724","neutral",5,1,4,9,"B",959
"725","neutral",5,1,5,8,"B",888
"726","neutral",5,1,6,10,"B",858
"727","neutral",5,1,7,6,"B",681
"728","neutral",5,1,8,4,"A",800
"729","neutral",5,1,9,3,"A",1118
"730","neutral",5,1,10,2,"B",1079
"731","neutral",5,2,1,7,"A",2275
"732","neutral",5,2,2,2,"B",607
"733","neutral",5,2,3,9,"B",1604
"734","neutral",5,2,4,8,"B",962
"735","neutral",5,2,5,6,"B",810
"736","neutral",5,2,6,3,"A",801
"737","neutral",5,2,7,5,"A",643
"738","neutral",5,2,8,1,"A",611
"739","neutral",5,2,9,4,"A",959
"740","neutral",5,2,10,10,"B",967
"741","neutral",5,3,1,4,"A",2550
"742","neutral",5,3,2,2,"A",650
"743","neutral",5,3,3,3,"A",606
"744","neutral",5,3,4,9,"B",928
"745","neutral",5,3,5,6,"B",2150
"746","neutral",5,3,6,5,"A",650
"747","neutral",5,3,7,10,"B",803
"748","neutral",5,3,8,7,"A",817
"749","neutral",5,3,9,8,"B",796
"750","neutral",5,3,10,1,"A",768
"751","neutral",5,4,1,1,"A",930
"752","neutral",5,4,2,4,"A",682
"753","neutral",5,4,3,10,"B",721
"754","neutral",5,4,4,5,"A",578
"755","neutral",5,4,5,3,"A",610
"756","neutral",5,4,6,7,"A",755
"757","neutral",5,4,7,2,"A",486
"758","neutral",5,4,8,9,"B",845
"759","neutral",5,4,9,6,"B",692
"760","neutral",5,4,10,8,"B",919
"761","neutral",5,5,1,4,"A",689
"762","neutral",5,5,2,8,"A",570
"763","neutral",5,5,3,5,"A",1046
"764","neutral",5,5,4,7,"B",1277
"765","neutral",5,5,5,10,"B",1019
"766","neutral",5,5,6,9,"B",1166
"767","neutral",5,5,7,3,"A",763
"768","neutral",5,5,8,6,"B",772
"769","neutral",5,5,9,2,"B",1087
"770","neutral",5,5,10,1,"A",1004
"771","neutral",5,6,1,1,"A",839
"772","neutral",5,6,2,5,"A",647
"773","neutral",5,6,3,9,"B",1208
"774","neutral",5,6,4,4,"A",1287
"775","neutral",5,6,5,10,"B",1401
"776","neutral",5,6,6,8,"B",962
"777","neutral",5,6,7,2,"B",1207
"778","neutral",5,6,8,3,"A",888
"779","neutral",5,6,9,7,"A",1243
"780","neutral",5,6,10,6,"B",1088
"781","neutral",5,7,1,2,"B",1366
"782","neutral",5,7,2,5,"A",763
"783","neutral",5,7,3,4,"A",760
"784","neutral",5,7,4,10,"B",730
"785","neutral",5,7,5,8,"B",684
"786","neutral",5,7,6,6,"B",539
"787","neutral",5,7,7,7,"A",1817
"788","neutral",5,7,8,1,"A",1045
"789","neutral",5,7,9,3,"A",720
"790","neutral",5,7,10,9,"A",566
"791","neutral",5,8,1,4,"A",880
"792","neutral",5,8,2,2,"B",959
"793","neutral",5,8,3,8,"B",766
"794","neutral",5,8,4,1,"A",764
"795","neutral",5,8,5,10,"B",1080
"796","neutral",5,8,6,7,"A",898
"797","neutral",5,8,7,3,"A",956
"798","neutral",5,8,8,9,"B",1441
"799","neutral",5,8,9,5,"A",1044
"800","neutral",5,8,10,6,"B",1486
"801","neutral",6,1,1,6,"B",96593
"802","neutral",6,1,2,8,"B",2354
"803","neutral",6,1,3,4,"A",2524
"804","neutral",6,1,4,5,"A",1647
"805","neutral",6,1,5,9,"B",1401
"806","neutral",6,1,6,2,"B",1374
"807","neutral",6,1,7,7,"A",1064
"808","neutral",6,1,8,1,"A",1445
"809","neutral",6,1,9,10,"B",1848
"810","neutral",6,1,10,3,"A",1442
"811","neutral",6,2,1,7,"A",3461
"812","neutral",6,2,2,5,"A",1558
"813","neutral",6,2,3,2,"B",7359
"814","neutral",6,2,4,10,"B",2392
"815","neutral",6,2,5,6,"B",4814
"816","neutral",6,2,6,3,"A",1634
"817","neutral",6,2,7,4,"A",3303
"818","neutral",6,2,8,8,"B",3628
"819","neutral",6,2,9,9,"B",2085
"820","neutral",6,2,10,1,"A",1559
"821","neutral",6,3,1,9,"B",3503
"822","neutral",6,3,2,5,"A",1957
"823","neutral",6,3,3,4,"A",1919
"824","neutral",6,3,4,8,"B",1794
"825","neutral",6,3,5,1,"A",1364
"826","neutral",6,3,6,2,"A",5527
"827","neutral",6,3,7,10,"A",2911
"828","neutral",6,3,8,3,"A",1480
"829","neutral",6,3,9,7,"B",1538
"830","neutral",6,3,10,6,"B",3351
"831","neutral",6,4,1,4,"A",3827
"832","neutral",6,4,2,8,"B",2552
"833","neutral",6,4,3,1,"A",993
"834","neutral",6,4,4,7,"B",1060
"835","neutral",6,4,5,9,"B",3119
"836","neutral",6,4,6,10,"B",2589
"837","neutral",6,4,7,6,"B",1515
"838","neutral",6,4,8,5,"A",3153
"839","neutral",6,4,9,3,"A",6283
"840","neutral",6,4,10,2,"A",2962
"841","neutral",6,5,1,5,"A",9780
"842","neutral",6,5,2,9,"B",1843
"843","neutral",6,5,3,2,"A",1921
"844","neutral",6,5,4,3,"A",3284
"845","neutral",6,5,5,8,"B",2572
"846","neutral",6,5,6,6,"B",2525
"847","neutral",6,5,7,7,"B",2794
"848","neutral",6,5,8,1,"A",1600
"849","neutral",6,5,9,10,"B",1755
"850","neutral",6,5,10,4,"A",1558
"851","neutral",6,6,1,10,"B",4537
"852","neutral",6,6,2,4,"A",2317
"853","neutral",6,6,3,2,"A",1673
"854","neutral",6,6,4,6,"B",2075
"855","neutral",6,6,5,5,"A",2434
"856","neutral",6,6,6,8,"B",3471
"857","neutral",6,6,7,9,"B",2322
"858","neutral",6,6,8,3,"A",2831
"859","neutral",6,6,9,1,"A",1641
"860","neutral",6,6,10,7,"B",3588
"861","neutral",6,7,1,8,"B",6957
"862","neutral",6,7,2,10,"B",2867
"863","neutral",6,7,3,6,"B",1959
"864","neutral",6,7,4,2,"A",2357
"865","neutral",6,7,5,5,"A",9660
"866","neutral",6,7,6,4,"A",3944
"867","neutral",6,7,7,7,"B",2631
"868","neutral",6,7,8,3,"A",5375
"869","neutral",6,7,9,1,"A",2205
"870","neutral",6,7,10,9,"B",2156
"871","neutral",6,8,1,1,"A",4796
"872","neutral",6,8,2,7,"B",3214
"873","neutral",6,8,3,8,"B",2391
"874","neutral",6,8,4,6,"B",1795
"875","neutral",6,8,5,10,"B",2874
"876","neutral",6,8,6,2,"A",3227
"877","neutral",6,8,7,5,"A",4138
"878","neutral",6,8,8,4,"A",5667
"879","neutral",6,8,9,9,"B",4406
"880","neutral",6,8,10,3,"A",11850
"881","neutral",7,1,1,1,"A",7993
"882","neutral",7,1,2,2,"A",10057
"883","neutral",7,1,3,6,"B",1437
"884","neutral",7,1,4,8,"B",1174
"885","neutral",7,1,5,7,"B",3445
"886","neutral",7,1,6,4,"B",1670
"887","neutral",7,1,7,9,"A",2350
"888","neutral",7,1,8,3,"A",1708
"889","neutral",7,1,9,10,"B",1784
"890","neutral",7,1,10,5,"A",3320
"891","neutral",7,2,1,7,"B",3743
"892","neutral",7,2,2,10,"B",2066
"893","neutral",7,2,3,6,"B",1679
"894","neutral",7,2,4,4,"B",3979
"895","neutral",7,2,5,5,"A",1155
"896","neutral",7,2,6,2,"A",720
"897","neutral",7,2,7,3,"A",842
"898","neutral",7,2,8,9,"A",736
"899","neutral",7,2,9,8,"B",1400
"900","neutral",7,2,10,1,"A",3456
"901","neutral",7,3,1,2,"A",1191
"902","neutral",7,3,2,9,"A",922
"903","neutral",7,3,3,7,"B",1199
"904","neutral",7,3,4,8,"B",1115
"905","neutral",7,3,5,10,"B",887
"906","neutral",7,3,6,5,"A",737
"907","neutral",7,3,7,1,"A",686
"908","neutral",7,3,8,3,"A",526
"909","neutral",7,3,9,6,"B",727
"910","neutral",7,3,10,4,"B",661
"911","neutral",7,4,1,7,"B",2316
"912","neutral",7,4,2,9,"A",740
"913","neutral",7,4,3,5,"A",679
"914","neutral",7,4,4,10,"B",648
"915","neutral",7,4,5,4,"B",722
"916","neutral",7,4,6,3,"A",644
"917","neutral",7,4,7,8,"B",808
"918","neutral",7,4,8,2,"A",1641
"919","neutral",7,4,9,6,"B",2073
"920","neutral",7,4,10,1,"A",1009
"921","neutral",7,5,1,7,"B",1043
"922","neutral",7,5,2,8,"B",1044
"923","neutral",7,5,3,4,"B",809
"924","neutral",7,5,4,10,"B",659
"925","neutral",7,5,5,2,"A",761
"926","neutral",7,5,6,9,"A",925
"927","neutral",7,5,7,5,"A",649
"928","neutral",7,5,8,1,"A",920
"929","neutral",7,5,9,3,"A",683
"930","neutral",7,5,10,6,"B",799
"931","neutral",7,6,1,1,"A",832
"932","neutral",7,6,2,4,"B",1005
"933","neutral",7,6,3,6,"B",1519
"934","neutral",7,6,4,7,"B",1949
"935","neutral",7,6,5,9,"A",967
"936","neutral",7,6,6,3,"A",642
"937","neutral",7,6,7,5,"A",726
"938","neutral",7,6,8,2,"A",650
"939","neutral",7,6,9,10,"B",1159
"940","neutral",7,6,10,8,"B",1003
"941","neutral",7,7,1,1,"A",1591
"942","neutral",7,7,2,10,"B",841
"943","neutral",7,7,3,6,"B",726
"944","neutral",7,7,4,7,"B",620
"945","neutral",7,7,5,5,"A",776
"946","neutral",7,7,6,8,"B",759
"947","neutral",7,7,7,4,"B",885
"948","neutral",7,7,8,9,"A",762
"949","neutral",7,7,9,2,"A",809
"950","neutral",7,7,10,3,"A",768
"951","neutral",7,8,1,9,"A",962
"952","neutral",7,8,2,2,"A",1165
"953","neutral",7,8,3,5,"A",2305
"954","neutral",7,8,4,3,"A",3028
"955","neutral",7,8,5,8,"B",2159
"956","neutral",7,8,6,7,"B",1638
"957","neutral",7,8,7,6,"B",2306
"958","neutral",7,8,8,4,"B",1592
"959","neutral",7,8,9,1,"A",1199
"960","neutral",7,8,10,10,"B",681
"961","neutral",8,1,1,4,"A",11353
"962","neutral",8,1,2,3,"B",7396
"963","neutral",8,1,3,10,"B",3738
"964","neutral",8,1,4,5,"A",3463
"965","neutral",8,1,5,9,"B",3154
"966","neutral",8,1,6,6,"B",1432
"967","neutral",8,1,7,1,"A",1126
"968","neutral",8,1,8,7,"B",4935
"969","neutral",8,1,9,8,"A",1197
"970","neutral",8,1,10,2,"A",1522
"971","neutral",8,2,1,3,"B",3853
"972","neutral",8,2,2,2,"A",764
"973","neutral",8,2,3,5,"A",602
"974","neutral",8,2,4,7,"B",642
"975","neutral",8,2,5,4,"A",648
"976","neutral",8,2,6,8,"A",644
"977","neutral",8,2,7,9,"B",650
"978","neutral",8,2,8,6,"B",644
"979","neutral",8,2,9,10,"B",649
"980","neutral",8,2,10,1,"A",644
"981","neutral",8,3,1,3,"B",721
"982","neutral",8,3,2,4,"A",884
"983","neutral",8,3,3,5,"A",484
"984","neutral",8,3,4,2,"A",534
"985","neutral",8,3,5,6,"B",684
"986","neutral",8,3,6,10,"B",565
"987","neutral",8,3,7,9,"B",563
"988","neutral",8,3,8,1,"A",689
"989","neutral",8,3,9,8,"A",728
"990","neutral",8,3,10,7,"B",638
"991","neutral",8,4,1,5,"A",922
"992","neutral",8,4,2,1,"A",565
"993","neutral",8,4,3,2,"A",960
"994","neutral",8,4,4,6,"B",729
"995","neutral",8,4,5,9,"B",570
"996","neutral",8,4,6,3,"B",728
"997","neutral",8,4,7,7,"B",602
"998","neutral",8,4,8,4,"A",2070
"999","neutral",8,4,9,8,"A",639
"1000","neutral",8,4,10,10,"B",844
"1001","neutral",8,5,1,4,"A",1358
"1002","neutral",8,5,2,10,"B",2790
"1003","neutral",8,5,3,7,"B",798
"1004","neutral",8,5,4,2,"A",998
"1005","neutral",8,5,5,9,"B",968
"1006","neutral",8,5,6,5,"A",804
"1007","neutral",8,5,7,8,"A",803
"1008","neutral",8,5,8,3,"B",685
"1009","neutral",8,5,9,1,"A",803
"1010","neutral",8,5,10,6,"B",644
"1011","neutral",8,6,1,9,"B",995
"1012","neutral",8,6,2,5,"A",729
"1013","neutral",8,6,3,3,"B",722
"1014","neutral",8,6,4,6,"B",604
"1015","neutral",8,6,5,1,"A",686
"1016","neutral",8,6,6,8,"A",568
"1017","neutral",8,6,7,4,"A",603
"1018","neutral",8,6,8,2,"A",803
"1019","neutral",8,6,9,10,"B",764
"1020","neutral",8,6,10,7,"B",760
"1021","neutral",8,7,1,6,"B",1007
"1022","neutral",8,7,2,5,"A",688
"1023","neutral",8,7,3,7,"B",807
"1024","neutral",8,7,4,10,"B",698
"1025","neutral",8,7,5,9,"B",607
"1026","neutral",8,7,6,8,"A",727
"1027","neutral",8,7,7,4,"A",611
"1028","neutral",8,7,8,2,"A",563
"1029","neutral",8,7,9,3,"B",757
"1030","neutral",8,7,10,1,"A",686
"1031","neutral",8,8,1,10,"B",881
"1032","neutral",8,8,2,7,"B",998
"1033","neutral",8,8,3,6,"B",690
"1034","neutral",8,8,4,3,"B",609
"1035","neutral",8,8,5,8,"A",917
"1036","neutral",8,8,6,5,"A",601
"1037","neutral",8,8,7,1,"A",722
"1038","neutral",8,8,8,4,"A",1648
"1039","neutral",8,8,9,2,"A",840
"1040","neutral",8,8,10,9,"B",726
"1041","neutral",9,1,1,7,"B",10096
"1042","neutral",9,1,2,4,"A",5260
"1043","neutral",9,1,3,10,"B",7953
"1044","neutral",9,1,4,6,"B",4578
"1045","neutral",9,1,5,3,"A",15097
"1046","neutral",9,1,6,1,"A",1954
"1047","neutral",9,1,7,8,"B",5482
"1048","neutral",9,1,8,5,"A",8350
"1049","neutral",9,1,9,9,"B",3980
"1050","neutral",9,1,10,2,"A",9291
"1051","neutral",9,2,1,8,"B",8741
"1052","neutral",9,2,2,9,"B",3427
"1053","neutral",9,2,3,10,"B",2666
"1054","neutral",9,2,4,6,"B",2672
"1055","neutral",9,2,5,2,"A",3589
"1056","neutral",9,2,6,3,"A",3142
"1057","neutral",9,2,7,1,"A",1594
"1058","neutral",9,2,8,5,"A",3265
"1059","neutral",9,2,9,4,"A",2275
"1060","neutral",9,2,10,7,"B",2034
"1061","neutral",9,3,1,9,"B",17436
"1062","neutral",9,3,2,2,"A",2239
"1063","neutral",9,3,3,8,"B",6837
"1064","neutral",9,3,4,7,"B",3069
"1065","neutral",9,3,5,1,"A",1526
"1066","neutral",9,3,6,4,"A",2156
"1067","neutral",9,3,7,5,"A",2709
"1068","neutral",9,3,8,6,"B",2907
"1069","neutral",9,3,9,3,"A",7825
"1070","neutral",9,3,10,10,"B",5135
"1071","neutral",9,4,1,7,"B",15655
"1072","neutral",9,4,2,10,"B",5093
"1073","neutral",9,4,3,9,"B",2357
"1074","neutral",9,4,4,6,"B",2074
"1075","neutral",9,4,5,5,"A",5298
"1076","neutral",9,4,6,4,"A",1358
"1077","neutral",9,4,7,8,"B",5103
"1078","neutral",9,4,8,3,"A",5252
"1079","neutral",9,4,9,2,"A",7272
"1080","neutral",9,4,10,1,"A",1800
"1081","neutral",9,5,1,6,"B",2508
"1082","neutral",9,5,2,7,"B",2865
"1083","neutral",9,5,3,5,"A",3229
"1084","neutral",9,5,4,1,"A",1160
"1085","neutral",9,5,5,8,"B",10972
"1086","neutral",9,5,6,2,"A",2119
"1087","neutral",9,5,7,10,"B",1317
"1088","neutral",9,5,8,3,"A",6040
"1089","neutral",9,5,9,9,"B",2030
"1090","neutral",9,5,10,4,"A",1443
"1091","neutral",9,6,1,8,"B",18712
"1092","neutral",9,6,2,2,"A",1876
"1093","neutral",9,6,3,1,"A",1043
"1094","neutral",9,6,4,7,"B",3509
"1095","neutral",9,6,5,10,"B",801
"1096","neutral",9,6,6,4,"A",1240
"1097","neutral",9,6,7,3,"A",2749
"1098","neutral",9,6,8,6,"B",1243
"1099","neutral",9,6,9,9,"B",1682
"1100","neutral",9,6,10,5,"A",4650
"1101","neutral",9,7,1,5,"A",13344
"1102","neutral",9,7,2,3,"A",1798
"1103","neutral",9,7,3,6,"B",1682
"1104","neutral",9,7,4,9,"B",2111
"1105","neutral",9,7,5,10,"B",2671
"1106","neutral",9,7,6,8,"B",2717
"1107","neutral",9,7,7,2,"A",1803
"1108","neutral",9,7,8,7,"B",4376
"1109","neutral",9,7,9,1,"A",1166
"1110","neutral",9,7,10,4,"A",1319
"1111","neutral",9,8,1,1,"A",7713
"1112","neutral",9,8,2,3,"A",1556
"1113","neutral",9,8,3,8,"B",1796
"1114","neutral",9,8,4,6,"B",1006
"1115","neutral",9,8,5,10,"B",1761
"1116","neutral",9,8,6,4,"A",5769
"1117","neutral",9,8,7,5,"A",3142
"1118","neutral",9,8,8,7,"B",3739
"1119","neutral",9,8,9,9,"B",7675
"1120","neutral",9,8,10,2,"A",3421
"1121","meticulous",1001,1,1,2,"B",10960
"1122","meticulous",1001,1,2,9,"B",4754
"1123","meticulous",1001,1,3,5,"A",7507
"1124","meticulous",1001,1,4,1,"A",1577
"1125","meticulous",1001,1,5,8,"B",1300
"1126","meticulous",1001,1,6,3,"A",1329
"1127","meticulous",1001,1,7,4,"A",3677
"1128","meticulous",1001,1,8,6,"B",1733
"1129","meticulous",1001,1,9,7,"A",2005
"1130","meticulous",1001,1,10,10,"B",1209
"1131","meticulous",1001,2,1,1,"A",3251
"1132","meticulous",1001,2,2,5,"A",3488
"1133","meticulous",1001,2,3,9,"B",2372
"1134","meticulous",1001,2,4,6,"B",1856
"1135","meticulous",1001,2,5,10,"B",3134
"1136","meticulous",1001,2,6,7,"B",3171
"1137","meticulous",1001,2,7,8,"B",4688
"1138","meticulous",1001,2,8,3,"B",4087
"1139","meticulous",1001,2,9,2,"A",4207
"1140","meticulous",1001,2,10,4,"A",2372
"1141","meticulous",1001,3,1,2,"A",5724
"1142","meticulous",1001,3,2,4,"A",10500
"1143","meticulous",1001,3,3,9,"B",3281
"1144","meticulous",1001,3,4,7,"B",6129
"1145","meticulous",1001,3,5,10,"B",2974
"1146","meticulous",1001,3,6,8,"B",4144
"1147","meticulous",1001,3,7,1,"A",6321
"1148","meticulous",1001,3,8,3,"A",3406
"1149","meticulous",1001,3,9,6,"B",4128
"1150","meticulous",1001,3,10,5,"A",8846
"1151","meticulous",1001,4,1,1,"A",1731
"1152","meticulous",1001,4,2,4,"A",1978
"1153","meticulous",1001,4,3,6,"B",1184
"1154","meticulous",1001,4,4,7,"B",6607
"1155","meticulous",1001,4,5,10,"B",3262
"1156","meticulous",1001,4,6,9,"B",1040
"1157","meticulous",1001,4,7,5,"A",1097
"1158","meticulous",1001,4,8,3,"A",5965
"1159","meticulous",1001,4,9,8,"B",10083
"1160","meticulous",1001,4,10,2,"A",3211
"1161","meticulous",1001,5,1,3,"A",2969
"1162","meticulous",1001,5,2,4,"A",2222
"1163","meticulous",1001,5,3,5,"A",1141
"1164","meticulous",1001,5,4,7,"B",2887
"1165","meticulous",1001,5,5,8,"B",3170
"1166","meticulous",1001,5,6,10,"B",3570
"1167","meticulous",1001,5,7,9,"B",1894
"1168","meticulous",1001,5,8,2,"A",2088
"1169","meticulous",1001,5,9,6,"B",4649
"1170","meticulous",1001,5,10,1,"A",2406
"1171","meticulous",1001,6,1,8,"B",6082
"1172","meticulous",1001,6,2,9,"B",341
"1173","meticulous",1001,6,3,4,"A",4805
"1174","meticulous",1001,6,4,1,"A",1091
"1175","meticulous",1001,6,5,7,"B",2138
"1176","meticulous",1001,6,6,10,"B",1978
"1177","meticulous",1001,6,7,6,"B",2887
"1178","meticulous",1001,6,8,5,"A",2892
"1179","meticulous",1001,6,9,3,"A",4134
"1180","meticulous",1001,6,10,2,"B",2330
"1181","meticulous",1001,7,1,8,"B",28764
"1182","meticulous",1001,7,2,3,"A",3735
"1183","meticulous",1001,7,3,1,"A",2135
"1184","meticulous",1001,7,4,4,"A",3419
"1185","meticulous",1001,7,5,10,"B",1828
"1186","meticulous",1001,7,6,2,"A",2928
"1187","meticulous",1001,7,7,5,"A",4693
"1188","meticulous",1001,7,8,6,"B",4494
"1189","meticulous",1001,7,9,7,"B",2618
"1190","meticulous",1001,7,10,9,"B",2731
"1191","meticulous",1001,8,1,4,"A",3012
"1192","meticulous",1001,8,2,7,"B",2806
"1193","meticulous",1001,8,3,3,"A",4011
"1194","meticulous",1001,8,4,2,"A",2697
"1195","meticulous",1001,8,5,1,"A",2529
"1196","meticulous",1001,8,6,5,"A",3048
"1197","meticulous",1001,8,7,9,"B",3926
"1198","meticulous",1001,8,8,6,"B",1856
"1199","meticulous",1001,8,9,8,"B",2497
"1200","meticulous",1001,8,10,10,"B",2531
"1201","meticulous",1010,1,1,6,"B",76081
"1202","meticulous",1010,1,2,7,"B",20096
"1203","meticulous",1010,1,3,2,"A",11174
"1204","meticulous",1010,1,4,4,"A",12096
"1205","meticulous",1010,1,5,3,"A",12171
"1206","meticulous",1010,1,6,9,"B",20050
"1207","meticulous",1010,1,7,1,"A",14734
"1208","meticulous",1010,1,8,8,"B",15128
"1209","meticulous",1010,1,9,10,"B",31446
"1210","meticulous",1010,1,10,5,"A",12012
"1211","meticulous",1010,2,1,9,"B",77727
"1212","meticulous",1010,2,2,7,"B",36641
"1213","meticulous",1010,2,3,6,"B",7657
"1214","meticulous",1010,2,4,4,"A",7535
"1215","meticulous",1010,2,5,1,"A",4652
"1216","meticulous",1010,2,6,5,"A",7451
"1217","meticulous",1010,2,7,10,"B",4540
"1218","meticulous",1010,2,8,8,"B",10417
"1219","meticulous",1010,2,9,3,"A",11703
"1220","meticulous",1010,2,10,2,"A",8648
"1221","meticulous",1010,3,1,2,"A",9094
"1222","meticulous",1010,3,2,9,"B",7533
"1223","meticulous",1010,3,3,4,"A",7177
"1224","meticulous",1010,3,4,8,"B",6859
"1225","meticulous",1010,3,5,7,"B",8896
"1226","meticulous",1010,3,6,6,"B",6136
"1227","meticulous",1010,3,7,5,"A",16886
"1228","meticulous",1010,3,8,1,"A",6253
"1229","meticulous",1010,3,9,3,"A",10289
"1230","meticulous",1010,3,10,10,"B",4912
"1231","meticulous",1010,4,1,8,"B",15209
"1232","meticulous",1010,4,2,1,"A",6098
"1233","meticulous",1010,4,3,4,"A",5691
"1234","meticulous",1010,4,4,10,"B",4496
"1235","meticulous",1010,4,5,6,"B",6581
"1236","meticulous",1010,4,6,9,"B",3411
"1237","meticulous",1010,4,7,7,"B",6701
"1238","meticulous",1010,4,8,3,"A",9889
"1239","meticulous",1010,4,9,5,"A",4412
"1240","meticulous",1010,4,10,2,"A",11216
"1241","meticulous",1010,5,1,10,"B",5480
"1242","meticulous",1010,5,2,8,"B",12143
"1243","meticulous",1010,5,3,5,"A",7495
"1244","meticulous",1010,5,4,6,"B",3259
"1245","meticulous",1010,5,5,4,"A",3490
"1246","meticulous",1010,5,6,9,"B",3857
"1247","meticulous",1010,5,7,3,"A",6299
"1248","meticulous",1010,5,8,2,"A",8578
"1249","meticulous",1010,5,9,1,"A",3059
"1250","meticulous",1010,5,10,7,"B",13324
"1251","meticulous",1010,6,1,3,"A",11517
"1252","meticulous",1010,6,2,5,"B",13047
"1253","meticulous",1010,6,3,6,"B",7652
"1254","meticulous",1010,6,4,4,"A",4251
"1255","meticulous",1010,6,5,10,"B",3933
"1256","meticulous",1010,6,6,8,"B",13247
"1257","meticulous",1010,6,7,1,"A",5013
"1258","meticulous",1010,6,8,9,"B",8698
"1259","meticulous",1010,6,9,2,"A",11257
"1260","meticulous",1010,6,10,7,"B",5171
"1261","meticulous",1010,7,1,4,"A",5419
"1262","meticulous",1010,7,2,6,"B",2105
"1263","meticulous",1010,7,3,1,"A",1652
"1264","meticulous",1010,7,4,10,"B",1339
"1265","meticulous",1010,7,5,9,"B",1943
"1266","meticulous",1010,7,6,7,"B",1933
"1267","meticulous",1010,7,7,3,"B",1777
"1268","meticulous",1010,7,8,5,"A",2533
"1269","meticulous",1010,7,9,8,"A",2976
"1270","meticulous",1010,7,10,2,"A",2221
"1271","meticulous",1010,8,1,1,"A",2941
"1272","meticulous",1010,8,2,5,"A",3862
"1273","meticulous",1010,8,3,7,"B",5943
"1274","meticulous",1010,8,4,2,"A",2662
"1275","meticulous",1010,8,5,8,"B",9130
"1276","meticulous",1010,8,6,3,"A",6466
"1277","meticulous",1010,8,7,4,"A",9570
"1278","meticulous",1010,8,8,9,"B",2611
"1279","meticulous",1010,8,9,10,"B",7739
"1280","meticulous",1010,8,10,6,"B",3816
"1281","meticulous",1011,1,1,10,"B",13766
"1282","meticulous",1011,1,2,7,"A",2334
"1283","meticulous",1011,1,3,5,"A",2895
"1284","meticulous",1011,1,4,8,"B",7651
"1285","meticulous",1011,1,5,9,"B",5152
"1286","meticulous",1011,1,6,4,"A",3099
"1287","meticulous",1011,1,7,6,"B",2975
"1288","meticulous",1011,1,8,2,"A",6020
"1289","meticulous",1011,1,9,1,"A",5254
"1290","meticulous",1011,1,10,3,"A",4496
"1291","meticulous",1011,2,1,2,"A",5812
"1292","meticulous",1011,2,2,10,"B",4349
"1293","meticulous",1011,2,3,9,"B",3976
"1294","meticulous",1011,2,4,6,"B",2663
"1295","meticulous",1011,2,5,3,"A",3255
"1296","meticulous",1011,2,6,4,"A",3137
"1297","meticulous",1011,2,7,5,"A",5898
"1298","meticulous",1011,2,8,7,"B",5570
"1299","meticulous",1011,2,9,8,"B",12021
"1300","meticulous",1011,2,10,1,"A",3291
"1301","meticulous",1011,3,1,3,"A",12332
"1302","meticulous",1011,3,2,4,"A",4937
"1303","meticulous",1011,3,3,9,"B",3264
"1304","meticulous",1011,3,4,2,"A",4495
"1305","meticulous",1011,3,5,1,"A",3742
"1306","meticulous",1011,3,6,7,"B",3064
"1307","meticulous",1011,3,7,10,"B",2694
"1308","meticulous",1011,3,8,6,"B",3011
"1309","meticulous",1011,3,9,8,"B",5943
"1310","meticulous",1011,3,10,5,"A",10177
"1311","meticulous",1011,4,1,1,"A",4378
"1312","meticulous",1011,4,2,7,"B",3384
"1313","meticulous",1011,4,3,5,"A",2945
"1314","meticulous",1011,4,4,4,"A",2274
"1315","meticulous",1011,4,5,8,"B",5973
"1316","meticulous",1011,4,6,3,"A",11460
"1317","meticulous",1011,4,7,2,"A",3734
"1318","meticulous",1011,4,8,10,"B",5094
"1319","meticulous",1011,4,9,6,"B",3181
"1320","meticulous",1011,4,10,9,"B",2776
"1321","meticulous",1011,5,1,10,"B",3022
"1322","meticulous",1011,5,2,6,"B",3180
"1323","meticulous",1011,5,3,8,"B",3575
"1324","meticulous",1011,5,4,3,"A",5387
"1325","meticulous",1011,5,5,9,"B",2830
"1326","meticulous",1011,5,6,2,"A",3818
"1327","meticulous",1011,5,7,5,"A",6934
"1328","meticulous",1011,5,8,4,"A",3011
"1329","meticulous",1011,5,9,1,"A",2262
"1330","meticulous",1011,5,10,7,"B",2816
"1331","meticulous",1011,6,1,1,"A",2178
"1332","meticulous",1011,6,2,10,"B",2975
"1333","meticulous",1011,6,3,9,"B",3180
"1334","meticulous",1011,6,4,5,"A",2216
"1335","meticulous",1011,6,5,2,"A",4574
"1336","meticulous",1011,6,6,4,"A",1908
"1337","meticulous",1011,6,7,3,"A",4173
"1338","meticulous",1011,6,8,7,"B",2937
"1339","meticulous",1011,6,9,8,"B",2658
"1340","meticulous",1011,6,10,6,"B",2332
"1341","meticulous",1011,7,1,7,"B",2421
"1342","meticulous",1011,7,2,10,"B",2461
"1343","meticulous",1011,7,3,8,"B",2772
"1344","meticulous",1011,7,4,3,"A",1979
"1345","meticulous",1011,7,5,9,"B",2336
"1346","meticulous",1011,7,6,1,"A",3098
"1347","meticulous",1011,7,7,5,"A",4932
"1348","meticulous",1011,7,8,6,"B",3132
"1349","meticulous",1011,7,9,4,"A",2092
"1350","meticulous",1011,7,10,2,"A",2582
"1351","meticulous",1011,8,1,1,"A",2301
"1352","meticulous",1011,8,2,7,"B",2059
"1353","meticulous",1011,8,3,6,"B",1853
"1354","meticulous",1011,8,4,3,"A",2267
"1355","meticulous",1011,8,5,2,"A",2578
"1356","meticulous",1011,8,6,9,"B",1774
"1357","meticulous",1011,8,7,10,"B",2142
"1358","meticulous",1011,8,8,5,"A",3341
"1359","meticulous",1011,8,9,4,"A",2252
"1360","meticulous",1011,8,10,8,"B",4457
"1361","meticulous",1012,1,1,8,"B",7454
"1362","meticulous",1012,1,2,6,"B",5209
"1363","meticulous",1012,1,3,10,"B",4977
"1364","meticulous",1012,1,4,9,"B",4019
"1365","meticulous",1012,1,5,1,"A",6135
"1366","meticulous",1012,1,6,2,"B",4134
"1367","meticulous",1012,1,7,4,"A",6493
"1368","meticulous",1012,1,8,5,"A",6215
"1369","meticulous",1012,1,9,7,"B",14685
"1370","meticulous",1012,1,10,3,"A",2774
"1371","meticulous",1012,2,1,5,"A",5704
"1372","meticulous",1012,2,2,7,"B",10133
"1373","meticulous",1012,2,3,8,"B",8260
"1374","meticulous",1012,2,4,4,"A",4537
"1375","meticulous",1012,2,5,9,"B",4734
"1376","meticulous",1012,2,6,10,"B",3413
"1377","meticulous",1012,2,7,6,"B",4531
"1378","meticulous",1012,2,8,1,"A",2411
"1379","meticulous",1012,2,9,3,"A",3609
"1380","meticulous",1012,2,10,2,"A",10855
"1381","meticulous",1012,3,1,9,"B",4853
"1382","meticulous",1012,3,2,6,"B",2255
"1383","meticulous",1012,3,3,7,"B",3020
"1384","meticulous",1012,3,4,10,"B",3339
"1385","meticulous",1012,3,5,8,"B",4099
"1386","meticulous",1012,3,6,4,"A",3295
"1387","meticulous",1012,3,7,1,"A",3572
"1388","meticulous",1012,3,8,3,"A",3217
"1389","meticulous",1012,3,9,5,"A",3854
"1390","meticulous",1012,3,10,2,"A",4576
"1391","meticulous",1012,4,1,6,"B",7774
"1392","meticulous",1012,4,2,1,"A",1575
"1393","meticulous",1012,4,3,2,"A",3292
"1394","meticulous",1012,4,4,10,"B",7379
"1395","meticulous",1012,4,5,9,"B",4099
"1396","meticulous",1012,4,6,7,"B",6052
"1397","meticulous",1012,4,7,4,"A",2695
"1398","meticulous",1012,4,8,3,"A",4608
"1399","meticulous",1012,4,9,5,"A",7175
"1400","meticulous",1012,4,10,8,"B",3696
"1401","meticulous",1012,5,1,6,"B",7538
"1402","meticulous",1012,5,2,3,"A",2473
"1403","meticulous",1012,5,3,5,"A",2476
"1404","meticulous",1012,5,4,10,"B",2417
"1405","meticulous",1012,5,5,9,"B",2736
"1406","meticulous",1012,5,6,1,"A",2219
"1407","meticulous",1012,5,7,8,"B",4026
"1408","meticulous",1012,5,8,4,"A",3253
"1409","meticulous",1012,5,9,2,"A",4694
"1410","meticulous",1012,5,10,7,"B",2701
"1411","meticulous",1012,6,1,5,"A",3655
"1412","meticulous",1012,6,2,4,"A",2786
"1413","meticulous",1012,6,3,3,"A",3461
"1414","meticulous",1012,6,4,10,"B",3572
"1415","meticulous",1012,6,5,7,"B",6016
"1416","meticulous",1012,6,6,1,"A",5849
"1417","meticulous",1012,6,7,9,"B",2666
"1418","meticulous",1012,6,8,6,"B",3577
"1419","meticulous",1012,6,9,8,"B",3969
"1420","meticulous",1012,6,10,2,"A",3693
"1421","meticulous",1012,7,1,5,"A",5734
"1422","meticulous",1012,7,2,7,"B",2494
"1423","meticulous",1012,7,3,6,"B",2652
"1424","meticulous",1012,7,4,3,"A",3695
"1425","meticulous",1012,7,5,4,"A",3531
"1426","meticulous",1012,7,6,10,"B",5810
"1427","meticulous",1012,7,7,8,"B",6696
"1428","meticulous",1012,7,8,9,"B",4860
"1429","meticulous",1012,7,9,1,"A",2360
"1430","meticulous",1012,7,10,2,"A",3121
"1431","meticulous",1012,8,1,8,"B",7454
"1432","meticulous",1012,8,2,10,"B",6533
"1433","meticulous",1012,8,3,7,"B",4169
"1434","meticulous",1012,8,4,2,"A",4414
"1435","meticulous",1012,8,5,5,"A",3891
"1436","meticulous",1012,8,6,9,"B",4217
"1437","meticulous",1012,8,7,1,"A",4934
"1438","meticulous",1012,8,8,3,"A",2654
"1439","meticulous",1012,8,9,6,"B",2700
"1440","meticulous",1012,8,10,4,"A",3321
"1441","meticulous",1013,1,1,7,"A",10564
"1442","meticulous",1013,1,2,2,"B",3692
"1443","meticulous",1013,1,3,8,"B",1902
"1444","meticulous",1013,1,4,3,"A",939
"1445","meticulous",1013,1,5,9,"B",625
"1446","meticulous",1013,1,6,4,"A",1932
"1447","meticulous",1013,1,7,10,"B",855
"1448","meticulous",1013,1,8,5,"A",622
"1449","meticulous",1013,1,9,1,"A",4329
"1450","meticulous",1013,1,10,6,"B",1500
"1451","meticulous",1013,2,1,10,"B",5738
"1452","meticulous",1013,2,2,8,"A",13127
"1453","meticulous",1013,2,3,2,"A",1251
"1454","meticulous",1013,2,4,4,"A",1096
"1455","meticulous",1013,2,5,3,"B",1907
"1456","meticulous",1013,2,6,6,"B",1412
"1457","meticulous",1013,2,7,1,"A",1225
"1458","meticulous",1013,2,8,7,"B",495
"1459","meticulous",1013,2,9,9,"B",694
"1460","meticulous",1013,2,10,5,"A",733
"1461","meticulous",1013,3,1,9,"A",9087
"1462","meticulous",1013,3,2,3,"A",701
"1463","meticulous",1013,3,3,8,"B",1627
"1464","meticulous",1013,3,4,10,"B",770
"1465","meticulous",1013,3,5,7,"B",498
"1466","meticulous",1013,3,6,6,"B",789
"1467","meticulous",1013,3,7,4,"B",495
"1468","meticulous",1013,3,8,5,"A",615
"1469","meticulous",1013,3,9,2,"A",537
"1470","meticulous",1013,3,10,1,"A",460
"1471","meticulous",1013,4,1,8,"B",7575
"1472","meticulous",1013,4,2,2,"B",738
"1473","meticulous",1013,4,3,1,"A",621
"1474","meticulous",1013,4,4,3,"A",822
"1475","meticulous",1013,4,5,4,"A",613
"1476","meticulous",1013,4,6,7,"A",575
"1477","meticulous",1013,4,7,6,"B",533
"1478","meticulous",1013,4,8,9,"B",376
"1479","meticulous",1013,4,9,10,"B",454
"1480","meticulous",1013,4,10,5,"A",901
"1481","meticulous",1013,5,1,5,"A",3820
"1482","meticulous",1013,5,2,7,"B",4895
"1483","meticulous",1013,5,3,10,"B",1942
"1484","meticulous",1013,5,4,1,"A",1494
"1485","meticulous",1013,5,5,2,"A",1611
"1486","meticulous",1013,5,6,4,"A",3289
"1487","meticulous",1013,5,7,9,"B",1256
"1488","meticulous",1013,5,8,8,"B",3500
"1489","meticulous",1013,5,9,3,"A",2336
"1490","meticulous",1013,5,10,6,"B",4817
"1491","meticulous",1013,6,1,10,"B",3860
"1492","meticulous",1013,6,2,7,"B",3769
"1493","meticulous",1013,6,3,6,"B",1614
"1494","meticulous",1013,6,4,4,"A",1694
"1495","meticulous",1013,6,5,1,"A",613
"1496","meticulous",1013,6,6,5,"A",857
"1497","meticulous",1013,6,7,8,"B",2181
"1498","meticulous",1013,6,8,2,"A",4654
"1499","meticulous",1013,6,9,3,"A",3255
"1500","meticulous",1013,6,10,9,"A",1619
"1501","meticulous",1013,7,1,10,"A",5888
"1502","meticulous",1013,7,2,2,"A",544
"1503","meticulous",1013,7,3,9,"B",544
"1504","meticulous",1013,7,4,3,"A",499
"1505","meticulous",1013,7,5,5,"B",497
"1506","meticulous",1013,7,6,6,"B",617
"1507","meticulous",1013,7,7,4,"A",511
"1508","meticulous",1013,7,8,7,"B",537
"1509","meticulous",1013,7,9,1,"A",742
"1510","meticulous",1013,7,10,8,"B",785
"1511","meticulous",1013,8,1,1,"A",4739
"1512","meticulous",1013,8,2,2,"A",4865
"1513","meticulous",1013,8,3,4,"A",1406
"1514","meticulous",1013,8,4,3,"B",5856
"1515","meticulous",1013,8,5,8,"B",978
"1516","meticulous",1013,8,6,5,"A",3092
"1517","meticulous",1013,8,7,7,"B",3618
"1518","meticulous",1013,8,8,10,"A",1178
"1519","meticulous",1013,8,9,6,"B",1094
"1520","meticulous",1013,8,10,9,"B",654
"1521","meticulous",1014,1,1,6,"B",19174
"1522","meticulous",1014,1,2,4,"A",7413
"1523","meticulous",1014,1,3,10,"B",13017
"1524","meticulous",1014,1,4,1,"A",26824
"1525","meticulous",1014,1,5,8,"B",16533
"1526","meticulous",1014,1,6,5,"A",7690
"1527","meticulous",1014,1,7,9,"B",13517
"1528","meticulous",1014,1,8,7,"B",8742
"1529","meticulous",1014,1,9,3,"A",17121
"1530","meticulous",1014,1,10,2,"A",11773
"1531","meticulous",1014,2,1,3,"A",23273
"1532","meticulous",1014,2,2,5,"A",4644
"1533","meticulous",1014,2,3,1,"A",6202
"1534","meticulous",1014,2,4,8,"B",5766
"1535","meticulous",1014,2,5,10,"B",4289
"1536","meticulous",1014,2,6,7,"B",3936
"1537","meticulous",1014,2,7,2,"A",3926
"1538","meticulous",1014,2,8,9,"B",8157
"1539","meticulous",1014,2,9,6,"B",5767
"1540","meticulous",1014,2,10,4,"A",10592
"1541","meticulous",1014,3,1,10,"B",15537
"1542","meticulous",1014,3,2,8,"B",10471
"1543","meticulous",1014,3,3,9,"B",4292
"1544","meticulous",1014,3,4,7,"B",7313
"1545","meticulous",1014,3,5,2,"A",8951
"1546","meticulous",1014,3,6,4,"A",4083
"1547","meticulous",1014,3,7,1,"A",5329
"1548","meticulous",1014,3,8,3,"A",5047
"1549","meticulous",1014,3,9,6,"B",6013
"1550","meticulous",1014,3,10,5,"A",4289
"1551","meticulous",1014,4,1,1,"A",10744
"1552","meticulous",1014,4,2,3,"A",11426
"1553","meticulous",1014,4,3,8,"B",5604
"1554","meticulous",1014,4,4,10,"B",3202
"1555","meticulous",1014,4,5,9,"B",4094
"1556","meticulous",1014,4,6,4,"A",7831
"1557","meticulous",1014,4,7,6,"B",4122
"1558","meticulous",1014,4,8,5,"A",6157
"1559","meticulous",1014,4,9,7,"B",7115
"1560","meticulous",1014,4,10,2,"A",3925
"1561","meticulous",1014,5,1,10,"B",11470
"1562","meticulous",1014,5,2,8,"B",4724
"1563","meticulous",1014,5,3,4,"A",5480
"1564","meticulous",1014,5,4,2,"A",10071
"1565","meticulous",1014,5,5,3,"A",9635
"1566","meticulous",1014,5,6,6,"B",3844
"1567","meticulous",1014,5,7,7,"B",8635
"1568","meticulous",1014,5,8,5,"A",7079
"1569","meticulous",1014,5,9,1,"A",4643
"1570","meticulous",1014,5,10,9,"B",3407
"1571","meticulous",1014,6,1,1,"A",3419
"1572","meticulous",1014,6,2,5,"A",5993
"1573","meticulous",1014,6,3,7,"B",11982
"1574","meticulous",1014,6,4,6,"B",4647
"1575","meticulous",1014,6,5,3,"A",7760
"1576","meticulous",1014,6,6,10,"B",7835
"1577","meticulous",1014,6,7,9,"B",5363
"1578","meticulous",1014,6,8,2,"A",5324
"1579","meticulous",1014,6,9,4,"A",6240
"1580","meticulous",1014,6,10,8,"B",12100
"1581","meticulous",1014,7,1,2,"A",4639
"1582","meticulous",1014,7,2,4,"A",6318
"1583","meticulous",1014,7,3,6,"B",3053
"1584","meticulous",1014,7,4,1,"A",9682
"1585","meticulous",1014,7,5,5,"A",13861
"1586","meticulous",1014,7,6,8,"B",4681
"1587","meticulous",1014,7,7,10,"B",4929
"1588","meticulous",1014,7,8,9,"B",4554
"1589","meticulous",1014,7,9,7,"B",7113
"1590","meticulous",1014,7,10,3,"A",6081
"1591","meticulous",1014,8,1,4,"A",28148
"1592","meticulous",1014,8,2,3,"A",6521
"1593","meticulous",1014,8,3,1,"A",3960
"1594","meticulous",1014,8,4,5,"A",5004
"1595","meticulous",1014,8,5,7,"B",4683
"1596","meticulous",1014,8,6,10,"B",8719
"1597","meticulous",1014,8,7,6,"B",18172
"1598","meticulous",1014,8,8,2,"A",5214
"1599","meticulous",1014,8,9,8,"B",7260
"1600","meticulous",1014,8,10,9,"B",6005
"1601","meticulous",1002,1,1,1,"A",5842
"1602","meticulous",1002,1,2,9,"B",2206
"1603","meticulous",1002,1,3,5,"A",7225
"1604","meticulous",1002,1,4,3,"A",2634
"1605","meticulous",1002,1,5,2,"B",8707
"1606","meticulous",1002,1,6,7,"A",2339
"1607","meticulous",1002,1,7,6,"B",2219
"1608","meticulous",1002,1,8,10,"B",1542
"1609","meticulous",1002,1,9,4,"A",2504
"1610","meticulous",1002,1,10,8,"B",1344
"1611","meticulous",1002,2,1,1,"A",8802
"1612","meticulous",1002,2,2,5,"A",9209
"1613","meticulous",1002,2,3,3,"A",5645
"1614","meticulous",1002,2,4,6,"B",4384
"1615","meticulous",1002,2,5,10,"B",5490
"1616","meticulous",1002,2,6,2,"A",5896
"1617","meticulous",1002,2,7,9,"B",6333
"1618","meticulous",1002,2,8,4,"A",5248
"1619","meticulous",1002,2,9,8,"B",7290
"1620","meticulous",1002,2,10,7,"B",9003
"1621","meticulous",1002,3,1,2,"A",11557
"1622","meticulous",1002,3,2,1,"A",4254
"1623","meticulous",1002,3,3,9,"B",12601
"1624","meticulous",1002,3,4,6,"B",3570
"1625","meticulous",1002,3,5,3,"A",11880
"1626","meticulous",1002,3,6,4,"A",11278
"1627","meticulous",1002,3,7,5,"A",4777
"1628","meticulous",1002,3,8,10,"B",18278
"1629","meticulous",1002,3,9,7,"B",12680
"1630","meticulous",1002,3,10,8,"B",4007
"1631","meticulous",1002,4,1,2,"A",24463
"1632","meticulous",1002,4,2,8,"B",4535
"1633","meticulous",1002,4,3,5,"A",5609
"1634","meticulous",1002,4,4,6,"B",13999
"1635","meticulous",1002,4,5,1,"A",6045
"1636","meticulous",1002,4,6,3,"A",3215
"1637","meticulous",1002,4,7,10,"B",5047
"1638","meticulous",1002,4,8,4,"A",5774
"1639","meticulous",1002,4,9,9,"B",12921
"1640","meticulous",1002,4,10,7,"B",7927
"1641","meticulous",1002,5,1,5,"A",89778
"1642","meticulous",1002,5,2,8,"B",11360
"1643","meticulous",1002,5,3,7,"B",4218
"1644","meticulous",1002,5,4,10,"B",1934
"1645","meticulous",1002,5,5,6,"B",3175
"1646","meticulous",1002,5,6,2,"A",3106
"1647","meticulous",1002,5,7,1,"A",1690
"1648","meticulous",1002,5,8,9,"B",9687
"1649","meticulous",1002,5,9,4,"A",2156
"1650","meticulous",1002,5,10,3,"A",7390
"1651","meticulous",1002,6,1,7,"B",14285
"1652","meticulous",1002,6,2,8,"B",3770
"1653","meticulous",1002,6,3,3,"A",4132
"1654","meticulous",1002,6,4,5,"A",8123
"1655","meticulous",1002,6,5,1,"A",1529
"1656","meticulous",1002,6,6,9,"B",7684
"1657","meticulous",1002,6,7,4,"A",4216
"1658","meticulous",1002,6,8,2,"A",2253
"1659","meticulous",1002,6,9,10,"B",5569
"1660","meticulous",1002,6,10,6,"B",1773
"1661","meticulous",1002,7,1,2,"A",33418
"1662","meticulous",1002,7,2,6,"B",2572
"1663","meticulous",1002,7,3,7,"B",1135
"1664","meticulous",1002,7,4,8,"A",1099
"1665","meticulous",1002,7,5,4,"A",866
"1666","meticulous",1002,7,6,3,"B",821
"1667","meticulous",1002,7,7,9,"B",1064
"1668","meticulous",1002,7,8,1,"A",697
"1669","meticulous",1002,7,9,5,"A",816
"1670","meticulous",1002,7,10,10,"B",738
"1671","meticulous",1002,8,1,2,"A",104685
"1672","meticulous",1002,8,2,1,"A",1373
"1673","meticulous",1002,8,3,6,"B",4378
"1674","meticulous",1002,8,4,4,"A",2021
"1675","meticulous",1002,8,5,3,"A",3576
"1676","meticulous",1002,8,6,9,"B",6616
"1677","meticulous",1002,8,7,8,"B",3128
"1678","meticulous",1002,8,8,5,"A",3220
"1679","meticulous",1002,8,9,10,"B",2456
"1680","meticulous",1002,8,10,7,"B",6094
"1681","meticulous",1003,1,1,10,"B",19925
"1682","meticulous",1003,1,2,4,"A",11073
"1683","meticulous",1003,1,3,1,"A",7770
"1684","meticulous",1003,1,4,7,"B",7325
"1685","meticulous",1003,1,5,8,"A",12359
"1686","meticulous",1003,1,6,5,"A",3579
"1687","meticulous",1003,1,7,9,"B",4687
"1688","meticulous",1003,1,8,2,"A",3771
"1689","meticulous",1003,1,9,6,"B",3733
"1690","meticulous",1003,1,10,3,"B",2104
"1691","meticulous",1003,2,1,10,"B",4731
"1692","meticulous",1003,2,2,7,"B",2991
"1693","meticulous",1003,2,3,4,"A",2015
"1694","meticulous",1003,2,4,3,"B",8444
"1695","meticulous",1003,2,5,9,"B",1546
"1696","meticulous",1003,2,6,2,"A",3175
"1697","meticulous",1003,2,7,6,"B",1420
"1698","meticulous",1003,2,8,1,"A",1541
"1699","meticulous",1003,2,9,8,"A",4648
"1700","meticulous",1003,2,10,5,"A",5467
"1701","meticulous",1003,3,1,1,"A",7607
"1702","meticulous",1003,3,2,4,"A",2570
"1703","meticulous",1003,3,3,6,"B",1697
"1704","meticulous",1003,3,4,10,"B",1665
"1705","meticulous",1003,3,5,9,"B",1647
"1706","meticulous",1003,3,6,5,"A",1583
"1707","meticulous",1003,3,7,3,"B",1579
"1708","meticulous",1003,3,8,8,"A",2133
"1709","meticulous",1003,3,9,7,"B",1417
"1710","meticulous",1003,3,10,2,"A",1895
"1711","meticulous",1003,4,1,8,"B",20641
"1712","meticulous",1003,4,2,9,"B",9961
"1713","meticulous",1003,4,3,6,"B",6287
"1714","meticulous",1003,4,4,7,"B",10414
"1715","meticulous",1003,4,5,3,"A",6040
"1716","meticulous",1003,4,6,2,"A",4369
"1717","meticulous",1003,4,7,4,"A",3852
"1718","meticulous",1003,4,8,1,"A",4411
"1719","meticulous",1003,4,9,5,"A",4815
"1720","meticulous",1003,4,10,10,"B",5967
"1721","meticulous",1003,5,1,1,"A",9374
"1722","meticulous",1003,5,2,6,"B",4849
"1723","meticulous",1003,5,3,10,"B",3409
"1724","meticulous",1003,5,4,2,"A",9132
"1725","meticulous",1003,5,5,3,"A",3097
"1726","meticulous",1003,5,6,9,"B",4728
"1727","meticulous",1003,5,7,5,"A",2780
"1728","meticulous",1003,5,8,8,"B",2052
"1729","meticulous",1003,5,9,4,"A",3415
"1730","meticulous",1003,5,10,7,"B",53877
"1731","meticulous",1003,6,1,6,"B",2815
"1732","meticulous",1003,6,2,7,"B",3451
"1733","meticulous",1003,6,3,8,"B",5170
"1734","meticulous",1003,6,4,3,"A",4651
"1735","meticulous",1003,6,5,2,"A",4969
"1736","meticulous",1003,6,6,4,"A",2453
"1737","meticulous",1003,6,7,9,"B",3974
"1738","meticulous",1003,6,8,5,"A",3017
"1739","meticulous",1003,6,9,10,"B",3175
"1740","meticulous",1003,6,10,1,"A",1580
"1741","meticulous",1003,7,1,3,"A",5606
"1742","meticulous",1003,7,2,8,"B",1974
"1743","meticulous",1003,7,3,5,"A",1461
"1744","meticulous",1003,7,4,1,"A",2213
"1745","meticulous",1003,7,5,2,"B",2174
"1746","meticulous",1003,7,6,7,"A",2020
"1747","meticulous",1003,7,7,4,"A",1699
"1748","meticulous",1003,7,8,6,"B",2496
"1749","meticulous",1003,7,9,10,"B",1852
"1750","meticulous",1003,7,10,9,"B",2067
"1751","meticulous",1003,8,1,3,"A",9815
"1752","meticulous",1003,8,2,7,"B",5702
"1753","meticulous",1003,8,3,6,"B",1218
"1754","meticulous",1003,8,4,9,"B",1538
"1755","meticulous",1003,8,5,2,"A",2819
"1756","meticulous",1003,8,6,1,"A",1498
"1757","meticulous",1003,8,7,10,"B",1734
"1758","meticulous",1003,8,8,5,"A",1667
"1759","meticulous",1003,8,9,8,"B",3699
"1760","meticulous",1003,8,10,4,"A",2254
"1761","meticulous",1004,1,1,8,"B",17202
"1762","meticulous",1004,1,2,7,"A",21272
"1763","meticulous",1004,1,3,6,"B",6653
"1764","meticulous",1004,1,4,1,"A",4569
"1765","meticulous",1004,1,5,3,"A",6250
"1766","meticulous",1004,1,6,2,"A",13778
"1767","meticulous",1004,1,7,5,"A",4012
"1768","meticulous",1004,1,8,10,"B",8774
"1769","meticulous",1004,1,9,4,"A",4010
"1770","meticulous",1004,1,10,9,"B",2779
"1771","meticulous",1004,2,1,7,"B",16320
"1772","meticulous",1004,2,2,2,"A",38935
"1773","meticulous",1004,2,3,10,"B",3857
"1774","meticulous",1004,2,4,3,"A",18282
"1775","meticulous",1004,2,5,9,"B",3538
"1776","meticulous",1004,2,6,6,"B",2498
"1777","meticulous",1004,2,7,1,"A",1454
"1778","meticulous",1004,2,8,8,"B",3777
"1779","meticulous",1004,2,9,4,"A",2221
"1780","meticulous",1004,2,10,5,"A",6017
"1781","meticulous",1004,3,1,1,"A",3939
"1782","meticulous",1004,3,2,5,"A",4417
"1783","meticulous",1004,3,3,9,"B",6010
"1784","meticulous",1004,3,4,8,"B",5374
"1785","meticulous",1004,3,5,2,"A",7213
"1786","meticulous",1004,3,6,10,"B",18003
"1787","meticulous",1004,3,7,6,"B",3740
"1788","meticulous",1004,3,8,4,"A",3420
"1789","meticulous",1004,3,9,3,"A",16533
"1790","meticulous",1004,3,10,7,"B",4544
"1791","meticulous",1004,4,1,6,"B",3492
"1792","meticulous",1004,4,2,9,"B",7454
"1793","meticulous",1004,4,3,10,"B",9566
"1794","meticulous",1004,4,4,5,"A",3456
"1795","meticulous",1004,4,5,8,"B",10571
"1796","meticulous",1004,4,6,7,"B",5618
"1797","meticulous",1004,4,7,1,"A",1855
"1798","meticulous",1004,4,8,2,"A",2960
"1799","meticulous",1004,4,9,4,"A",5991
"1800","meticulous",1004,4,10,3,"A",3629
"1801","meticulous",1004,5,1,9,"B",4772
"1802","meticulous",1004,5,2,8,"B",3735
"1803","meticulous",1004,5,3,4,"A",5212
"1804","meticulous",1004,5,4,6,"B",8774
"1805","meticulous",1004,5,5,1,"A",4092
"1806","meticulous",1004,5,6,3,"A",23359
"1807","meticulous",1004,5,7,7,"B",5308
"1808","meticulous",1004,5,8,5,"A",24440
"1809","meticulous",1004,5,9,2,"A",3936
"1810","meticulous",1004,5,10,10,"B",41460
"1811","meticulous",1004,6,1,5,"A",5258
"1812","meticulous",1004,6,2,1,"A",3267
"1813","meticulous",1004,6,3,3,"A",3778
"1814","meticulous",1004,6,4,7,"B",4448
"1815","meticulous",1004,6,5,10,"B",3741
"1816","meticulous",1004,6,6,8,"B",3420
"1817","meticulous",1004,6,7,2,"A",2977
"1818","meticulous",1004,6,8,4,"A",1983
"1819","meticulous",1004,6,9,9,"B",2097
"1820","meticulous",1004,6,10,6,"B",1415
"1821","meticulous",1004,7,1,1,"A",1264
"1822","meticulous",1004,7,2,4,"A",946
"1823","meticulous",1004,7,3,2,"A",1177
"1824","meticulous",1004,7,4,3,"A",2382
"1825","meticulous",1004,7,5,5,"A",3945
"1826","meticulous",1004,7,6,10,"B",5768
"1827","meticulous",1004,7,7,9,"B",1773
"1828","meticulous",1004,7,8,7,"B",860
"1829","meticulous",1004,7,9,6,"B",935
"1830","meticulous",1004,7,10,8,"B",3018
"1831","meticulous",1004,8,1,3,"A",2379
"1832","meticulous",1004,8,2,7,"B",1812
"1833","meticulous",1004,8,3,6,"B",1055
"1834","meticulous",1004,8,4,10,"B",4959
"1835","meticulous",1004,8,5,8,"B",1643
"1836","meticulous",1004,8,6,1,"A",1061
"1837","meticulous",1004,8,7,2,"A",1494
"1838","meticulous",1004,8,8,9,"B",692
"1839","meticulous",1004,8,9,4,"A",1053
"1840","meticulous",1004,8,10,5,"A",2378
"1841","meticulous",1005,1,1,1,"A",6383
"1842","meticulous",1005,1,2,3,"A",17161
"1843","meticulous",1005,1,3,2,"A",6253
"1844","meticulous",1005,1,4,7,"B",4731
"1845","meticulous",1005,1,5,5,"A",7566
"1846","meticulous",1005,1,6,9,"B",4537
"1847","meticulous",1005,1,7,10,"B",3856
"1848","meticulous",1005,1,8,6,"B",6295
"1849","meticulous",1005,1,9,8,"B",12571
"1850","meticulous",1005,1,10,4,"A",7855
"1851","meticulous",1005,2,1,5,"A",13567
"1852","meticulous",1005,2,2,4,"A",4893
"1853","meticulous",1005,2,3,3,"A",9892
"1854","meticulous",1005,2,4,6,"B",4772
"1855","meticulous",1005,2,5,9,"B",4336
"1856","meticulous",1005,2,6,1,"A",5173
"1857","meticulous",1005,2,7,8,"B",29395
"1858","meticulous",1005,2,8,7,"B",17585
"1859","meticulous",1005,2,9,2,"A",15345
"1860","meticulous",1005,2,10,10,"B",9491
"1861","meticulous",1005,3,1,9,"B",5338
"1862","meticulous",1005,3,2,2,"A",4544
"1863","meticulous",1005,3,3,1,"A",1852
"1864","meticulous",1005,3,4,5,"A",4974
"1865","meticulous",1005,3,5,8,"B",3899
"1866","meticulous",1005,3,6,6,"B",2573
"1867","meticulous",1005,3,7,3,"A",4537
"1868","meticulous",1005,3,8,4,"A",3336
"1869","meticulous",1005,3,9,10,"B",5027
"1870","meticulous",1005,3,10,7,"B",5608
"1871","meticulous",1005,4,1,10,"B",4652
"1872","meticulous",1005,4,2,4,"A",3852
"1873","meticulous",1005,4,3,1,"A",2015
"1874","meticulous",1005,4,4,3,"A",2096
"1875","meticulous",1005,4,5,6,"B",3893
"1876","meticulous",1005,4,6,8,"B",7255
"1877","meticulous",1005,4,7,9,"B",5094
"1878","meticulous",1005,4,8,2,"A",5137
"1879","meticulous",1005,4,9,7,"B",5615
"1880","meticulous",1005,4,10,5,"A",9109
"1881","meticulous",1005,5,1,8,"B",6183
"1882","meticulous",1005,5,2,3,"A",5410
"1883","meticulous",1005,5,3,2,"A",7617
"1884","meticulous",1005,5,4,10,"B",4649
"1885","meticulous",1005,5,5,5,"A",6650
"1886","meticulous",1005,5,6,6,"B",6078
"1887","meticulous",1005,5,7,1,"A",2874
"1888","meticulous",1005,5,8,7,"B",5414
"1889","meticulous",1005,5,9,9,"B",6339
"1890","meticulous",1005,5,10,4,"A",2896
"1891","meticulous",1005,6,1,8,"B",11456
"1892","meticulous",1005,6,2,5,"A",9165
"1893","meticulous",1005,6,3,2,"A",12409
"1894","meticulous",1005,6,4,3,"A",10833
"1895","meticulous",1005,6,5,6,"B",4704
"1896","meticulous",1005,6,6,4,"A",5697
"1897","meticulous",1005,6,7,1,"A",3051
"1898","meticulous",1005,6,8,7,"B",19242
"1899","meticulous",1005,6,9,10,"B",6172
"1900","meticulous",1005,6,10,9,"B",4296
"1901","meticulous",1005,7,1,7,"B",27903
"1902","meticulous",1005,7,2,3,"A",4238
"1903","meticulous",1005,7,3,1,"A",1972
"1904","meticulous",1005,7,4,4,"A",2020
"1905","meticulous",1005,7,5,10,"B",4057
"1906","meticulous",1005,7,6,2,"A",6417
"1907","meticulous",1005,7,7,5,"A",7371
"1908","meticulous",1005,7,8,9,"B",3492
"1909","meticulous",1005,7,9,8,"B",7256
"1910","meticulous",1005,7,10,6,"B",2536
"1911","meticulous",1005,8,1,4,"A",15050
"1912","meticulous",1005,8,2,6,"B",2333
"1913","meticulous",1005,8,3,8,"B",3893
"1914","meticulous",1005,8,4,7,"B",3981
"1915","meticulous",1005,8,5,9,"B",1706
"1916","meticulous",1005,8,6,2,"A",3690
"1917","meticulous",1005,8,7,10,"B",6135
"1918","meticulous",1005,8,8,3,"A",8369
"1919","meticulous",1005,8,9,5,"A",3142
"1920","meticulous",1005,8,10,1,"A",1773
"1921","meticulous",1006,1,1,6,"B",3987
"1922","meticulous",1006,1,2,8,"B",4991
"1923","meticulous",1006,1,3,2,"B",5621
"1924","meticulous",1006,1,4,10,"B",3575
"1925","meticulous",1006,1,5,5,"A",4672
"1926","meticulous",1006,1,6,1,"A",3992
"1927","meticulous",1006,1,7,3,"A",2120
"1928","meticulous",1006,1,8,4,"A",3908
"1929","meticulous",1006,1,9,9,"B",2639
"1930","meticulous",1006,1,10,7,"A",1606
"1931","meticulous",1006,2,1,9,"B",16742
"1932","meticulous",1006,2,2,1,"A",2975
"1933","meticulous",1006,2,3,3,"A",13237
"1934","meticulous",1006,2,4,4,"A",10194
"1935","meticulous",1006,2,5,2,"B",3187
"1936","meticulous",1006,2,6,5,"A",3656
"1937","meticulous",1006,2,7,6,"B",1814
"1938","meticulous",1006,2,8,10,"B",1943
"1939","meticulous",1006,2,9,8,"B",1091
"1940","meticulous",1006,2,10,7,"A",1068
"1941","meticulous",1006,3,1,3,"B",14628
"1942","meticulous",1006,3,2,10,"B",1772
"1943","meticulous",1006,3,3,6,"B",1059
"1944","meticulous",1006,3,4,9,"B",810
"1945","meticulous",1006,3,5,2,"A",1570
"1946","meticulous",1006,3,6,5,"A",856
"1947","meticulous",1006,3,7,8,"A",819
"1948","meticulous",1006,3,8,7,"B",4771
"1949","meticulous",1006,3,9,4,"A",936
"1950","meticulous",1006,3,10,1,"A",698
"1951","meticulous",1006,4,1,5,"A",7561
"1952","meticulous",1006,4,2,7,"B",7081
"1953","meticulous",1006,4,3,4,"A",6128
"1954","meticulous",1006,4,4,10,"B",4132
"1955","meticulous",1006,4,5,1,"A",2696
"1956","meticulous",1006,4,6,8,"B",6041
"1957","meticulous",1006,4,7,6,"B",2331
"1958","meticulous",1006,4,8,3,"A",4884
"1959","meticulous",1006,4,9,9,"B",5880
"1960","meticulous",1006,4,10,2,"A",3731
"1961","meticulous",1006,5,1,6,"B",8716
"1962","meticulous",1006,5,2,10,"B",5568
"1963","meticulous",1006,5,3,8,"B",4922
"1964","meticulous",1006,5,4,4,"A",3089
"1965","meticulous",1006,5,5,1,"A",2094
"1966","meticulous",1006,5,6,2,"A",7798
"1967","meticulous",1006,5,7,7,"B",2771
"1968","meticulous",1006,5,8,5,"A",2574
"1969","meticulous",1006,5,9,9,"B",12318
"1970","meticulous",1006,5,10,3,"A",5325
"1971","meticulous",1006,6,1,5,"A",6206
"1972","meticulous",1006,6,2,6,"B",2250
"1973","meticulous",1006,6,3,8,"B",2931
"1974","meticulous",1006,6,4,9,"B",2169
"1975","meticulous",1006,6,5,7,"B",7405
"1976","meticulous",1006,6,6,3,"A",2966
"1977","meticulous",1006,6,7,10,"B",3604
"1978","meticulous",1006,6,8,2,"A",4049
"1979","meticulous",1006,6,9,1,"A",1489
"1980","meticulous",1006,6,10,4,"A",1737
"1981","meticulous",1006,7,1,8,"B",11452
"1982","meticulous",1006,7,2,5,"A",3373
"1983","meticulous",1006,7,3,1,"A",3854
"1984","meticulous",1006,7,4,3,"A",4289
"1985","meticulous",1006,7,5,2,"A",3850
"1986","meticulous",1006,7,6,9,"B",10954
"1987","meticulous",1006,7,7,7,"B",3811
"1988","meticulous",1006,7,8,4,"A",4241
"1989","meticulous",1006,7,9,10,"B",10838
"1990","meticulous",1006,7,10,6,"B",1734
"1991","meticulous",1006,8,1,3,"A",13401
"1992","meticulous",1006,8,2,10,"B",3766
"1993","meticulous",1006,8,3,1,"A",2288
"1994","meticulous",1006,8,4,6,"B",1267
"1995","meticulous",1006,8,5,7,"A",780
"1996","meticulous",1006,8,6,4,"A",2533
"1997","meticulous",1006,8,7,9,"B",4127
"1998","meticulous",1006,8,8,5,"B",2815
"1999","meticulous",1006,8,9,8,"B",1812
"2000","meticulous",1006,8,10,2,"A",2410
"2001","meticulous",1007,1,1,8,"B",7725
"2002","meticulous",1007,1,2,10,"B",11239
"2003","meticulous",1007,1,3,4,"A",3536
"2004","meticulous",1007,1,4,5,"B",4971
"2005","meticulous",1007,1,5,2,"B",6609
"2006","meticulous",1007,1,6,9,"B",14357
"2007","meticulous",1007,1,7,1,"A",19711
"2008","meticulous",1007,1,8,3,"A",43995
"2009","meticulous",1007,1,9,6,"B",7966
"2010","meticulous",1007,1,10,7,"B",7771
"2011","meticulous",1007,2,1,9,"B",45679
"2012","meticulous",1007,2,2,10,"B",22228
"2013","meticulous",1007,2,3,6,"B",5934
"2014","meticulous",1007,2,4,2,"A",10401
"2015","meticulous",1007,2,5,8,"B",5011
"2016","meticulous",1007,2,6,4,"A",5176
"2017","meticulous",1007,2,7,7,"B",3416
"2018","meticulous",1007,2,8,1,"A",13399
"2019","meticulous",1007,2,9,5,"A",9403
"2020","meticulous",1007,2,10,3,"A",5811
"2021","meticulous",1007,3,1,8,"B",22790
"2022","meticulous",1007,3,2,6,"B",10765
"2023","meticulous",1007,3,3,5,"A",17045
"2024","meticulous",1007,3,4,3,"A",9527
"2025","meticulous",1007,3,5,7,"B",12801
"2026","meticulous",1007,3,6,4,"A",16964
"2027","meticulous",1007,3,7,9,"B",15204
"2028","meticulous",1007,3,8,1,"A",4412
"2029","meticulous",1007,3,9,2,"A",4859
"2030","meticulous",1007,3,10,10,"B",12044
"2031","meticulous",1007,4,1,8,"B",44092
"2032","meticulous",1007,4,2,7,"B",5453
"2033","meticulous",1007,4,3,1,"A",13878
"2034","meticulous",1007,4,4,6,"B",2939
"2035","meticulous",1007,4,5,2,"A",3378
"2036","meticulous",1007,4,6,5,"A",25382
"2037","meticulous",1007,4,7,4,"A",5293
"2038","meticulous",1007,4,8,3,"A",17360
"2039","meticulous",1007,4,9,9,"B",4132
"2040","meticulous",1007,4,10,10,"B",5408
"2041","meticulous",1007,5,1,9,"B",5056
"2042","meticulous",1007,5,2,8,"B",1976
"2043","meticulous",1007,5,3,4,"A",2089
"2044","meticulous",1007,5,4,1,"A",1577
"2045","meticulous",1007,5,5,5,"B",2211
"2046","meticulous",1007,5,6,2,"A",1770
"2047","meticulous",1007,5,7,7,"B",1617
"2048","meticulous",1007,5,8,10,"A",1535
"2049","meticulous",1007,5,9,6,"B",820
"2050","meticulous",1007,5,10,3,"A",1180
"2051","meticulous",1007,6,1,6,"B",48558
"2052","meticulous",1007,6,2,5,"A",4537
"2053","meticulous",1007,6,3,1,"A",778
"2054","meticulous",1007,6,4,4,"B",1054
"2055","meticulous",1007,6,5,7,"B",820
"2056","meticulous",1007,6,6,3,"A",861
"2057","meticulous",1007,6,7,2,"A",815
"2058","meticulous",1007,6,8,10,"B",896
"2059","meticulous",1007,6,9,8,"B",773
"2060","meticulous",1007,6,10,9,"A",622
"2061","meticulous",1007,7,1,4,"A",4532
"2062","meticulous",1007,7,2,3,"A",972
"2063","meticulous",1007,7,3,10,"B",1901
"2064","meticulous",1007,7,4,1,"A",40371
"2065","meticulous",1007,7,5,9,"B",2184
"2066","meticulous",1007,7,6,8,"A",1420
"2067","meticulous",1007,7,7,5,"A",1708
"2068","meticulous",1007,7,8,2,"A",1575
"2069","meticulous",1007,7,9,7,"B",1571
"2070","meticulous",1007,7,10,6,"B",1667
"2071","meticulous",1007,8,1,1,"A",27602
"2072","meticulous",1007,8,2,5,"A",822
"2073","meticulous",1007,8,3,9,"B",853
"2074","meticulous",1007,8,4,3,"A",779
"2075","meticulous",1007,8,5,10,"B",695
"2076","meticulous",1007,8,6,7,"A",1572
"2077","meticulous",1007,8,7,8,"B",861
"2078","meticulous",1007,8,8,4,"A",696
"2079","meticulous",1007,8,9,6,"B",735
"2080","meticulous",1007,8,10,2,"B",900
"2081","meticulous",1008,1,1,6,"B",6852
"2082","meticulous",1008,1,2,9,"B",5448
"2083","meticulous",1008,1,3,5,"A",6735
"2084","meticulous",1008,1,4,10,"B",11920
"2085","meticulous",1008,1,5,4,"A",8088
"2086","meticulous",1008,1,6,8,"B",6804
"2087","meticulous",1008,1,7,2,"A",19710
"2088","meticulous",1008,1,8,3,"B",10891
"2089","meticulous",1008,1,9,1,"A",8056
"2090","meticulous",1008,1,10,7,"B",9924
"2091","meticulous",1008,2,1,6,"B",7856
"2092","meticulous",1008,2,2,3,"A",10883
"2093","meticulous",1008,2,3,7,"B",9887
"2094","meticulous",1008,2,4,4,"A",6375
"2095","meticulous",1008,2,5,1,"A",10128
"2096","meticulous",1008,2,6,5,"A",20874
"2097","meticulous",1008,2,7,10,"B",5936
"2098","meticulous",1008,2,8,9,"B",5929
"2099","meticulous",1008,2,9,2,"A",14256
"2100","meticulous",1008,2,10,8,"B",13210
"2101","meticulous",1008,3,1,3,"A",7894
"2102","meticulous",1008,3,2,8,"A",7941
"2103","meticulous",1008,3,3,1,"A",5653
"2104","meticulous",1008,3,4,6,"B",1893
"2105","meticulous",1008,3,5,10,"B",1052
"2106","meticulous",1008,3,6,5,"A",1297
"2107","meticulous",1008,3,7,9,"B",1893
"2108","meticulous",1008,3,8,2,"A",3050
"2109","meticulous",1008,3,9,4,"A",2261
"2110","meticulous",1008,3,10,7,"B",7767
"2111","meticulous",1008,4,1,8,"A",8582
"2112","meticulous",1008,4,2,10,"B",2293
"2113","meticulous",1008,4,3,5,"A",1611
"2114","meticulous",1008,4,4,9,"B",2490
"2115","meticulous",1008,4,5,7,"B",10649
"2116","meticulous",1008,4,6,4,"A",9011
"2117","meticulous",1008,4,7,1,"A",12203
"2118","meticulous",1008,4,8,3,"B",4974
"2119","meticulous",1008,4,9,6,"B",3017
"2120","meticulous",1008,4,10,2,"A",2054
"2121","meticulous",1008,5,1,8,"A",7451
"2122","meticulous",1008,5,2,3,"B",1541
"2123","meticulous",1008,5,3,4,"A",853
"2124","meticulous",1008,5,4,6,"B",1978
"2125","meticulous",1008,5,5,2,"A",2292
"2126","meticulous",1008,5,6,9,"B",1820
"2127","meticulous",1008,5,7,5,"A",2819
"2128","meticulous",1008,5,8,7,"B",2419
"2129","meticulous",1008,5,9,10,"B",18521
"2130","meticulous",1008,5,10,1,"A",2170
"2131","meticulous",1008,6,1,3,"B",4092
"2132","meticulous",1008,6,2,9,"B",1981
"2133","meticulous",1008,6,3,5,"A",12205
"2134","meticulous",1008,6,4,7,"B",3777
"2135","meticulous",1008,6,5,8,"A",2662
"2136","meticulous",1008,6,6,6,"B",1652
"2137","meticulous",1008,6,7,10,"B",3978
"2138","meticulous",1008,6,8,4,"A",6165
"2139","meticulous",1008,6,9,1,"A",1979
"2140","meticulous",1008,6,10,2,"A",15002
"2141","meticulous",1008,7,1,4,"A",10377
"2142","meticulous",1008,7,2,1,"A",2094
"2143","meticulous",1008,7,3,2,"A",3811
"2144","meticulous",1008,7,4,3,"B",5177
"2145","meticulous",1008,7,5,6,"B",2460
"2146","meticulous",1008,7,6,9,"B",2054
"2147","meticulous",1008,7,7,10,"B",8892
"2148","meticulous",1008,7,8,8,"B",13084
"2149","meticulous",1008,7,9,5,"A",23714
"2150","meticulous",1008,7,10,7,"B",1454
"2151","meticulous",1008,8,1,10,"B",2937
"2152","meticulous",1008,8,2,9,"B",1859
"2153","meticulous",1008,8,3,5,"A",1931
"2154","meticulous",1008,8,4,3,"B",2373
"2155","meticulous",1008,8,5,7,"B",1101
"2156","meticulous",1008,8,6,8,"A",4218
"2157","meticulous",1008,8,7,2,"A",1536
"2158","meticulous",1008,8,8,1,"A",1299
"2159","meticulous",1008,8,9,4,"A",1178
"2160","meticulous",1008,8,10,6,"B",2253
"2161","meticulous",1009,1,1,7,"B",12290
"2162","meticulous",1009,1,2,2,"A",6823
"2163","meticulous",1009,1,3,3,"A",12456
"2164","meticulous",1009,1,4,8,"B",7140
"2165","meticulous",1009,1,5,10,"B",13346
"2166","meticulous",1009,1,6,1,"A",8453
"2167","meticulous",1009,1,7,9,"B",8571
"2168","meticulous",1009,1,8,6,"B",10286
"2169","meticulous",1009,1,9,4,"A",11099
"2170","meticulous",1009,1,10,5,"B",17292
"2171","meticulous",1009,2,1,5,"A",20126
"2172","meticulous",1009,2,2,2,"A",4933
"2173","meticulous",1009,2,3,4,"A",4211
"2174","meticulous",1009,2,4,3,"B",2622
"2175","meticulous",1009,2,5,1,"A",2101
"2176","meticulous",1009,2,6,7,"B",2458
"2177","meticulous",1009,2,7,10,"B",2462
"2178","meticulous",1009,2,8,9,"B",2535
"2179","meticulous",1009,2,9,8,"A",2495
"2180","meticulous",1009,2,10,6,"B",1974
"2181","meticulous",1009,3,1,4,"A",4454
"2182","meticulous",1009,3,2,2,"A",2975
"2183","meticulous",1009,3,3,10,"B",12374
"2184","meticulous",1009,3,4,9,"B",3209
"2185","meticulous",1009,3,5,5,"A",3259
"2186","meticulous",1009,3,6,3,"A",7827
"2187","meticulous",1009,3,7,6,"B",3564
"2188","meticulous",1009,3,8,1,"A",2679
"2189","meticulous",1009,3,9,7,"B",5017
"2190","meticulous",1009,3,10,8,"B",4892
"2191","meticulous",1009,4,1,3,"A",4098
"2192","meticulous",1009,4,2,6,"B",2654
"2193","meticulous",1009,4,3,8,"B",3457
"2194","meticulous",1009,4,4,9,"B",3498
"2195","meticulous",1009,4,5,1,"A",3215
"2196","meticulous",1009,4,6,10,"B",3983
"2197","meticulous",1009,4,7,4,"A",4497
"2198","meticulous",1009,4,8,2,"A",5528
"2199","meticulous",1009,4,9,5,"A",4578
"2200","meticulous",1009,4,10,7,"B",2903
"2201","meticulous",1009,5,1,6,"B",2941
"2202","meticulous",1009,5,2,1,"A",3221
"2203","meticulous",1009,5,3,3,"A",6218
"2204","meticulous",1009,5,4,4,"A",3653
"2205","meticulous",1009,5,5,2,"A",4495
"2206","meticulous",1009,5,6,5,"A",4820
"2207","meticulous",1009,5,7,8,"B",6255
"2208","meticulous",1009,5,8,7,"B",4335
"2209","meticulous",1009,5,9,10,"B",4932
"2210","meticulous",1009,5,10,9,"B",4451
"2211","meticulous",1009,6,1,2,"A",7333
"2212","meticulous",1009,6,2,7,"B",3741
"2213","meticulous",1009,6,3,9,"B",4181
"2214","meticulous",1009,6,4,6,"B",2854
"2215","meticulous",1009,6,5,1,"A",4817
"2216","meticulous",1009,6,6,8,"B",4692
"2217","meticulous",1009,6,7,10,"B",9495
"2218","meticulous",1009,6,8,4,"A",2536
"2219","meticulous",1009,6,9,5,"A",3977
"2220","meticulous",1009,6,10,3,"A",4621
"2221","meticulous",1009,7,1,4,"A",3854
"2222","meticulous",1009,7,2,7,"B",3746
"2223","meticulous",1009,7,3,2,"A",4452
"2224","meticulous",1009,7,4,6,"B",3461
"2225","meticulous",1009,7,5,1,"A",2847
"2226","meticulous",1009,7,6,9,"B",4530
"2227","meticulous",1009,7,7,8,"B",5579
"2228","meticulous",1009,7,8,5,"A",4342
"2229","meticulous",1009,7,9,10,"B",3330
"2230","meticulous",1009,7,10,3,"A",3131
"2231","meticulous",1009,8,1,8,"B",3973
"2232","meticulous",1009,8,2,10,"B",3617
"2233","meticulous",1009,8,3,1,"A",3617
"2234","meticulous",1009,8,4,4,"A",4412
"2235","meticulous",1009,8,5,9,"B",5861
"2236","meticulous",1009,8,6,5,"A",4659
"2237","meticulous",1009,8,7,7,"B",6020
"2238","meticulous",1009,8,8,3,"A",4455
"2239","meticulous",1009,8,9,6,"B",2817
"2240","meticulous",1009,8,10,2,"A",3296
