"DAU","Participant","Condition","Block","SubBlock","Trial","StimulusNo","Length","Orientation","Category","Difficulty","Response","Correct","RT"
"PLY12",1001,"EasyMed",1,1,1,26,157.74,25,1,"Easy",68,0,7.7878
"PLY12",1001,"EasyMed",1,1,2,28,220.68,88.411,1,"Easy",68,0,0.32557
"PLY12",1001,"EasyMed",1,1,3,29,252.16,120.1,1,"Easy",76,1,0.50075
"PLY12",1001,"EasyMed",1,1,4,30,285,151.82,1,"Easy",76,1,0.34047
"PLY12",1001,"EasyMed",1,1,5,28,220.68,88.411,1,"Easy",76,1,0.36003
"PLY12",1001,"EasyMed",1,1,6,4,119.42,253.28,0,"Easy",68,1,0.83088
"PLY12",1001,"EasyMed",1,1,7,4,119.42,253.28,0,"Easy",68,1,0.51037
"PLY12",1001,"EasyMed",1,1,8,26,157.74,25,1,"Easy",76,1,0.34552
"PLY12",1001,"EasyMed",1,1,9,26,157.74,25,1,"Easy",76,1,0.4854
"PLY12",1001,"EasyMed",1,1,10,27,189.21,56.691,1,"Easy",76,1,0.46583
"PLY12",1001,"EasyMed",1,1,11,4,119.42,253.28,0,"Easy",68,1,0.58503
"PLY12",1001,"EasyMed",1,1,12,1,25,158.15,0,"Easy",76,0,0.9106
"PLY12",1001,"EasyMed",1,1,13,27,189.21,56.691,1,"Easy",76,1,0.7808
"PLY12",1001,"EasyMed",1,1,14,26,157.74,25,1,"Easy",76,1,0.64525
"PLY12",1001,"EasyMed",1,1,15,27,189.21,56.691,1,"Easy",76,1,0.40508
"PLY12",1001,"EasyMed",1,1,16,2,56.474,189.87,0,"Easy",68,1,0.50086
"PLY12",1001,"EasyMed",1,1,17,1,25,158.15,0,"Easy",68,1,0.55577
"PLY12",1001,"EasyMed",1,1,18,30,285,151.82,1,"Easy",76,1,0.60558
"PLY12",1001,"EasyMed",1,1,19,27,189.21,56.691,1,"Easy",76,1,0.73022
"PLY12",1001,"EasyMed",1,1,20,2,56.474,189.87,0,"Easy",68,1,0.55065
"PLY12",1001,"EasyMed",1,1,21,3,87.947,221.56,0,"Easy",68,1,0.74521
"PLY12",1001,"EasyMed",1,1,22,29,252.16,120.1,1,"Easy",76,1,0.44065
"PLY12",1001,"EasyMed",1,1,23,5,150.89,285,0,"Easy",68,1,0.62084
"PLY12",1001,"EasyMed",1,1,24,28,220.68,88.411,1,"Easy",76,1,0.5007
"PLY12",1001,"EasyMed",1,1,25,2,56.474,189.87,0,"Easy",68,1,0.60079
"PLY12",1001,"EasyMed",1,1,26,29,252.16,120.1,1,"Easy",76,1,0.70562
"PLY12",1001,"EasyMed",1,1,27,5,150.89,285,0,"Easy",68,1,0.46016
"PLY12",1001,"EasyMed",1,1,28,3,87.947,221.56,0,"Easy",76,0,0.53066
"PLY12",1001,"EasyMed",1,1,29,28,220.68,88.411,1,"Easy",76,1,0.50511
"PLY12",1001,"EasyMed",1,1,30,2,56.474,189.87,0,"Easy",68,1,0.43039
"PLY12",1001,"EasyMed",1,1,31,3,87.947,221.56,0,"Easy",76,0,0.48545
"PLY12",1001,"EasyMed",1,1,32,3,87.947,221.56,0,"Easy",68,1,0.80563
"PLY12",1001,"EasyMed",1,1,33,2,56.474,189.87,0,"Easy",68,1,0.47549
"PLY12",1001,"EasyMed",1,1,34,27,189.21,56.691,1,"Easy",76,1,0.41063
"PLY12",1001,"EasyMed",1,1,35,1,25,158.15,0,"Easy",68,1,0.61554
"PLY12",1001,"EasyMed",1,1,36,27,189.21,56.691,1,"Easy",76,1,0.86067
"PLY12",1001,"EasyMed",1,1,37,3,87.947,221.56,0,"Easy",68,1,0.71084
"PLY12",1001,"EasyMed",1,1,38,29,252.16,120.1,1,"Easy",76,1,0.6707
"PLY12",1001,"EasyMed",1,1,39,30,285,151.82,1,"Easy",76,1,0.42556
"PLY12",1001,"EasyMed",1,1,40,30,285,151.82,1,"Easy",76,1,0.34536
"PLY12",1001,"EasyMed",1,1,41,4,119.42,253.28,0,"Easy",68,1,0.48011
"PLY12",1001,"EasyMed",1,1,42,27,189.21,56.691,1,"Easy",76,1,0.41535
"PLY12",1001,"EasyMed",1,1,43,30,285,151.82,1,"Easy",76,1,0.42023
"PLY12",1001,"EasyMed",1,1,44,26,157.74,25,1,"Easy",76,1,0.39503
"PLY12",1001,"EasyMed",1,1,45,4,119.42,253.28,0,"Easy",76,0,0.43058
"PLY12",1001,"EasyMed",1,1,46,4,119.42,253.28,0,"Easy",68,1,0.52068
"PLY12",1001,"EasyMed",1,1,47,4,119.42,253.28,0,"Easy",68,1,0.42084
"PLY12",1001,"EasyMed",1,1,48,1,25,158.15,0,"Easy",76,0,0.45497
"PLY12",1001,"EasyMed",1,1,49,5,150.89,285,0,"Easy",68,1,0.45549
"PLY12",1001,"EasyMed",1,1,50,1,25,158.15,0,"Easy",68,1,0.76497
"PLY12",1001,"EasyMed",1,2,51,1,25,158.15,0,"Easy",68,1,0.54086
"PLY12",1001,"EasyMed",1,2,52,29,252.16,120.1,1,"Easy",76,1,0.55497
"PLY12",1001,"EasyMed",1,2,53,28,220.68,88.411,1,"Easy",76,1,0.56504
"PLY12",1001,"EasyMed",1,2,54,5,150.89,285,0,"Easy",68,1,0.49567
"PLY12",1001,"EasyMed",1,2,55,29,252.16,120.1,1,"Easy",76,1,0.51522
"PLY12",1001,"EasyMed",1,2,56,2,56.474,189.87,0,"Easy",68,1,0.48026
"PLY12",1001,"EasyMed",1,2,57,4,119.42,253.28,0,"Easy",68,1,0.64556
"PLY12",1001,"EasyMed",1,2,58,3,87.947,221.56,0,"Easy",76,0,0.62206
"PLY12",1001,"EasyMed",1,2,59,30,285,151.82,1,"Easy",76,1,0.59085
"PLY12",1001,"EasyMed",1,2,60,30,285,151.82,1,"Easy",76,1,0.62008
"PLY12",1001,"EasyMed",1,2,61,4,119.42,253.28,0,"Easy",68,1,0.77519
"PLY12",1001,"EasyMed",1,2,62,29,252.16,120.1,1,"Easy",76,1,0.4903
"PLY12",1001,"EasyMed",1,2,63,27,189.21,56.691,1,"Easy",76,1,0.48056
"PLY12",1001,"EasyMed",1,2,64,4,119.42,253.28,0,"Easy",68,1,0.53568
"PLY12",1001,"EasyMed",1,2,65,27,189.21,56.691,1,"Easy",76,1,0.49013
"PLY12",1001,"EasyMed",1,2,66,26,157.74,25,1,"Easy",76,1,0.44081
"PLY12",1001,"EasyMed",1,2,67,5,150.89,285,0,"Easy",68,1,0.40523
"PLY12",1001,"EasyMed",1,2,68,2,56.474,189.87,0,"Easy",76,0,0.5147
"PLY12",1001,"EasyMed",1,2,69,2,56.474,189.87,0,"Easy",68,1,0.60583
"PLY12",1001,"EasyMed",1,2,70,3,87.947,221.56,0,"Easy",68,1,0.59535
"PLY12",1001,"EasyMed",1,2,71,26,157.74,25,1,"Easy",76,1,0.59015
"PLY12",1001,"EasyMed",1,2,72,3,87.947,221.56,0,"Easy",76,0,0.88076
"PLY12",1001,"EasyMed",1,2,73,3,87.947,221.56,0,"Easy",76,0,0.61009
"PLY12",1001,"EasyMed",1,2,74,4,119.42,253.28,0,"Easy",68,1,0.47511
"PLY12",1001,"EasyMed",1,2,75,1,25,158.15,0,"Easy",68,1,0.5702
"PLY12",1001,"EasyMed",1,2,76,3,87.947,221.56,0,"Easy",68,1,0.52036
"PLY12",1001,"EasyMed",1,2,77,26,157.74,25,1,"Easy",76,1,0.70555
"PLY12",1001,"EasyMed",1,2,78,2,56.474,189.87,0,"Easy",68,1,0.66532
"PLY12",1001,"EasyMed",1,2,79,28,220.68,88.411,1,"Easy",76,1,0.59554
"PLY12",1001,"EasyMed",1,2,80,2,56.474,189.87,0,"Easy",68,1,0.43526
"PLY12",1001,"EasyMed",1,2,81,28,220.68,88.411,1,"Easy",76,1,0.51558
"PLY12",1001,"EasyMed",1,2,82,29,252.16,120.1,1,"Easy",76,1,0.52542
"PLY12",1001,"EasyMed",1,2,83,30,285,151.82,1,"Easy",76,1,0.51035
"PLY12",1001,"EasyMed",1,2,84,26,157.74,25,1,"Easy",76,1,0.68009
"PLY12",1001,"EasyMed",1,2,85,1,25,158.15,0,"Easy",68,1,0.6055
"PLY12",1001,"EasyMed",1,2,86,29,252.16,120.1,1,"Easy",76,1,0.42039
"PLY12",1001,"EasyMed",1,2,87,27,189.21,56.691,1,"Easy",76,1,0.45558
"PLY12",1001,"EasyMed",1,2,88,26,157.74,25,1,"Easy",76,1,0.38013
"PLY12",1001,"EasyMed",1,2,89,28,220.68,88.411,1,"Easy",76,1,0.41055
"PLY12",1001,"EasyMed",1,2,90,5,150.89,285,0,"Easy",68,1,0.43039
"PLY12",1001,"EasyMed",1,2,91,28,220.68,88.411,1,"Easy",76,1,0.53589
"PLY12",1001,"EasyMed",1,2,92,3,87.947,221.56,0,"Easy",68,1,0.65039
"PLY12",1001,"EasyMed",1,2,93,5,150.89,285,0,"Easy",68,1,0.4452
"PLY12",1001,"EasyMed",1,2,94,27,189.21,56.691,1,"Easy",76,1,0.56077
"PLY12",1001,"EasyMed",1,2,95,5,150.89,285,0,"Easy",68,1,0.52557
"PLY12",1001,"EasyMed",1,2,96,27,189.21,56.691,1,"Easy",76,1,0.45549
"PLY12",1001,"EasyMed",1,2,97,5,150.89,285,0,"Easy",68,1,0.54592
"PLY12",1001,"EasyMed",1,2,98,2,56.474,189.87,0,"Easy",76,0,0.52041
"PLY12",1001,"EasyMed",1,2,99,3,87.947,221.56,0,"Easy",68,1,0.61065
"PLY12",1001,"EasyMed",1,2,100,30,285,151.82,1,"Easy",68,0,0.55076
"PLY12",1001,"EasyMed",1,3,101,3,87.947,221.56,0,"Easy",68,1,0.73025
"PLY12",1001,"EasyMed",1,3,102,5,150.89,285,0,"Easy",68,1,0.67578
"PLY12",1001,"EasyMed",1,3,103,26,157.74,25,1,"Easy",76,1,0.46059
"PLY12",1001,"EasyMed",1,3,104,29,252.16,120.1,1,"Easy",76,1,0.61572
"PLY12",1001,"EasyMed",1,3,105,29,252.16,120.1,1,"Easy",76,1,0.46989
"PLY12",1001,"EasyMed",1,3,106,1,25,158.15,0,"Easy",68,1,0.62014
"PLY12",1001,"EasyMed",1,3,107,4,119.42,253.28,0,"Easy",68,1,0.63524
"PLY12",1001,"EasyMed",1,3,108,4,119.42,253.28,0,"Easy",68,1,0.48543
"PLY12",1001,"EasyMed",1,3,109,4,119.42,253.28,0,"Easy",68,1,0.45559
"PLY12",1001,"EasyMed",1,3,110,2,56.474,189.87,0,"Easy",68,1,0.75511
"PLY12",1001,"EasyMed",1,3,111,1,25,158.15,0,"Easy",68,1,0.47567
"PLY12",1001,"EasyMed",1,3,112,28,220.68,88.411,1,"Easy",76,1,0.44581
"PLY12",1001,"EasyMed",1,3,113,2,56.474,189.87,0,"Easy",68,1,0.5256
"PLY12",1001,"EasyMed",1,3,114,29,252.16,120.1,1,"Easy",76,1,0.55076
"PLY12",1001,"EasyMed",1,3,115,2,56.474,189.87,0,"Easy",68,1,0.66028
"PLY12",1001,"EasyMed",1,3,116,5,150.89,285,0,"Easy",68,1,0.48009
"PLY12",1001,"EasyMed",1,3,117,1,25,158.15,0,"Easy",68,1,0.72066
"PLY12",1001,"EasyMed",1,3,118,5,150.89,285,0,"Easy",68,1,0.62078
"PLY12",1001,"EasyMed",1,3,119,26,157.74,25,1,"Easy",76,1,0.71997
"PLY12",1001,"EasyMed",1,3,120,3,87.947,221.56,0,"Easy",76,0,1.0059
"PLY12",1001,"EasyMed",1,3,121,27,189.21,56.691,1,"Easy",76,1,0.6103
"PLY12",1001,"EasyMed",1,3,122,30,285,151.82,1,"Easy",76,1,0.45086
"PLY12",1001,"EasyMed",1,3,123,1,25,158.15,0,"Easy",68,1,0.54037
"PLY12",1001,"EasyMed",1,3,124,30,285,151.82,1,"Easy",76,1,0.55583
"PLY12",1001,"EasyMed",1,3,125,5,150.89,285,0,"Easy",68,1,0.91574
"PLY12",1001,"EasyMed",1,3,126,29,252.16,120.1,1,"Easy",76,1,0.46087
"PLY12",1001,"EasyMed",1,3,127,30,285,151.82,1,"Easy",76,1,0.44504
"PLY12",1001,"EasyMed",1,3,128,5,150.89,285,0,"Easy",68,1,0.43058
"PLY12",1001,"EasyMed",1,3,129,3,87.947,221.56,0,"Easy",68,1,0.7108
"PLY12",1001,"EasyMed",1,3,130,26,157.74,25,1,"Easy",76,1,0.58054
"PLY12",1001,"EasyMed",1,3,131,27,189.21,56.691,1,"Easy",76,1,0.48071
"PLY12",1001,"EasyMed",1,3,132,4,119.42,253.28,0,"Easy",68,1,0.61334
"PLY12",1001,"EasyMed",1,3,133,1,25,158.15,0,"Easy",68,1,0.5904
"PLY12",1001,"EasyMed",1,3,134,1,25,158.15,0,"Easy",68,1,0.46054
"PLY12",1001,"EasyMed",1,3,135,29,252.16,120.1,1,"Easy",76,1,0.5207
"PLY12",1001,"EasyMed",1,3,136,27,189.21,56.691,1,"Easy",76,1,0.52092
"PLY12",1001,"EasyMed",1,3,137,28,220.68,88.411,1,"Easy",76,1,0.40069
"PLY12",1001,"EasyMed",1,3,138,28,220.68,88.411,1,"Easy",76,1,0.40019
"PLY12",1001,"EasyMed",1,3,139,26,157.74,25,1,"Easy",76,1,0.41004
"PLY12",1001,"EasyMed",1,3,140,30,285,151.82,1,"Easy",76,1,0.51055
"PLY12",1001,"EasyMed",1,3,141,2,56.474,189.87,0,"Easy",68,1,0.59076
"PLY12",1001,"EasyMed",1,3,142,1,25,158.15,0,"Easy",68,1,0.5409
"PLY12",1001,"EasyMed",1,3,143,28,220.68,88.411,1,"Easy",76,1,0.53514
"PLY12",1001,"EasyMed",1,3,144,29,252.16,120.1,1,"Easy",76,1,0.46021
"PLY12",1001,"EasyMed",1,3,145,30,285,151.82,1,"Easy",76,1,0.45503
"PLY12",1001,"EasyMed",1,3,146,30,285,151.82,1,"Easy",76,1,0.40561
"PLY12",1001,"EasyMed",1,3,147,28,220.68,88.411,1,"Easy",76,1,0.60002
"PLY12",1001,"EasyMed",1,3,148,5,150.89,285,0,"Easy",68,1,0.6655
"PLY12",1001,"EasyMed",1,3,149,28,220.68,88.411,1,"Easy",76,1,0.42536
"PLY12",1001,"EasyMed",1,3,150,26,157.74,25,1,"Easy",76,1,0.56532
"PLY12",1001,"EasyMed",2,1,151,6,46.895,135.96,0,"Medium",68,1,0.59006
"PLY12",1001,"EasyMed",2,1,152,24,230.26,142.32,1,"Medium",76,1,0.36551
"PLY12",1001,"EasyMed",2,1,153,22,167.32,78.878,1,"Medium",76,1,0.4607
"PLY12",1001,"EasyMed",2,1,154,8,109.84,199.37,0,"Medium",76,0,0.70085
"PLY12",1001,"EasyMed",2,1,155,25,261.74,174.01,1,"Medium",76,1,0.57541
"PLY12",1001,"EasyMed",2,1,156,21,135.84,47.187,1,"Medium",76,1,0.60529
"PLY12",1001,"EasyMed",2,1,157,9,141.32,231.09,0,"Medium",68,1,1.0259
"PLY12",1001,"EasyMed",2,1,158,7,78.368,167.68,0,"Medium",68,1,0.7809
"PLY12",1001,"EasyMed",2,1,159,23,198.79,110.6,1,"Medium",76,1,0.49029
"PLY12",1001,"EasyMed",2,1,160,25,261.74,174.01,1,"Medium",76,1,0.52028
"PLY12",1001,"EasyMed",2,1,161,24,230.26,142.32,1,"Medium",76,1,0.55044
"PLY12",1001,"EasyMed",2,1,162,6,46.895,135.96,0,"Medium",68,1,0.5259
"PLY12",1001,"EasyMed",2,1,163,25,261.74,174.01,1,"Medium",76,1,0.53578
"PLY12",1001,"EasyMed",2,1,164,24,230.26,142.32,1,"Medium",76,1,0.43007
"PLY12",1001,"EasyMed",2,1,165,22,167.32,78.878,1,"Medium",76,1,0.42513
"PLY12",1001,"EasyMed",2,1,166,22,167.32,78.878,1,"Medium",76,1,0.41492
"PLY12",1001,"EasyMed",2,1,167,25,261.74,174.01,1,"Medium",76,1,0.55508
"PLY12",1001,"EasyMed",2,1,168,21,135.84,47.187,1,"Medium",76,1,0.70588
"PLY12",1001,"EasyMed",2,1,169,25,261.74,174.01,1,"Medium",76,1,0.42047
"PLY12",1001,"EasyMed",2,1,170,22,167.32,78.878,1,"Medium",76,1,0.3352
"PLY12",1001,"EasyMed",2,1,171,9,141.32,231.09,0,"Medium",68,1,0.94539
"PLY12",1001,"EasyMed",2,1,172,7,78.368,167.68,0,"Medium",76,0,0.64523
"PLY12",1001,"EasyMed",2,1,173,22,167.32,78.878,1,"Medium",76,1,0.48007
"PLY12",1001,"EasyMed",2,1,174,6,46.895,135.96,0,"Medium",68,1,0.54562
"PLY12",1001,"EasyMed",2,1,175,7,78.368,167.68,0,"Medium",68,1,0.51512
"PLY12",1001,"EasyMed",2,1,176,21,135.84,47.187,1,"Medium",76,1,0.47595
"PLY12",1001,"EasyMed",2,1,177,9,141.32,231.09,0,"Medium",68,1,0.8782
"PLY12",1001,"EasyMed",2,1,178,22,167.32,78.878,1,"Medium",76,1,0.79555
"PLY12",1001,"EasyMed",2,1,179,21,135.84,47.187,1,"Medium",76,1,1.3155
"PLY12",1001,"EasyMed",2,1,180,25,261.74,174.01,1,"Medium",76,1,0.78538
"PLY12",1001,"EasyMed",2,1,181,6,46.895,135.96,0,"Medium",68,1,0.70564
"PLY12",1001,"EasyMed",2,1,182,24,230.26,142.32,1,"Medium",76,1,1.1602
"PLY12",1001,"EasyMed",2,1,183,10,172.79,262.78,0,"Medium",68,1,1.1201
"PLY12",1001,"EasyMed",2,1,184,24,230.26,142.32,1,"Medium",76,1,1.2908
"PLY12",1001,"EasyMed",2,1,185,21,135.84,47.187,1,"Medium",76,1,0.58034
"PLY12",1001,"EasyMed",2,1,186,8,109.84,199.37,0,"Medium",76,0,0.59084
"PLY12",1001,"EasyMed",2,1,187,10,172.79,262.78,0,"Medium",68,1,0.73536
"PLY12",1001,"EasyMed",2,1,188,7,78.368,167.68,0,"Medium",68,1,0.67091
"PLY12",1001,"EasyMed",2,1,189,23,198.79,110.6,1,"Medium",76,1,0.74572
"PLY12",1001,"EasyMed",2,1,190,23,198.79,110.6,1,"Medium",76,1,0.56517
"PLY12",1001,"EasyMed",2,1,191,8,109.84,199.37,0,"Medium",68,1,0.87544
"PLY12",1001,"EasyMed",2,1,192,8,109.84,199.37,0,"Medium",68,1,0.71031
"PLY12",1001,"EasyMed",2,1,193,10,172.79,262.78,0,"Medium",68,1,0.68081
"PLY12",1001,"EasyMed",2,1,194,8,109.84,199.37,0,"Medium",76,0,0.50499
"PLY12",1001,"EasyMed",2,1,195,24,230.26,142.32,1,"Medium",76,1,0.5156
"PLY12",1001,"EasyMed",2,1,196,25,261.74,174.01,1,"Medium",76,1,0.79557
"PLY12",1001,"EasyMed",2,1,197,7,78.368,167.68,0,"Medium",68,1,0.93551
"PLY12",1001,"EasyMed",2,1,198,23,198.79,110.6,1,"Medium",76,1,0.56072
"PLY12",1001,"EasyMed",2,1,199,9,141.32,231.09,0,"Medium",68,1,0.87055
"PLY12",1001,"EasyMed",2,1,200,8,109.84,199.37,0,"Medium",68,1,1.0757
"PLY12",1001,"EasyMed",2,2,201,8,109.84,199.37,0,"Medium",68,1,0.59066
"PLY12",1001,"EasyMed",2,2,202,10,172.79,262.78,0,"Medium",68,1,0.57073
"PLY12",1001,"EasyMed",2,2,203,6,46.895,135.96,0,"Medium",68,1,0.70556
"PLY12",1001,"EasyMed",2,2,204,25,261.74,174.01,1,"Medium",76,1,0.79511
"PLY12",1001,"EasyMed",2,2,205,21,135.84,47.187,1,"Medium",76,1,0.75993
"PLY12",1001,"EasyMed",2,2,206,10,172.79,262.78,0,"Medium",68,1,0.64545
"PLY12",1001,"EasyMed",2,2,207,9,141.32,231.09,0,"Medium",76,0,0.71534
"PLY12",1001,"EasyMed",2,2,208,8,109.84,199.37,0,"Medium",76,0,0.67512
"PLY12",1001,"EasyMed",2,2,209,6,46.895,135.96,0,"Medium",68,1,0.73076
"PLY12",1001,"EasyMed",2,2,210,8,109.84,199.37,0,"Medium",68,1,0.64547
"PLY12",1001,"EasyMed",2,2,211,24,230.26,142.32,1,"Medium",76,1,0.5653
"PLY12",1001,"EasyMed",2,2,212,9,141.32,231.09,0,"Medium",68,1,0.72517
"PLY12",1001,"EasyMed",2,2,213,9,141.32,231.09,0,"Medium",68,1,0.52
"PLY12",1001,"EasyMed",2,2,214,10,172.79,262.78,0,"Medium",68,1,0.57511
"PLY12",1001,"EasyMed",2,2,215,8,109.84,199.37,0,"Medium",68,1,0.63501
"PLY12",1001,"EasyMed",2,2,216,23,198.79,110.6,1,"Medium",76,1,0.96023
"PLY12",1001,"EasyMed",2,2,217,22,167.32,78.878,1,"Medium",76,1,0.64006
"PLY12",1001,"EasyMed",2,2,218,25,261.74,174.01,1,"Medium",76,1,0.54025
"PLY12",1001,"EasyMed",2,2,219,24,230.26,142.32,1,"Medium",76,1,0.54043
"PLY12",1001,"EasyMed",2,2,220,23,198.79,110.6,1,"Medium",76,1,0.50562
"PLY12",1001,"EasyMed",2,2,221,21,135.84,47.187,1,"Medium",76,1,0.51508
"PLY12",1001,"EasyMed",2,2,222,6,46.895,135.96,0,"Medium",68,1,0.7009
"PLY12",1001,"EasyMed",2,2,223,6,46.895,135.96,0,"Medium",68,1,0.53571
"PLY12",1001,"EasyMed",2,2,224,6,46.895,135.96,0,"Medium",68,1,0.48514
"PLY12",1001,"EasyMed",2,2,225,21,135.84,47.187,1,"Medium",76,1,0.70543
"PLY12",1001,"EasyMed",2,2,226,6,46.895,135.96,0,"Medium",68,1,0.61018
"PLY12",1001,"EasyMed",2,2,227,9,141.32,231.09,0,"Medium",68,1,0.8208
"PLY12",1001,"EasyMed",2,2,228,7,78.368,167.68,0,"Medium",68,1,0.91558
"PLY12",1001,"EasyMed",2,2,229,7,78.368,167.68,0,"Medium",68,1,0.60076
"PLY12",1001,"EasyMed",2,2,230,10,172.79,262.78,0,"Medium",68,1,0.61534
"PLY12",1001,"EasyMed",2,2,231,22,167.32,78.878,1,"Medium",76,1,0.74549
"PLY12",1001,"EasyMed",2,2,232,25,261.74,174.01,1,"Medium",76,1,0.58524
"PLY12",1001,"EasyMed",2,2,233,23,198.79,110.6,1,"Medium",76,1,0.54081
"PLY12",1001,"EasyMed",2,2,234,7,78.368,167.68,0,"Medium",68,1,0.71005
"PLY12",1001,"EasyMed",2,2,235,23,198.79,110.6,1,"Medium",76,1,0.6505
"PLY12",1001,"EasyMed",2,2,236,23,198.79,110.6,1,"Medium",76,1,0.62031
"PLY12",1001,"EasyMed",2,2,237,25,261.74,174.01,1,"Medium",76,1,0.4455
"PLY12",1001,"EasyMed",2,2,238,10,172.79,262.78,0,"Medium",68,1,0.72065
"PLY12",1001,"EasyMed",2,2,239,24,230.26,142.32,1,"Medium",76,1,0.48498
"PLY12",1001,"EasyMed",2,2,240,22,167.32,78.878,1,"Medium",76,1,0.79015
"PLY12",1001,"EasyMed",2,2,241,21,135.84,47.187,1,"Medium",76,1,0.74033
"PLY12",1001,"EasyMed",2,2,242,10,172.79,262.78,0,"Medium",68,1,0.60541
"PLY12",1001,"EasyMed",2,2,243,9,141.32,231.09,0,"Medium",68,1,1.3909
"PLY12",1001,"EasyMed",2,2,244,8,109.84,199.37,0,"Medium",68,1,0.74019
"PLY12",1001,"EasyMed",2,2,245,6,46.895,135.96,0,"Medium",68,1,0.80558
"PLY12",1001,"EasyMed",2,2,246,9,141.32,231.09,0,"Medium",68,1,0.97051
"PLY12",1001,"EasyMed",2,2,247,23,198.79,110.6,1,"Medium",76,1,0.87537
"PLY12",1001,"EasyMed",2,2,248,7,78.368,167.68,0,"Medium",68,1,0.79021
"PLY12",1001,"EasyMed",2,2,249,22,167.32,78.878,1,"Medium",76,1,0.63543
"PLY12",1001,"EasyMed",2,2,250,6,46.895,135.96,0,"Medium",68,1,0.83068
"PLY12",1001,"EasyMed",2,3,251,22,167.32,78.878,1,"Medium",76,1,1.0008
"PLY12",1001,"EasyMed",2,3,252,23,198.79,110.6,1,"Medium",76,1,0.84531
"PLY12",1001,"EasyMed",2,3,253,9,141.32,231.09,0,"Medium",68,1,0.92081
"PLY12",1001,"EasyMed",2,3,254,8,109.84,199.37,0,"Medium",68,1,0.75495
"PLY12",1001,"EasyMed",2,3,255,24,230.26,142.32,1,"Medium",76,1,0.69046
"PLY12",1001,"EasyMed",2,3,256,8,109.84,199.37,0,"Medium",68,1,0.93076
"PLY12",1001,"EasyMed",2,3,257,21,135.84,47.187,1,"Medium",76,1,0.62516
"PLY12",1001,"EasyMed",2,3,258,22,167.32,78.878,1,"Medium",76,1,0.55035
"PLY12",1001,"EasyMed",2,3,259,24,230.26,142.32,1,"Medium",76,1,0.55017
"PLY12",1001,"EasyMed",2,3,260,23,198.79,110.6,1,"Medium",76,1,0.69574
"PLY12",1001,"EasyMed",2,3,261,10,172.79,262.78,0,"Medium",68,1,0.63054
"PLY12",1001,"EasyMed",2,3,262,10,172.79,262.78,0,"Medium",68,1,0.46568
"PLY12",1001,"EasyMed",2,3,263,7,78.368,167.68,0,"Medium",76,0,0.58582
"PLY12",1001,"EasyMed",2,3,264,7,78.368,167.68,0,"Medium",68,1,0.79546
"PLY12",1001,"EasyMed",2,3,265,25,261.74,174.01,1,"Medium",76,1,0.83021
"PLY12",1001,"EasyMed",2,3,266,9,141.32,231.09,0,"Medium",68,1,0.77076
"PLY12",1001,"EasyMed",2,3,267,9,141.32,231.09,0,"Medium",68,1,1.255
"PLY12",1001,"EasyMed",2,3,268,24,230.26,142.32,1,"Medium",68,0,0.60081
"PLY12",1001,"EasyMed",2,3,269,24,230.26,142.32,1,"Medium",76,1,0.56536
"PLY12",1001,"EasyMed",2,3,270,8,109.84,199.37,0,"Medium",68,1,1.2402
"PLY12",1001,"EasyMed",2,3,271,10,172.79,262.78,0,"Medium",68,1,0.53035
"PLY12",1001,"EasyMed",2,3,272,7,78.368,167.68,0,"Medium",68,1,1.0259
"PLY12",1001,"EasyMed",2,3,273,23,198.79,110.6,1,"Medium",76,1,0.73575
"PLY12",1001,"EasyMed",2,3,274,7,78.368,167.68,0,"Medium",68,1,0.6953
"PLY12",1001,"EasyMed",2,3,275,21,135.84,47.187,1,"Medium",76,1,1.0308
"PLY12",1001,"EasyMed",2,3,276,21,135.84,47.187,1,"Medium",76,1,0.59531
"PLY12",1001,"EasyMed",2,3,277,8,109.84,199.37,0,"Medium",68,1,1.3249
"PLY12",1001,"EasyMed",2,3,278,7,78.368,167.68,0,"Medium",68,1,1.6551
"PLY12",1001,"EasyMed",2,3,279,22,167.32,78.878,1,"Medium",76,1,0.53059
"PLY12",1001,"EasyMed",2,3,280,25,261.74,174.01,1,"Medium",76,1,0.87512
"PLY12",1001,"EasyMed",2,3,281,24,230.26,142.32,1,"Medium",76,1,0.52495
"PLY12",1001,"EasyMed",2,3,282,10,172.79,262.78,0,"Medium",68,1,0.59084
"PLY12",1001,"EasyMed",2,3,283,6,46.895,135.96,0,"Medium",68,1,0.70027
"PLY12",1001,"EasyMed",2,3,284,23,198.79,110.6,1,"Medium",76,1,0.86513
"PLY12",1001,"EasyMed",2,3,285,10,172.79,262.78,0,"Medium",68,1,0.63031
"PLY12",1001,"EasyMed",2,3,286,21,135.84,47.187,1,"Medium",76,1,0.55555
"PLY12",1001,"EasyMed",2,3,287,24,230.26,142.32,1,"Medium",76,1,0.65015
"PLY12",1001,"EasyMed",2,3,288,21,135.84,47.187,1,"Medium",76,1,0.67553
"PLY12",1001,"EasyMed",2,3,289,22,167.32,78.878,1,"Medium",76,1,0.66034
"PLY12",1001,"EasyMed",2,3,290,10,172.79,262.78,0,"Medium",68,1,0.6552
"PLY12",1001,"EasyMed",2,3,291,9,141.32,231.09,0,"Medium",68,1,0.95502
"PLY12",1001,"EasyMed",2,3,292,25,261.74,174.01,1,"Medium",76,1,0.62566
"PLY12",1001,"EasyMed",2,3,293,6,46.895,135.96,0,"Medium",68,1,0.7108
"PLY12",1001,"EasyMed",2,3,294,23,198.79,110.6,1,"Medium",76,1,1.0009
"PLY12",1001,"EasyMed",2,3,295,25,261.74,174.01,1,"Medium",76,1,0.54573
"PLY12",1001,"EasyMed",2,3,296,21,135.84,47.187,1,"Medium",76,1,0.4853
"PLY12",1001,"EasyMed",2,3,297,9,141.32,231.09,0,"Medium",68,1,0.94051
"PLY12",1001,"EasyMed",2,3,298,6,46.895,135.96,0,"Medium",68,1,0.70063
"PLY12",1001,"EasyMed",2,3,299,22,167.32,78.878,1,"Medium",68,0,0.54052
"PLY12",1001,"EasyMed",2,3,300,7,78.368,167.68,0,"Medium",68,1,1.26
"PLY12",1002,"EasyMed",1,1,1,26,157.74,25,1,"Easy",68,0,4.0436
"PLY12",1002,"EasyMed",1,1,2,28,220.68,88.411,1,"Easy",68,0,0.63579
"PLY12",1002,"EasyMed",1,1,3,29,252.16,120.1,1,"Easy",76,1,0.6054
"PLY12",1002,"EasyMed",1,1,4,30,285,151.82,1,"Easy",76,1,0.37013
"PLY12",1002,"EasyMed",1,1,5,28,220.68,88.411,1,"Easy",76,1,0.35536
"PLY12",1002,"EasyMed",1,1,6,4,119.42,253.28,0,"Easy",76,0,1.7702
"PLY12",1002,"EasyMed",1,1,7,4,119.42,253.28,0,"Easy",68,1,0.91629
"PLY12",1002,"EasyMed",1,1,8,26,157.74,25,1,"Easy",76,1,1.0005
"PLY12",1002,"EasyMed",1,1,9,26,157.74,25,1,"Easy",76,1,0.42034
"PLY12",1002,"EasyMed",1,1,10,27,189.21,56.691,1,"Easy",76,1,0.55053
"PLY12",1002,"EasyMed",1,1,11,4,119.42,253.28,0,"Easy",68,1,0.78043
"PLY12",1002,"EasyMed",1,1,12,1,25,158.15,0,"Easy",76,0,0.72569
"PLY12",1002,"EasyMed",1,1,13,27,189.21,56.691,1,"Easy",76,1,0.51588
"PLY12",1002,"EasyMed",1,1,14,26,157.74,25,1,"Easy",76,1,0.6049
"PLY12",1002,"EasyMed",1,1,15,27,189.21,56.691,1,"Easy",76,1,0.38546
"PLY12",1002,"EasyMed",1,1,16,2,56.474,189.87,0,"Easy",76,0,0.63994
"PLY12",1002,"EasyMed",1,1,17,1,25,158.15,0,"Easy",68,1,0.99544
"PLY12",1002,"EasyMed",1,1,18,30,285,151.82,1,"Easy",76,1,0.60501
"PLY12",1002,"EasyMed",1,1,19,27,189.21,56.691,1,"Easy",76,1,0.56578
"PLY12",1002,"EasyMed",1,1,20,2,56.474,189.87,0,"Easy",76,0,0.54496
"PLY12",1002,"EasyMed",1,1,21,3,87.947,221.56,0,"Easy",76,0,0.39084
"PLY12",1002,"EasyMed",1,1,22,29,252.16,120.1,1,"Easy",76,1,0.44028
"PLY12",1002,"EasyMed",1,1,23,5,150.89,285,0,"Easy",68,1,0.82557
"PLY12",1002,"EasyMed",1,1,24,28,220.68,88.411,1,"Easy",76,1,0.49568
"PLY12",1002,"EasyMed",1,1,25,2,56.474,189.87,0,"Easy",68,1,0.80548
"PLY12",1002,"EasyMed",1,1,26,29,252.16,120.1,1,"Easy",76,1,0.46031
"PLY12",1002,"EasyMed",1,1,27,5,150.89,285,0,"Easy",68,1,0.49496
"PLY12",1002,"EasyMed",1,1,28,3,87.947,221.56,0,"Easy",68,1,1.1054
"PLY12",1002,"EasyMed",1,1,29,28,220.68,88.411,1,"Easy",76,1,0.57588
"PLY12",1002,"EasyMed",1,1,30,2,56.474,189.87,0,"Easy",76,0,0.47079
"PLY12",1002,"EasyMed",1,1,31,3,87.947,221.56,0,"Easy",68,1,0.82594
"PLY12",1002,"EasyMed",1,1,32,3,87.947,221.56,0,"Easy",68,1,0.71074
"PLY12",1002,"EasyMed",1,1,33,2,56.474,189.87,0,"Easy",68,1,0.5809
"PLY12",1002,"EasyMed",1,1,34,27,189.21,56.691,1,"Easy",76,1,0.346
"PLY12",1002,"EasyMed",1,1,35,1,25,158.15,0,"Easy",68,1,0.47525
"PLY12",1002,"EasyMed",1,1,36,27,189.21,56.691,1,"Easy",76,1,0.35536
"PLY12",1002,"EasyMed",1,1,37,3,87.947,221.56,0,"Easy",68,1,0.74606
"PLY12",1002,"EasyMed",1,1,38,29,252.16,120.1,1,"Easy",76,1,0.34572
"PLY12",1002,"EasyMed",1,1,39,30,285,151.82,1,"Easy",76,1,0.27539
"PLY12",1002,"EasyMed",1,1,40,30,285,151.82,1,"Easy",76,1,0.39536
"PLY12",1002,"EasyMed",1,1,41,4,119.42,253.28,0,"Easy",68,1,0.95017
"PLY12",1002,"EasyMed",1,1,42,27,189.21,56.691,1,"Easy",76,1,0.45514
"PLY12",1002,"EasyMed",1,1,43,30,285,151.82,1,"Easy",76,1,0.34056
"PLY12",1002,"EasyMed",1,1,44,26,157.74,25,1,"Easy",76,1,0.61071
"PLY12",1002,"EasyMed",1,1,45,4,119.42,253.28,0,"Easy",68,1,0.91091
"PLY12",1002,"EasyMed",1,1,46,4,119.42,253.28,0,"Easy",68,1,0.63018
"PLY12",1002,"EasyMed",1,1,47,4,119.42,253.28,0,"Easy",68,1,0.66528
"PLY12",1002,"EasyMed",1,1,48,1,25,158.15,0,"Easy",68,1,0.71508
"PLY12",1002,"EasyMed",1,1,49,5,150.89,285,0,"Easy",76,0,0.50009
"PLY12",1002,"EasyMed",1,1,50,1,25,158.15,0,"Easy",68,1,0.66079
"PLY12",1002,"EasyMed",1,2,51,1,25,158.15,0,"Easy",68,1,0.4656
"PLY12",1002,"EasyMed",1,2,52,29,252.16,120.1,1,"Easy",76,1,0.46073
"PLY12",1002,"EasyMed",1,2,53,28,220.68,88.411,1,"Easy",76,1,0.32492
"PLY12",1002,"EasyMed",1,2,54,5,150.89,285,0,"Easy",68,1,0.89514
"PLY12",1002,"EasyMed",1,2,55,29,252.16,120.1,1,"Easy",76,1,0.40574
"PLY12",1002,"EasyMed",1,2,56,2,56.474,189.87,0,"Easy",68,1,0.62008
"PLY12",1002,"EasyMed",1,2,57,4,119.42,253.28,0,"Easy",68,1,0.84029
"PLY12",1002,"EasyMed",1,2,58,3,87.947,221.56,0,"Easy",76,0,0.54573
"PLY12",1002,"EasyMed",1,2,59,30,285,151.82,1,"Easy",76,1,0.45001
"PLY12",1002,"EasyMed",1,2,60,30,285,151.82,1,"Easy",76,1,0.33556
"PLY12",1002,"EasyMed",1,2,61,4,119.42,253.28,0,"Easy",68,1,0.60573
"PLY12",1002,"EasyMed",1,2,62,29,252.16,120.1,1,"Easy",76,1,0.4203
"PLY12",1002,"EasyMed",1,2,63,27,189.21,56.691,1,"Easy",76,1,0.53527
"PLY12",1002,"EasyMed",1,2,64,4,119.42,253.28,0,"Easy",68,1,0.58557
"PLY12",1002,"EasyMed",1,2,65,27,189.21,56.691,1,"Easy",76,1,0.37097
"PLY12",1002,"EasyMed",1,2,66,26,157.74,25,1,"Easy",76,1,0.38091
"PLY12",1002,"EasyMed",1,2,67,5,150.89,285,0,"Easy",68,1,0.59525
"PLY12",1002,"EasyMed",1,2,68,2,56.474,189.87,0,"Easy",76,0,0.43995
"PLY12",1002,"EasyMed",1,2,69,2,56.474,189.87,0,"Easy",76,0,0.43528
"PLY12",1002,"EasyMed",1,2,70,3,87.947,221.56,0,"Easy",68,1,0.50043
"PLY12",1002,"EasyMed",1,2,71,26,157.74,25,1,"Easy",76,1,0.6052
"PLY12",1002,"EasyMed",1,2,72,3,87.947,221.56,0,"Easy",68,1,1.1058
"PLY12",1002,"EasyMed",1,2,73,3,87.947,221.56,0,"Easy",68,1,0.73062
"PLY12",1002,"EasyMed",1,2,74,4,119.42,253.28,0,"Easy",68,1,0.71016
"PLY12",1002,"EasyMed",1,2,75,1,25,158.15,0,"Easy",68,1,0.67
"PLY12",1002,"EasyMed",1,2,76,3,87.947,221.56,0,"Easy",68,1,0.48083
"PLY12",1002,"EasyMed",1,2,77,26,157.74,25,1,"Easy",76,1,0.44004
"PLY12",1002,"EasyMed",1,2,78,2,56.474,189.87,0,"Easy",68,1,0.47551
"PLY12",1002,"EasyMed",1,2,79,28,220.68,88.411,1,"Easy",76,1,0.36564
"PLY12",1002,"EasyMed",1,2,80,2,56.474,189.87,0,"Easy",68,1,0.73551
"PLY12",1002,"EasyMed",1,2,81,28,220.68,88.411,1,"Easy",76,1,0.40501
"PLY12",1002,"EasyMed",1,2,82,29,252.16,120.1,1,"Easy",76,1,0.45577
"PLY12",1002,"EasyMed",1,2,83,30,285,151.82,1,"Easy",76,1,0.34002
"PLY12",1002,"EasyMed",1,2,84,26,157.74,25,1,"Easy",76,1,0.92518
"PLY12",1002,"EasyMed",1,2,85,1,25,158.15,0,"Easy",68,1,0.45582
"PLY12",1002,"EasyMed",1,2,86,29,252.16,120.1,1,"Easy",76,1,0.36084
"PLY12",1002,"EasyMed",1,2,87,27,189.21,56.691,1,"Easy",76,1,0.51065
"PLY12",1002,"EasyMed",1,2,88,26,157.74,25,1,"Easy",76,1,0.40551
"PLY12",1002,"EasyMed",1,2,89,28,220.68,88.411,1,"Easy",76,1,0.32533
"PLY12",1002,"EasyMed",1,2,90,5,150.89,285,0,"Easy",68,1,0.63052
"PLY12",1002,"EasyMed",1,2,91,28,220.68,88.411,1,"Easy",76,1,0.33073
"PLY12",1002,"EasyMed",1,2,92,3,87.947,221.56,0,"Easy",68,1,0.51083
"PLY12",1002,"EasyMed",1,2,93,5,150.89,285,0,"Easy",76,0,0.46562
"PLY12",1002,"EasyMed",1,2,94,27,189.21,56.691,1,"Easy",76,1,0.47579
"PLY12",1002,"EasyMed",1,2,95,5,150.89,285,0,"Easy",68,1,0.53995
"PLY12",1002,"EasyMed",1,2,96,27,189.21,56.691,1,"Easy",76,1,1.0604
"PLY12",1002,"EasyMed",1,2,97,5,150.89,285,0,"Easy",68,1,0.59062
"PLY12",1002,"EasyMed",1,2,98,2,56.474,189.87,0,"Easy",76,0,0.35016
"PLY12",1002,"EasyMed",1,2,99,3,87.947,221.56,0,"Easy",68,1,0.53992
"PLY12",1002,"EasyMed",1,2,100,30,285,151.82,1,"Easy",76,1,0.46018
"PLY12",1002,"EasyMed",1,3,101,3,87.947,221.56,0,"Easy",68,1,0.60578
"PLY12",1002,"EasyMed",1,3,102,5,150.89,285,0,"Easy",68,1,0.56048
"PLY12",1002,"EasyMed",1,3,103,26,157.74,25,1,"Easy",76,1,0.49541
"PLY12",1002,"EasyMed",1,3,104,29,252.16,120.1,1,"Easy",76,1,0.50518
"PLY12",1002,"EasyMed",1,3,105,29,252.16,120.1,1,"Easy",76,1,0.35496
"PLY12",1002,"EasyMed",1,3,106,1,25,158.15,0,"Easy",68,1,0.50581
"PLY12",1002,"EasyMed",1,3,107,4,119.42,253.28,0,"Easy",68,1,0.72032
"PLY12",1002,"EasyMed",1,3,108,4,119.42,253.28,0,"Easy",68,1,0.54548
"PLY12",1002,"EasyMed",1,3,109,4,119.42,253.28,0,"Easy",68,1,0.4403
"PLY12",1002,"EasyMed",1,3,110,2,56.474,189.87,0,"Easy",68,1,0.36584
"PLY12",1002,"EasyMed",1,3,111,1,25,158.15,0,"Easy",68,1,0.38063
"PLY12",1002,"EasyMed",1,3,112,28,220.68,88.411,1,"Easy",76,1,0.44015
"PLY12",1002,"EasyMed",1,3,113,2,56.474,189.87,0,"Easy",68,1,0.54061
"PLY12",1002,"EasyMed",1,3,114,29,252.16,120.1,1,"Easy",76,1,0.38012
"PLY12",1002,"EasyMed",1,3,115,2,56.474,189.87,0,"Easy",68,1,0.46524
"PLY12",1002,"EasyMed",1,3,116,5,150.89,285,0,"Easy",68,1,0.70044
"PLY12",1002,"EasyMed",1,3,117,1,25,158.15,0,"Easy",68,1,0.485
"PLY12",1002,"EasyMed",1,3,118,5,150.89,285,0,"Easy",68,1,0.44516
"PLY12",1002,"EasyMed",1,3,119,26,157.74,25,1,"Easy",76,1,0.41064
"PLY12",1002,"EasyMed",1,3,120,3,87.947,221.56,0,"Easy",76,0,0.61552
"PLY12",1002,"EasyMed",1,3,121,27,189.21,56.691,1,"Easy",76,1,0.55566
"PLY12",1002,"EasyMed",1,3,122,30,285,151.82,1,"Easy",68,0,0.49014
"PLY12",1002,"EasyMed",1,3,123,1,25,158.15,0,"Easy",68,1,0.65031
"PLY12",1002,"EasyMed",1,3,124,30,285,151.82,1,"Easy",76,1,0.65517
"PLY12",1002,"EasyMed",1,3,125,5,150.89,285,0,"Easy",68,1,0.73076
"PLY12",1002,"EasyMed",1,3,126,29,252.16,120.1,1,"Easy",76,1,0.51584
"PLY12",1002,"EasyMed",1,3,127,30,285,151.82,1,"Easy",76,1,0.54065
"PLY12",1002,"EasyMed",1,3,128,5,150.89,285,0,"Easy",68,1,0.44992
"PLY12",1002,"EasyMed",1,3,129,3,87.947,221.56,0,"Easy",68,1,1.0567
"PLY12",1002,"EasyMed",1,3,130,26,157.74,25,1,"Easy",76,1,0.94521
"PLY12",1002,"EasyMed",1,3,131,27,189.21,56.691,1,"Easy",76,1,0.48499
"PLY12",1002,"EasyMed",1,3,132,4,119.42,253.28,0,"Easy",68,1,0.63054
"PLY12",1002,"EasyMed",1,3,133,1,25,158.15,0,"Easy",68,1,0.57077
"PLY12",1002,"EasyMed",1,3,134,1,25,158.15,0,"Easy",68,1,0.46085
"PLY12",1002,"EasyMed",1,3,135,29,252.16,120.1,1,"Easy",76,1,0.40505
"PLY12",1002,"EasyMed",1,3,136,27,189.21,56.691,1,"Easy",76,1,0.37085
"PLY12",1002,"EasyMed",1,3,137,28,220.68,88.411,1,"Easy",76,1,0.48577
"PLY12",1002,"EasyMed",1,3,138,28,220.68,88.411,1,"Easy",76,1,0.36089
"PLY12",1002,"EasyMed",1,3,139,26,157.74,25,1,"Easy",76,1,0.53576
"PLY12",1002,"EasyMed",1,3,140,30,285,151.82,1,"Easy",76,1,0.43996
"PLY12",1002,"EasyMed",1,3,141,2,56.474,189.87,0,"Easy",68,1,0.57614
"PLY12",1002,"EasyMed",1,3,142,1,25,158.15,0,"Easy",68,1,0.42084
"PLY12",1002,"EasyMed",1,3,143,28,220.68,88.411,1,"Easy",76,1,0.44003
"PLY12",1002,"EasyMed",1,3,144,29,252.16,120.1,1,"Easy",76,1,0.31546
"PLY12",1002,"EasyMed",1,3,145,30,285,151.82,1,"Easy",76,1,0.29066
"PLY12",1002,"EasyMed",1,3,146,30,285,151.82,1,"Easy",76,1,0.38016
"PLY12",1002,"EasyMed",1,3,147,28,220.68,88.411,1,"Easy",76,1,0.33561
"PLY12",1002,"EasyMed",1,3,148,5,150.89,285,0,"Easy",68,1,0.5202
"PLY12",1002,"EasyMed",1,3,149,28,220.68,88.411,1,"Easy",76,1,0.40993
"PLY12",1002,"EasyMed",1,3,150,26,157.74,25,1,"Easy",76,1,0.45552
"PLY12",1002,"EasyMed",2,1,151,6,46.895,135.96,0,"Medium",68,1,0.64
"PLY12",1002,"EasyMed",2,1,152,24,230.26,142.32,1,"Medium",76,1,0.45551
"PLY12",1002,"EasyMed",2,1,153,22,167.32,78.878,1,"Medium",76,1,0.38012
"PLY12",1002,"EasyMed",2,1,154,8,109.84,199.37,0,"Medium",76,0,0.52049
"PLY12",1002,"EasyMed",2,1,155,25,261.74,174.01,1,"Medium",76,1,0.50536
"PLY12",1002,"EasyMed",2,1,156,21,135.84,47.187,1,"Medium",76,1,0.60515
"PLY12",1002,"EasyMed",2,1,157,9,141.32,231.09,0,"Medium",76,0,0.51067
"PLY12",1002,"EasyMed",2,1,158,7,78.368,167.68,0,"Medium",68,1,0.70585
"PLY12",1002,"EasyMed",2,1,159,23,198.79,110.6,1,"Medium",76,1,0.49036
"PLY12",1002,"EasyMed",2,1,160,25,261.74,174.01,1,"Medium",76,1,0.46549
"PLY12",1002,"EasyMed",2,1,161,24,230.26,142.32,1,"Medium",76,1,0.36564
"PLY12",1002,"EasyMed",2,1,162,6,46.895,135.96,0,"Medium",68,1,0.51551
"PLY12",1002,"EasyMed",2,1,163,25,261.74,174.01,1,"Medium",76,1,0.31568
"PLY12",1002,"EasyMed",2,1,164,24,230.26,142.32,1,"Medium",76,1,0.37084
"PLY12",1002,"EasyMed",2,1,165,22,167.32,78.878,1,"Medium",76,1,0.33069
"PLY12",1002,"EasyMed",2,1,166,22,167.32,78.878,1,"Medium",76,1,0.37079
"PLY12",1002,"EasyMed",2,1,167,25,261.74,174.01,1,"Medium",76,1,0.37063
"PLY12",1002,"EasyMed",2,1,168,21,135.84,47.187,1,"Medium",76,1,0.57045
"PLY12",1002,"EasyMed",2,1,169,25,261.74,174.01,1,"Medium",76,1,0.35023
"PLY12",1002,"EasyMed",2,1,170,22,167.32,78.878,1,"Medium",76,1,0.42082
"PLY12",1002,"EasyMed",2,1,171,9,141.32,231.09,0,"Medium",76,0,0.56503
"PLY12",1002,"EasyMed",2,1,172,7,78.368,167.68,0,"Medium",68,1,0.44025
"PLY12",1002,"EasyMed",2,1,173,22,167.32,78.878,1,"Medium",76,1,0.45056
"PLY12",1002,"EasyMed",2,1,174,6,46.895,135.96,0,"Medium",68,1,0.70513
"PLY12",1002,"EasyMed",2,1,175,7,78.368,167.68,0,"Medium",68,1,0.54564
"PLY12",1002,"EasyMed",2,1,176,21,135.84,47.187,1,"Medium",76,1,0.42539
"PLY12",1002,"EasyMed",2,1,177,9,141.32,231.09,0,"Medium",76,0,0.82057
"PLY12",1002,"EasyMed",2,1,178,22,167.32,78.878,1,"Medium",76,1,0.48075
"PLY12",1002,"EasyMed",2,1,179,21,135.84,47.187,1,"Medium",76,1,0.34495
"PLY12",1002,"EasyMed",2,1,180,25,261.74,174.01,1,"Medium",76,1,0.40071
"PLY12",1002,"EasyMed",2,1,181,6,46.895,135.96,0,"Medium",68,1,0.50061
"PLY12",1002,"EasyMed",2,1,182,24,230.26,142.32,1,"Medium",76,1,0.48552
"PLY12",1002,"EasyMed",2,1,183,10,172.79,262.78,0,"Medium",68,1,0.80054
"PLY12",1002,"EasyMed",2,1,184,24,230.26,142.32,1,"Medium",76,1,0.39519
"PLY12",1002,"EasyMed",2,1,185,21,135.84,47.187,1,"Medium",76,1,0.52088
"PLY12",1002,"EasyMed",2,1,186,8,109.84,199.37,0,"Medium",76,0,0.47514
"PLY12",1002,"EasyMed",2,1,187,10,172.79,262.78,0,"Medium",68,1,0.6612
"PLY12",1002,"EasyMed",2,1,188,7,78.368,167.68,0,"Medium",68,1,0.39019
"PLY12",1002,"EasyMed",2,1,189,23,198.79,110.6,1,"Medium",76,1,0.50055
"PLY12",1002,"EasyMed",2,1,190,23,198.79,110.6,1,"Medium",76,1,0.43527
"PLY12",1002,"EasyMed",2,1,191,8,109.84,199.37,0,"Medium",68,1,0.95022
"PLY12",1002,"EasyMed",2,1,192,8,109.84,199.37,0,"Medium",68,1,0.56513
"PLY12",1002,"EasyMed",2,1,193,10,172.79,262.78,0,"Medium",68,1,0.89498
"PLY12",1002,"EasyMed",2,1,194,8,109.84,199.37,0,"Medium",68,1,0.92552
"PLY12",1002,"EasyMed",2,1,195,24,230.26,142.32,1,"Medium",76,1,0.46567
"PLY12",1002,"EasyMed",2,1,196,25,261.74,174.01,1,"Medium",76,1,0.42579
"PLY12",1002,"EasyMed",2,1,197,7,78.368,167.68,0,"Medium",68,1,0.50606
"PLY12",1002,"EasyMed",2,1,198,23,198.79,110.6,1,"Medium",76,1,0.47582
"PLY12",1002,"EasyMed",2,1,199,9,141.32,231.09,0,"Medium",76,0,0.53996
"PLY12",1002,"EasyMed",2,1,200,8,109.84,199.37,0,"Medium",68,1,0.58053
"PLY12",1002,"EasyMed",2,2,201,8,109.84,199.37,0,"Medium",68,1,0.57995
"PLY12",1002,"EasyMed",2,2,202,10,172.79,262.78,0,"Medium",76,0,0.59055
"PLY12",1002,"EasyMed",2,2,203,6,46.895,135.96,0,"Medium",68,1,0.66005
"PLY12",1002,"EasyMed",2,2,204,25,261.74,174.01,1,"Medium",76,1,0.83083
"PLY12",1002,"EasyMed",2,2,205,21,135.84,47.187,1,"Medium",76,1,0.56535
"PLY12",1002,"EasyMed",2,2,206,10,172.79,262.78,0,"Medium",68,1,1.0102
"PLY12",1002,"EasyMed",2,2,207,9,141.32,231.09,0,"Medium",68,1,0.83013
"PLY12",1002,"EasyMed",2,2,208,8,109.84,199.37,0,"Medium",68,1,0.68056
"PLY12",1002,"EasyMed",2,2,209,6,46.895,135.96,0,"Medium",68,1,0.6851
"PLY12",1002,"EasyMed",2,2,210,8,109.84,199.37,0,"Medium",68,1,0.59532
"PLY12",1002,"EasyMed",2,2,211,24,230.26,142.32,1,"Medium",76,1,0.50586
"PLY12",1002,"EasyMed",2,2,212,9,141.32,231.09,0,"Medium",68,1,0.86063
"PLY12",1002,"EasyMed",2,2,213,9,141.32,231.09,0,"Medium",68,1,0.6858
"PLY12",1002,"EasyMed",2,2,214,10,172.79,262.78,0,"Medium",68,1,0.82989
"PLY12",1002,"EasyMed",2,2,215,8,109.84,199.37,0,"Medium",68,1,0.5406
"PLY12",1002,"EasyMed",2,2,216,23,198.79,110.6,1,"Medium",76,1,0.52074
"PLY12",1002,"EasyMed",2,2,217,22,167.32,78.878,1,"Medium",76,1,0.4206
"PLY12",1002,"EasyMed",2,2,218,25,261.74,174.01,1,"Medium",76,1,0.48559
"PLY12",1002,"EasyMed",2,2,219,24,230.26,142.32,1,"Medium",76,1,0.38519
"PLY12",1002,"EasyMed",2,2,220,23,198.79,110.6,1,"Medium",76,1,0.50062
"PLY12",1002,"EasyMed",2,2,221,21,135.84,47.187,1,"Medium",76,1,0.76053
"PLY12",1002,"EasyMed",2,2,222,6,46.895,135.96,0,"Medium",68,1,0.52563
"PLY12",1002,"EasyMed",2,2,223,6,46.895,135.96,0,"Medium",68,1,0.45086
"PLY12",1002,"EasyMed",2,2,224,6,46.895,135.96,0,"Medium",68,1,0.38565
"PLY12",1002,"EasyMed",2,2,225,21,135.84,47.187,1,"Medium",76,1,0.59583
"PLY12",1002,"EasyMed",2,2,226,6,46.895,135.96,0,"Medium",68,1,0.54565
"PLY12",1002,"EasyMed",2,2,227,9,141.32,231.09,0,"Medium",68,1,1.0805
"PLY12",1002,"EasyMed",2,2,228,7,78.368,167.68,0,"Medium",68,1,0.48073
"PLY12",1002,"EasyMed",2,2,229,7,78.368,167.68,0,"Medium",68,1,0.37089
"PLY12",1002,"EasyMed",2,2,230,10,172.79,262.78,0,"Medium",76,0,0.54005
"PLY12",1002,"EasyMed",2,2,231,22,167.32,78.878,1,"Medium",76,1,0.5155
"PLY12",1002,"EasyMed",2,2,232,25,261.74,174.01,1,"Medium",76,1,0.49039
"PLY12",1002,"EasyMed",2,2,233,23,198.79,110.6,1,"Medium",76,1,0.44553
"PLY12",1002,"EasyMed",2,2,234,7,78.368,167.68,0,"Medium",68,1,0.57
"PLY12",1002,"EasyMed",2,2,235,23,198.79,110.6,1,"Medium",76,1,0.43018
"PLY12",1002,"EasyMed",2,2,236,23,198.79,110.6,1,"Medium",76,1,0.44065
"PLY12",1002,"EasyMed",2,2,237,25,261.74,174.01,1,"Medium",76,1,0.39013
"PLY12",1002,"EasyMed",2,2,238,10,172.79,262.78,0,"Medium",68,1,0.63548
"PLY12",1002,"EasyMed",2,2,239,24,230.26,142.32,1,"Medium",76,1,0.41565
"PLY12",1002,"EasyMed",2,2,240,22,167.32,78.878,1,"Medium",76,1,0.44062
"PLY12",1002,"EasyMed",2,2,241,21,135.84,47.187,1,"Medium",76,1,0.62017
"PLY12",1002,"EasyMed",2,2,242,10,172.79,262.78,0,"Medium",68,1,0.50532
"PLY12",1002,"EasyMed",2,2,243,9,141.32,231.09,0,"Medium",76,0,0.58016
"PLY12",1002,"EasyMed",2,2,244,8,109.84,199.37,0,"Medium",68,1,0.67064
"PLY12",1002,"EasyMed",2,2,245,6,46.895,135.96,0,"Medium",68,1,0.47553
"PLY12",1002,"EasyMed",2,2,246,9,141.32,231.09,0,"Medium",68,1,1.2607
"PLY12",1002,"EasyMed",2,2,247,23,198.79,110.6,1,"Medium",76,1,0.45565
"PLY12",1002,"EasyMed",2,2,248,7,78.368,167.68,0,"Medium",68,1,0.5401
"PLY12",1002,"EasyMed",2,2,249,22,167.32,78.878,1,"Medium",76,1,0.6403
"PLY12",1002,"EasyMed",2,2,250,6,46.895,135.96,0,"Medium",68,1,0.57556
"PLY12",1002,"EasyMed",2,3,251,22,167.32,78.878,1,"Medium",76,1,0.43556
"PLY12",1002,"EasyMed",2,3,252,23,198.79,110.6,1,"Medium",76,1,0.56007
"PLY12",1002,"EasyMed",2,3,253,9,141.32,231.09,0,"Medium",68,1,0.83058
"PLY12",1002,"EasyMed",2,3,254,8,109.84,199.37,0,"Medium",68,1,0.43573
"PLY12",1002,"EasyMed",2,3,255,24,230.26,142.32,1,"Medium",76,1,0.48026
"PLY12",1002,"EasyMed",2,3,256,8,109.84,199.37,0,"Medium",68,1,0.76057
"PLY12",1002,"EasyMed",2,3,257,21,135.84,47.187,1,"Medium",76,1,0.68061
"PLY12",1002,"EasyMed",2,3,258,22,167.32,78.878,1,"Medium",76,1,0.55009
"PLY12",1002,"EasyMed",2,3,259,24,230.26,142.32,1,"Medium",76,1,0.4406
"PLY12",1002,"EasyMed",2,3,260,23,198.79,110.6,1,"Medium",76,1,0.50014
"PLY12",1002,"EasyMed",2,3,261,10,172.79,262.78,0,"Medium",68,1,0.70589
"PLY12",1002,"EasyMed",2,3,262,10,172.79,262.78,0,"Medium",68,1,0.65076
"PLY12",1002,"EasyMed",2,3,263,7,78.368,167.68,0,"Medium",68,1,0.57556
"PLY12",1002,"EasyMed",2,3,264,7,78.368,167.68,0,"Medium",68,1,0.38053
"PLY12",1002,"EasyMed",2,3,265,25,261.74,174.01,1,"Medium",76,1,0.53993
"PLY12",1002,"EasyMed",2,3,266,9,141.32,231.09,0,"Medium",68,1,0.72043
"PLY12",1002,"EasyMed",2,3,267,9,141.32,231.09,0,"Medium",68,1,0.59532
"PLY12",1002,"EasyMed",2,3,268,24,230.26,142.32,1,"Medium",76,1,0.48089
"PLY12",1002,"EasyMed",2,3,269,24,230.26,142.32,1,"Medium",76,1,1.44
"PLY12",1002,"EasyMed",2,3,270,8,109.84,199.37,0,"Medium",68,1,0.63555
"PLY12",1002,"EasyMed",2,3,271,10,172.79,262.78,0,"Medium",68,1,0.69071
"PLY12",1002,"EasyMed",2,3,272,7,78.368,167.68,0,"Medium",68,1,0.58084
"PLY12",1002,"EasyMed",2,3,273,23,198.79,110.6,1,"Medium",76,1,0.5151
"PLY12",1002,"EasyMed",2,3,274,7,78.368,167.68,0,"Medium",68,1,0.54529
"PLY12",1002,"EasyMed",2,3,275,21,135.84,47.187,1,"Medium",76,1,0.52073
"PLY12",1002,"EasyMed",2,3,276,21,135.84,47.187,1,"Medium",76,1,0.57053
"PLY12",1002,"EasyMed",2,3,277,8,109.84,199.37,0,"Medium",68,1,0.69538
"PLY12",1002,"EasyMed",2,3,278,7,78.368,167.68,0,"Medium",68,1,0.45599
"PLY12",1002,"EasyMed",2,3,279,22,167.32,78.878,1,"Medium",76,1,0.44551
"PLY12",1002,"EasyMed",2,3,280,25,261.74,174.01,1,"Medium",76,1,0.60089
"PLY12",1002,"EasyMed",2,3,281,24,230.26,142.32,1,"Medium",76,1,0.39511
"PLY12",1002,"EasyMed",2,3,282,10,172.79,262.78,0,"Medium",68,1,0.65054
"PLY12",1002,"EasyMed",2,3,283,6,46.895,135.96,0,"Medium",68,1,0.49511
"PLY12",1002,"EasyMed",2,3,284,23,198.79,110.6,1,"Medium",76,1,0.47084
"PLY12",1002,"EasyMed",2,3,285,10,172.79,262.78,0,"Medium",68,1,0.61008
"PLY12",1002,"EasyMed",2,3,286,21,135.84,47.187,1,"Medium",76,1,0.52657
"PLY12",1002,"EasyMed",2,3,287,24,230.26,142.32,1,"Medium",76,1,0.46539
"PLY12",1002,"EasyMed",2,3,288,21,135.84,47.187,1,"Medium",76,1,0.65053
"PLY12",1002,"EasyMed",2,3,289,22,167.32,78.878,1,"Medium",76,1,0.47536
"PLY12",1002,"EasyMed",2,3,290,10,172.79,262.78,0,"Medium",68,1,0.61549
"PLY12",1002,"EasyMed",2,3,291,9,141.32,231.09,0,"Medium",68,1,0.81564
"PLY12",1002,"EasyMed",2,3,292,25,261.74,174.01,1,"Medium",76,1,0.49589
"PLY12",1002,"EasyMed",2,3,293,6,46.895,135.96,0,"Medium",68,1,0.56572
"PLY12",1002,"EasyMed",2,3,294,23,198.79,110.6,1,"Medium",76,1,0.4457
"PLY12",1002,"EasyMed",2,3,295,25,261.74,174.01,1,"Medium",76,1,0.48037
"PLY12",1002,"EasyMed",2,3,296,21,135.84,47.187,1,"Medium",76,1,1.2799
"PLY12",1002,"EasyMed",2,3,297,9,141.32,231.09,0,"Medium",68,1,0.70543
"PLY12",1002,"EasyMed",2,3,298,6,46.895,135.96,0,"Medium",68,1,0.54532
"PLY12",1002,"EasyMed",2,3,299,22,167.32,78.878,1,"Medium",76,1,0.51589
"PLY12",1002,"EasyMed",2,3,300,7,78.368,167.68,0,"Medium",68,1,0.69066
"PLY12",1003,"EasyMed",1,1,1,26,157.74,25,1,"Easy",68,0,3.3673
"PLY12",1003,"EasyMed",1,1,2,28,220.68,88.411,1,"Easy",76,1,1.4209
"PLY12",1003,"EasyMed",1,1,3,29,252.16,120.1,1,"Easy",76,1,0.77505
"PLY12",1003,"EasyMed",1,1,4,30,285,151.82,1,"Easy",76,1,0.55021
"PLY12",1003,"EasyMed",1,1,5,28,220.68,88.411,1,"Easy",76,1,0.60505
"PLY12",1003,"EasyMed",1,1,6,4,119.42,253.28,0,"Easy",68,1,0.57646
"PLY12",1003,"EasyMed",1,1,7,4,119.42,253.28,0,"Easy",68,1,0.49009
"PLY12",1003,"EasyMed",1,1,8,26,157.74,25,1,"Easy",76,1,0.76057
"PLY12",1003,"EasyMed",1,1,9,26,157.74,25,1,"Easy",76,1,0.40067
"PLY12",1003,"EasyMed",1,1,10,27,189.21,56.691,1,"Easy",76,1,0.51553
"PLY12",1003,"EasyMed",1,1,11,4,119.42,253.28,0,"Easy",68,1,0.44568
"PLY12",1003,"EasyMed",1,1,12,1,25,158.15,0,"Easy",76,0,0.52052
"PLY12",1003,"EasyMed",1,1,13,27,189.21,56.691,1,"Easy",76,1,0.5908
"PLY12",1003,"EasyMed",1,1,14,26,157.74,25,1,"Easy",76,1,0.51022
"PLY12",1003,"EasyMed",1,1,15,27,189.21,56.691,1,"Easy",76,1,0.51034
"PLY12",1003,"EasyMed",1,1,16,2,56.474,189.87,0,"Easy",68,1,0.95554
"PLY12",1003,"EasyMed",1,1,17,1,25,158.15,0,"Easy",68,1,0.68543
"PLY12",1003,"EasyMed",1,1,18,30,285,151.82,1,"Easy",76,1,0.46091
"PLY12",1003,"EasyMed",1,1,19,27,189.21,56.691,1,"Easy",76,1,0.52513
"PLY12",1003,"EasyMed",1,1,20,2,56.474,189.87,0,"Easy",68,1,0.91032
"PLY12",1003,"EasyMed",1,1,21,3,87.947,221.56,0,"Easy",68,1,1.4305
"PLY12",1003,"EasyMed",1,1,22,29,252.16,120.1,1,"Easy",76,1,0.53004
"PLY12",1003,"EasyMed",1,1,23,5,150.89,285,0,"Easy",76,0,1.4309
"PLY12",1003,"EasyMed",1,1,24,28,220.68,88.411,1,"Easy",76,1,0.60578
"PLY12",1003,"EasyMed",1,1,25,2,56.474,189.87,0,"Easy",68,1,0.82026
"PLY12",1003,"EasyMed",1,1,26,29,252.16,120.1,1,"Easy",76,1,0.50509
"PLY12",1003,"EasyMed",1,1,27,5,150.89,285,0,"Easy",68,1,0.40062
"PLY12",1003,"EasyMed",1,1,28,3,87.947,221.56,0,"Easy",68,1,1.1103
"PLY12",1003,"EasyMed",1,1,29,28,220.68,88.411,1,"Easy",76,1,0.72501
"PLY12",1003,"EasyMed",1,1,30,2,56.474,189.87,0,"Easy",68,1,0.92517
"PLY12",1003,"EasyMed",1,1,31,3,87.947,221.56,0,"Easy",68,1,0.6803
"PLY12",1003,"EasyMed",1,1,32,3,87.947,221.56,0,"Easy",68,1,0.65554
"PLY12",1003,"EasyMed",1,1,33,2,56.474,189.87,0,"Easy",68,1,0.48607
"PLY12",1003,"EasyMed",1,1,34,27,189.21,56.691,1,"Easy",76,1,0.46051
"PLY12",1003,"EasyMed",1,1,35,1,25,158.15,0,"Easy",68,1,0.64064
"PLY12",1003,"EasyMed",1,1,36,27,189.21,56.691,1,"Easy",76,1,0.47587
"PLY12",1003,"EasyMed",1,1,37,3,87.947,221.56,0,"Easy",68,1,0.66072
"PLY12",1003,"EasyMed",1,1,38,29,252.16,120.1,1,"Easy",76,1,0.59082
"PLY12",1003,"EasyMed",1,1,39,30,285,151.82,1,"Easy",76,1,0.44534
"PLY12",1003,"EasyMed",1,1,40,30,285,151.82,1,"Easy",76,1,0.59056
"PLY12",1003,"EasyMed",1,1,41,4,119.42,253.28,0,"Easy",68,1,0.67534
"PLY12",1003,"EasyMed",1,1,42,27,189.21,56.691,1,"Easy",76,1,0.4702
"PLY12",1003,"EasyMed",1,1,43,30,285,151.82,1,"Easy",76,1,0.5404
"PLY12",1003,"EasyMed",1,1,44,26,157.74,25,1,"Easy",76,1,0.61586
"PLY12",1003,"EasyMed",1,1,45,4,119.42,253.28,0,"Easy",68,1,0.83004
"PLY12",1003,"EasyMed",1,1,46,4,119.42,253.28,0,"Easy",68,1,0.49039
"PLY12",1003,"EasyMed",1,1,47,4,119.42,253.28,0,"Easy",68,1,0.52562
"PLY12",1003,"EasyMed",1,1,48,1,25,158.15,0,"Easy",68,1,0.87527
"PLY12",1003,"EasyMed",1,1,49,5,150.89,285,0,"Easy",68,1,0.8854
"PLY12",1003,"EasyMed",1,1,50,1,25,158.15,0,"Easy",68,1,0.69591
"PLY12",1003,"EasyMed",1,2,51,1,25,158.15,0,"Easy",68,1,0.52082
"PLY12",1003,"EasyMed",1,2,52,29,252.16,120.1,1,"Easy",68,0,0.44064
"PLY12",1003,"EasyMed",1,2,53,28,220.68,88.411,1,"Easy",76,1,0.75018
"PLY12",1003,"EasyMed",1,2,54,5,150.89,285,0,"Easy",68,1,0.57083
"PLY12",1003,"EasyMed",1,2,55,29,252.16,120.1,1,"Easy",76,1,0.37573
"PLY12",1003,"EasyMed",1,2,56,2,56.474,189.87,0,"Easy",68,1,0.69063
"PLY12",1003,"EasyMed",1,2,57,4,119.42,253.28,0,"Easy",68,1,0.94578
"PLY12",1003,"EasyMed",1,2,58,3,87.947,221.56,0,"Easy",68,1,1.4904
"PLY12",1003,"EasyMed",1,2,59,30,285,151.82,1,"Easy",76,1,0.51589
"PLY12",1003,"EasyMed",1,2,60,30,285,151.82,1,"Easy",76,1,0.46008
"PLY12",1003,"EasyMed",1,2,61,4,119.42,253.28,0,"Easy",68,1,0.80556
"PLY12",1003,"EasyMed",1,2,62,29,252.16,120.1,1,"Easy",76,1,0.55012
"PLY12",1003,"EasyMed",1,2,63,27,189.21,56.691,1,"Easy",76,1,0.81091
"PLY12",1003,"EasyMed",1,2,64,4,119.42,253.28,0,"Easy",68,1,0.88018
"PLY12",1003,"EasyMed",1,2,65,27,189.21,56.691,1,"Easy",76,1,1.1057
"PLY12",1003,"EasyMed",1,2,66,26,157.74,25,1,"Easy",76,1,0.61054
"PLY12",1003,"EasyMed",1,2,67,5,150.89,285,0,"Easy",68,1,0.78069
"PLY12",1003,"EasyMed",1,2,68,2,56.474,189.87,0,"Easy",68,1,0.77644
"PLY12",1003,"EasyMed",1,2,69,2,56.474,189.87,0,"Easy",68,1,0.89508
"PLY12",1003,"EasyMed",1,2,70,3,87.947,221.56,0,"Easy",68,1,0.69589
"PLY12",1003,"EasyMed",1,2,71,26,157.74,25,1,"Easy",76,1,1.2957
"PLY12",1003,"EasyMed",1,2,72,3,87.947,221.56,0,"Easy",68,1,0.91562
"PLY12",1003,"EasyMed",1,2,73,3,87.947,221.56,0,"Easy",68,1,0.475
"PLY12",1003,"EasyMed",1,2,74,4,119.42,253.28,0,"Easy",68,1,0.71499
"PLY12",1003,"EasyMed",1,2,75,1,25,158.15,0,"Easy",68,1,0.66021
"PLY12",1003,"EasyMed",1,2,76,3,87.947,221.56,0,"Easy",68,1,0.69499
"PLY12",1003,"EasyMed",1,2,77,26,157.74,25,1,"Easy",76,1,0.52079
"PLY12",1003,"EasyMed",1,2,78,2,56.474,189.87,0,"Easy",68,1,0.57506
"PLY12",1003,"EasyMed",1,2,79,28,220.68,88.411,1,"Easy",76,1,0.60519
"PLY12",1003,"EasyMed",1,2,80,2,56.474,189.87,0,"Easy",68,1,1.08
"PLY12",1003,"EasyMed",1,2,81,28,220.68,88.411,1,"Easy",76,1,1.8106
"PLY12",1003,"EasyMed",1,2,82,29,252.16,120.1,1,"Easy",76,1,0.49574
"PLY12",1003,"EasyMed",1,2,83,30,285,151.82,1,"Easy",76,1,0.45563
"PLY12",1003,"EasyMed",1,2,84,26,157.74,25,1,"Easy",76,1,0.61016
"PLY12",1003,"EasyMed",1,2,85,1,25,158.15,0,"Easy",68,1,0.59065
"PLY12",1003,"EasyMed",1,2,86,29,252.16,120.1,1,"Easy",76,1,0.88519
"PLY12",1003,"EasyMed",1,2,87,27,189.21,56.691,1,"Easy",76,1,0.98542
"PLY12",1003,"EasyMed",1,2,88,26,157.74,25,1,"Easy",76,1,0.39057
"PLY12",1003,"EasyMed",1,2,89,28,220.68,88.411,1,"Easy",76,1,0.32499
"PLY12",1003,"EasyMed",1,2,90,5,150.89,285,0,"Easy",68,1,0.73019
"PLY12",1003,"EasyMed",1,2,91,28,220.68,88.411,1,"Easy",76,1,0.94572
"PLY12",1003,"EasyMed",1,2,92,3,87.947,221.56,0,"Easy",68,1,1.0106
"PLY12",1003,"EasyMed",1,2,93,5,150.89,285,0,"Easy",68,1,0.67569
"PLY12",1003,"EasyMed",1,2,94,27,189.21,56.691,1,"Easy",76,1,0.5509
"PLY12",1003,"EasyMed",1,2,95,5,150.89,285,0,"Easy",68,1,0.74079
"PLY12",1003,"EasyMed",1,2,96,27,189.21,56.691,1,"Easy",76,1,0.55096
"PLY12",1003,"EasyMed",1,2,97,5,150.89,285,0,"Easy",68,1,1.1008
"PLY12",1003,"EasyMed",1,2,98,2,56.474,189.87,0,"Easy",68,1,0.71559
"PLY12",1003,"EasyMed",1,2,99,3,87.947,221.56,0,"Easy",68,1,0.56062
"PLY12",1003,"EasyMed",1,2,100,30,285,151.82,1,"Easy",76,1,0.76557
"PLY12",1003,"EasyMed",1,3,101,3,87.947,221.56,0,"Easy",68,1,0.81645
"PLY12",1003,"EasyMed",1,3,102,5,150.89,285,0,"Easy",68,1,0.72007
"PLY12",1003,"EasyMed",1,3,103,26,157.74,25,1,"Easy",76,1,0.49518
"PLY12",1003,"EasyMed",1,3,104,29,252.16,120.1,1,"Easy",76,1,0.52501
"PLY12",1003,"EasyMed",1,3,105,29,252.16,120.1,1,"Easy",76,1,2.7103
"PLY12",1003,"EasyMed",1,3,106,1,25,158.15,0,"Easy",68,1,0.62118
"PLY12",1003,"EasyMed",1,3,107,4,119.42,253.28,0,"Easy",68,1,0.82573
"PLY12",1003,"EasyMed",1,3,108,4,119.42,253.28,0,"Easy",68,1,0.44055
"PLY12",1003,"EasyMed",1,3,109,4,119.42,253.28,0,"Easy",68,1,0.49001
"PLY12",1003,"EasyMed",1,3,110,2,56.474,189.87,0,"Easy",68,1,1.6953
"PLY12",1003,"EasyMed",1,3,111,1,25,158.15,0,"Easy",68,1,0.70016
"PLY12",1003,"EasyMed",1,3,112,28,220.68,88.411,1,"Easy",76,1,0.85502
"PLY12",1003,"EasyMed",1,3,113,2,56.474,189.87,0,"Easy",68,1,0.70556
"PLY12",1003,"EasyMed",1,3,114,29,252.16,120.1,1,"Easy",76,1,1.2754
"PLY12",1003,"EasyMed",1,3,115,2,56.474,189.87,0,"Easy",68,1,0.59021
"PLY12",1003,"EasyMed",1,3,116,5,150.89,285,0,"Easy",68,1,0.65073
"PLY12",1003,"EasyMed",1,3,117,1,25,158.15,0,"Easy",68,1,0.60556
"PLY12",1003,"EasyMed",1,3,118,5,150.89,285,0,"Easy",68,1,0.49006
"PLY12",1003,"EasyMed",1,3,119,26,157.74,25,1,"Easy",76,1,0.52529
"PLY12",1003,"EasyMed",1,3,120,3,87.947,221.56,0,"Easy",68,1,1.3151
"PLY12",1003,"EasyMed",1,3,121,27,189.21,56.691,1,"Easy",76,1,1.1653
"PLY12",1003,"EasyMed",1,3,122,30,285,151.82,1,"Easy",76,1,0.50014
"PLY12",1003,"EasyMed",1,3,123,1,25,158.15,0,"Easy",68,1,1.06
"PLY12",1003,"EasyMed",1,3,124,30,285,151.82,1,"Easy",76,1,1.2407
"PLY12",1003,"EasyMed",1,3,125,5,150.89,285,0,"Easy",68,1,6.566
"PLY12",1003,"EasyMed",1,3,126,29,252.16,120.1,1,"Easy",76,1,1.275
"PLY12",1003,"EasyMed",1,3,127,30,285,151.82,1,"Easy",76,1,0.39084
"PLY12",1003,"EasyMed",1,3,128,5,150.89,285,0,"Easy",68,1,0.42103
"PLY12",1003,"EasyMed",1,3,129,3,87.947,221.56,0,"Easy",68,1,1.0703
"PLY12",1003,"EasyMed",1,3,130,26,157.74,25,1,"Easy",76,1,0.57032
"PLY12",1003,"EasyMed",1,3,131,27,189.21,56.691,1,"Easy",76,1,0.35052
"PLY12",1003,"EasyMed",1,3,132,4,119.42,253.28,0,"Easy",68,1,0.64006
"PLY12",1003,"EasyMed",1,3,133,1,25,158.15,0,"Easy",68,1,0.46021
"PLY12",1003,"EasyMed",1,3,134,1,25,158.15,0,"Easy",68,1,0.395
"PLY12",1003,"EasyMed",1,3,135,29,252.16,120.1,1,"Easy",76,1,0.55581
"PLY12",1003,"EasyMed",1,3,136,27,189.21,56.691,1,"Easy",76,1,0.57569
"PLY12",1003,"EasyMed",1,3,137,28,220.68,88.411,1,"Easy",76,1,0.39645
"PLY12",1003,"EasyMed",1,3,138,28,220.68,88.411,1,"Easy",76,1,0.49066
"PLY12",1003,"EasyMed",1,3,139,26,157.74,25,1,"Easy",76,1,0.34086
"PLY12",1003,"EasyMed",1,3,140,30,285,151.82,1,"Easy",76,1,0.47
"PLY12",1003,"EasyMed",1,3,141,2,56.474,189.87,0,"Easy",76,0,0.38523
"PLY12",1003,"EasyMed",1,3,142,1,25,158.15,0,"Easy",68,1,0.47062
"PLY12",1003,"EasyMed",1,3,143,28,220.68,88.411,1,"Easy",76,1,0.42077
"PLY12",1003,"EasyMed",1,3,144,29,252.16,120.1,1,"Easy",76,1,0.47565
"PLY12",1003,"EasyMed",1,3,145,30,285,151.82,1,"Easy",76,1,0.35051
"PLY12",1003,"EasyMed",1,3,146,30,285,151.82,1,"Easy",76,1,0.37997
"PLY12",1003,"EasyMed",1,3,147,28,220.68,88.411,1,"Easy",76,1,0.93042
"PLY12",1003,"EasyMed",1,3,148,5,150.89,285,0,"Easy",68,1,0.78066
"PLY12",1003,"EasyMed",1,3,149,28,220.68,88.411,1,"Easy",76,1,1.2559
"PLY12",1003,"EasyMed",1,3,150,26,157.74,25,1,"Easy",76,1,0.42569
"PLY12",1003,"EasyMed",2,1,151,6,46.895,135.96,0,"Medium",68,1,0.6907
"PLY12",1003,"EasyMed",2,1,152,24,230.26,142.32,1,"Medium",76,1,0.45018
"PLY12",1003,"EasyMed",2,1,153,22,167.32,78.878,1,"Medium",76,1,0.5007
"PLY12",1003,"EasyMed",2,1,154,8,109.84,199.37,0,"Medium",76,0,0.26118
"PLY12",1003,"EasyMed",2,1,155,25,261.74,174.01,1,"Medium",76,1,0.33033
"PLY12",1003,"EasyMed",2,1,156,21,135.84,47.187,1,"Medium",76,1,0.47554
"PLY12",1003,"EasyMed",2,1,157,9,141.32,231.09,0,"Medium",76,0,0.78062
"PLY12",1003,"EasyMed",2,1,158,7,78.368,167.68,0,"Medium",68,1,0.65084
"PLY12",1003,"EasyMed",2,1,159,23,198.79,110.6,1,"Medium",76,1,0.47064
"PLY12",1003,"EasyMed",2,1,160,25,261.74,174.01,1,"Medium",76,1,0.47083
"PLY12",1003,"EasyMed",2,1,161,24,230.26,142.32,1,"Medium",76,1,0.34499
"PLY12",1003,"EasyMed",2,1,162,6,46.895,135.96,0,"Medium",68,1,0.56583
"PLY12",1003,"EasyMed",2,1,163,25,261.74,174.01,1,"Medium",76,1,0.48565
"PLY12",1003,"EasyMed",2,1,164,24,230.26,142.32,1,"Medium",76,1,0.36594
"PLY12",1003,"EasyMed",2,1,165,22,167.32,78.878,1,"Medium",76,1,0.36064
"PLY12",1003,"EasyMed",2,1,166,22,167.32,78.878,1,"Medium",76,1,0.37082
"PLY12",1003,"EasyMed",2,1,167,25,261.74,174.01,1,"Medium",76,1,0.44063
"PLY12",1003,"EasyMed",2,1,168,21,135.84,47.187,1,"Medium",76,1,0.43019
"PLY12",1003,"EasyMed",2,1,169,25,261.74,174.01,1,"Medium",76,1,1.1454
"PLY12",1003,"EasyMed",2,1,170,22,167.32,78.878,1,"Medium",76,1,0.45018
"PLY12",1003,"EasyMed",2,1,171,9,141.32,231.09,0,"Medium",76,0,0.37081
"PLY12",1003,"EasyMed",2,1,172,7,78.368,167.68,0,"Medium",68,1,0.55548
"PLY12",1003,"EasyMed",2,1,173,22,167.32,78.878,1,"Medium",76,1,0.66502
"PLY12",1003,"EasyMed",2,1,174,6,46.895,135.96,0,"Medium",68,1,0.5552
"PLY12",1003,"EasyMed",2,1,175,7,78.368,167.68,0,"Medium",68,1,0.48569
"PLY12",1003,"EasyMed",2,1,176,21,135.84,47.187,1,"Medium",76,1,0.43565
"PLY12",1003,"EasyMed",2,1,177,9,141.32,231.09,0,"Medium",68,1,0.64038
"PLY12",1003,"EasyMed",2,1,178,22,167.32,78.878,1,"Medium",76,1,0.39051
"PLY12",1003,"EasyMed",2,1,179,21,135.84,47.187,1,"Medium",76,1,0.34499
"PLY12",1003,"EasyMed",2,1,180,25,261.74,174.01,1,"Medium",76,1,0.52081
"PLY12",1003,"EasyMed",2,1,181,6,46.895,135.96,0,"Medium",68,1,0.49004
"PLY12",1003,"EasyMed",2,1,182,24,230.26,142.32,1,"Medium",76,1,0.56521
"PLY12",1003,"EasyMed",2,1,183,10,172.79,262.78,0,"Medium",76,0,0.16029
"PLY12",1003,"EasyMed",2,1,184,24,230.26,142.32,1,"Medium",76,1,0.48082
"PLY12",1003,"EasyMed",2,1,185,21,135.84,47.187,1,"Medium",68,0,0.56095
"PLY12",1003,"EasyMed",2,1,186,8,109.84,199.37,0,"Medium",68,1,0.62581
"PLY12",1003,"EasyMed",2,1,187,10,172.79,262.78,0,"Medium",68,1,0.80502
"PLY12",1003,"EasyMed",2,1,188,7,78.368,167.68,0,"Medium",68,1,0.80078
"PLY12",1003,"EasyMed",2,1,189,23,198.79,110.6,1,"Medium",76,1,0.58066
"PLY12",1003,"EasyMed",2,1,190,23,198.79,110.6,1,"Medium",76,1,0.50018
"PLY12",1003,"EasyMed",2,1,191,8,109.84,199.37,0,"Medium",68,1,1.0099
"PLY12",1003,"EasyMed",2,1,192,8,109.84,199.37,0,"Medium",68,1,1.0909
"PLY12",1003,"EasyMed",2,1,193,10,172.79,262.78,0,"Medium",68,1,0.7701
"PLY12",1003,"EasyMed",2,1,194,8,109.84,199.37,0,"Medium",68,1,1.3203
"PLY12",1003,"EasyMed",2,1,195,24,230.26,142.32,1,"Medium",76,1,0.53051
"PLY12",1003,"EasyMed",2,1,196,25,261.74,174.01,1,"Medium",76,1,0.42574
"PLY12",1003,"EasyMed",2,1,197,7,78.368,167.68,0,"Medium",68,1,0.59078
"PLY12",1003,"EasyMed",2,1,198,23,198.79,110.6,1,"Medium",76,1,0.78029
"PLY12",1003,"EasyMed",2,1,199,9,141.32,231.09,0,"Medium",68,1,0.45551
"PLY12",1003,"EasyMed",2,1,200,8,109.84,199.37,0,"Medium",68,1,0.52999
"PLY12",1003,"EasyMed",2,2,201,8,109.84,199.37,0,"Medium",68,1,0.63555
"PLY12",1003,"EasyMed",2,2,202,10,172.79,262.78,0,"Medium",68,1,0.52506
"PLY12",1003,"EasyMed",2,2,203,6,46.895,135.96,0,"Medium",68,1,0.4059
"PLY12",1003,"EasyMed",2,2,204,25,261.74,174.01,1,"Medium",76,1,0.95532
"PLY12",1003,"EasyMed",2,2,205,21,135.84,47.187,1,"Medium",76,1,1.0252
"PLY12",1003,"EasyMed",2,2,206,10,172.79,262.78,0,"Medium",68,1,0.89008
"PLY12",1003,"EasyMed",2,2,207,9,141.32,231.09,0,"Medium",76,0,0.77061
"PLY12",1003,"EasyMed",2,2,208,8,109.84,199.37,0,"Medium",68,1,1.2458
"PLY12",1003,"EasyMed",2,2,209,6,46.895,135.96,0,"Medium",68,1,0.49059
"PLY12",1003,"EasyMed",2,2,210,8,109.84,199.37,0,"Medium",68,1,0.68579
"PLY12",1003,"EasyMed",2,2,211,24,230.26,142.32,1,"Medium",76,1,0.49533
"PLY12",1003,"EasyMed",2,2,212,9,141.32,231.09,0,"Medium",68,1,1.5502
"PLY12",1003,"EasyMed",2,2,213,9,141.32,231.09,0,"Medium",68,1,0.50076
"PLY12",1003,"EasyMed",2,2,214,10,172.79,262.78,0,"Medium",68,1,0.66054
"PLY12",1003,"EasyMed",2,2,215,8,109.84,199.37,0,"Medium",68,1,0.64038
"PLY12",1003,"EasyMed",2,2,216,23,198.79,110.6,1,"Medium",76,1,0.52555
"PLY12",1003,"EasyMed",2,2,217,22,167.32,78.878,1,"Medium",76,1,0.68545
"PLY12",1003,"EasyMed",2,2,218,25,261.74,174.01,1,"Medium",68,0,4.4407
"PLY12",1003,"EasyMed",2,2,219,24,230.26,142.32,1,"Medium",76,1,0.6503
"PLY12",1003,"EasyMed",2,2,220,23,198.79,110.6,1,"Medium",76,1,0.45517
"PLY12",1003,"EasyMed",2,2,221,21,135.84,47.187,1,"Medium",68,0,0.66568
"PLY12",1003,"EasyMed",2,2,222,6,46.895,135.96,0,"Medium",68,1,0.72124
"PLY12",1003,"EasyMed",2,2,223,6,46.895,135.96,0,"Medium",68,1,0.44532
"PLY12",1003,"EasyMed",2,2,224,6,46.895,135.96,0,"Medium",68,1,0.46084
"PLY12",1003,"EasyMed",2,2,225,21,135.84,47.187,1,"Medium",76,1,2.0501
"PLY12",1003,"EasyMed",2,2,226,6,46.895,135.96,0,"Medium",76,0,0.43059
"PLY12",1003,"EasyMed",2,2,227,9,141.32,231.09,0,"Medium",68,1,1.9656
"PLY12",1003,"EasyMed",2,2,228,7,78.368,167.68,0,"Medium",68,1,0.63528
"PLY12",1003,"EasyMed",2,2,229,7,78.368,167.68,0,"Medium",68,1,0.40058
"PLY12",1003,"EasyMed",2,2,230,10,172.79,262.78,0,"Medium",68,1,0.73505
"PLY12",1003,"EasyMed",2,2,231,22,167.32,78.878,1,"Medium",76,1,0.96551
"PLY12",1003,"EasyMed",2,2,232,25,261.74,174.01,1,"Medium",76,1,0.62043
"PLY12",1003,"EasyMed",2,2,233,23,198.79,110.6,1,"Medium",76,1,1.0256
"PLY12",1003,"EasyMed",2,2,234,7,78.368,167.68,0,"Medium",68,1,0.68553
"PLY12",1003,"EasyMed",2,2,235,23,198.79,110.6,1,"Medium",76,1,4.9753
"PLY12",1003,"EasyMed",2,2,236,23,198.79,110.6,1,"Medium",76,1,0.44537
"PLY12",1003,"EasyMed",2,2,237,25,261.74,174.01,1,"Medium",76,1,0.35091
"PLY12",1003,"EasyMed",2,2,238,10,172.79,262.78,0,"Medium",68,1,0.55073
"PLY12",1003,"EasyMed",2,2,239,24,230.26,142.32,1,"Medium",76,1,0.51553
"PLY12",1003,"EasyMed",2,2,240,22,167.32,78.878,1,"Medium",76,1,0.97543
"PLY12",1003,"EasyMed",2,2,241,21,135.84,47.187,1,"Medium",68,0,0.63028
"PLY12",1003,"EasyMed",2,2,242,10,172.79,262.78,0,"Medium",68,1,0.59545
"PLY12",1003,"EasyMed",2,2,243,9,141.32,231.09,0,"Medium",68,1,0.82097
"PLY12",1003,"EasyMed",2,2,244,8,109.84,199.37,0,"Medium",68,1,0.63582
"PLY12",1003,"EasyMed",2,2,245,6,46.895,135.96,0,"Medium",68,1,0.471
"PLY12",1003,"EasyMed",2,2,246,9,141.32,231.09,0,"Medium",68,1,0.61011
"PLY12",1003,"EasyMed",2,2,247,23,198.79,110.6,1,"Medium",76,1,0.52564
"PLY12",1003,"EasyMed",2,2,248,7,78.368,167.68,0,"Medium",68,1,0.70657
"PLY12",1003,"EasyMed",2,2,249,22,167.32,78.878,1,"Medium",76,1,1.0053
"PLY12",1003,"EasyMed",2,2,250,6,46.895,135.96,0,"Medium",68,1,1.1659
"PLY12",1003,"EasyMed",2,3,251,22,167.32,78.878,1,"Medium",68,0,1.6658
"PLY12",1003,"EasyMed",2,3,252,23,198.79,110.6,1,"Medium",76,1,0.80495
"PLY12",1003,"EasyMed",2,3,253,9,141.32,231.09,0,"Medium",68,1,1.3365
"PLY12",1003,"EasyMed",2,3,254,8,109.84,199.37,0,"Medium",68,1,0.64032
"PLY12",1003,"EasyMed",2,3,255,24,230.26,142.32,1,"Medium",76,1,0.94061
"PLY12",1003,"EasyMed",2,3,256,8,109.84,199.37,0,"Medium",68,1,1.9107
"PLY12",1003,"EasyMed",2,3,257,21,135.84,47.187,1,"Medium",76,1,1.15
"PLY12",1003,"EasyMed",2,3,258,22,167.32,78.878,1,"Medium",76,1,0.82651
"PLY12",1003,"EasyMed",2,3,259,24,230.26,142.32,1,"Medium",76,1,0.53532
"PLY12",1003,"EasyMed",2,3,260,23,198.79,110.6,1,"Medium",76,1,0.66555
"PLY12",1003,"EasyMed",2,3,261,10,172.79,262.78,0,"Medium",68,1,3.4255
"PLY12",1003,"EasyMed",2,3,262,10,172.79,262.78,0,"Medium",68,1,0.5505
"PLY12",1003,"EasyMed",2,3,263,7,78.368,167.68,0,"Medium",68,1,0.94093
"PLY12",1003,"EasyMed",2,3,264,7,78.368,167.68,0,"Medium",68,1,0.47014
"PLY12",1003,"EasyMed",2,3,265,25,261.74,174.01,1,"Medium",76,1,0.5102
"PLY12",1003,"EasyMed",2,3,266,9,141.32,231.09,0,"Medium",68,1,1.2651
"PLY12",1003,"EasyMed",2,3,267,9,141.32,231.09,0,"Medium",68,1,0.5004
"PLY12",1003,"EasyMed",2,3,268,24,230.26,142.32,1,"Medium",76,1,0.37016
"PLY12",1003,"EasyMed",2,3,269,24,230.26,142.32,1,"Medium",76,1,0.41998
"PLY12",1003,"EasyMed",2,3,270,8,109.84,199.37,0,"Medium",68,1,0.56594
"PLY12",1003,"EasyMed",2,3,271,10,172.79,262.78,0,"Medium",68,1,0.65563
"PLY12",1003,"EasyMed",2,3,272,7,78.368,167.68,0,"Medium",68,1,0.56011
"PLY12",1003,"EasyMed",2,3,273,23,198.79,110.6,1,"Medium",76,1,1.1299
"PLY12",1003,"EasyMed",2,3,274,7,78.368,167.68,0,"Medium",68,1,0.60054
"PLY12",1003,"EasyMed",2,3,275,21,135.84,47.187,1,"Medium",76,1,1.57
"PLY12",1003,"EasyMed",2,3,276,21,135.84,47.187,1,"Medium",76,1,0.5609
"PLY12",1003,"EasyMed",2,3,277,8,109.84,199.37,0,"Medium",68,1,0.89573
"PLY12",1003,"EasyMed",2,3,278,7,78.368,167.68,0,"Medium",68,1,0.57035
"PLY12",1003,"EasyMed",2,3,279,22,167.32,78.878,1,"Medium",76,1,0.72014
"PLY12",1003,"EasyMed",2,3,280,25,261.74,174.01,1,"Medium",76,1,0.61522
"PLY12",1003,"EasyMed",2,3,281,24,230.26,142.32,1,"Medium",76,1,3.3555
"PLY12",1003,"EasyMed",2,3,282,10,172.79,262.78,0,"Medium",68,1,0.49529
"PLY12",1003,"EasyMed",2,3,283,6,46.895,135.96,0,"Medium",68,1,0.59066
"PLY12",1003,"EasyMed",2,3,284,23,198.79,110.6,1,"Medium",76,1,0.79518
"PLY12",1003,"EasyMed",2,3,285,10,172.79,262.78,0,"Medium",68,1,0.54496
"PLY12",1003,"EasyMed",2,3,286,21,135.84,47.187,1,"Medium",68,0,0.87091
"PLY12",1003,"EasyMed",2,3,287,24,230.26,142.32,1,"Medium",76,1,0.62504
"PLY12",1003,"EasyMed",2,3,288,21,135.84,47.187,1,"Medium",76,1,1.1552
"PLY12",1003,"EasyMed",2,3,289,22,167.32,78.878,1,"Medium",76,1,0.60506
"PLY12",1003,"EasyMed",2,3,290,10,172.79,262.78,0,"Medium",68,1,0.57065
"PLY12",1003,"EasyMed",2,3,291,9,141.32,231.09,0,"Medium",68,1,0.61546
"PLY12",1003,"EasyMed",2,3,292,25,261.74,174.01,1,"Medium",76,1,1.1003
"PLY12",1003,"EasyMed",2,3,293,6,46.895,135.96,0,"Medium",68,1,0.54017
"PLY12",1003,"EasyMed",2,3,294,23,198.79,110.6,1,"Medium",76,1,1.6554
"PLY12",1003,"EasyMed",2,3,295,25,261.74,174.01,1,"Medium",68,0,1.1659
"PLY12",1003,"EasyMed",2,3,296,21,135.84,47.187,1,"Medium",76,1,2.7002
"PLY12",1003,"EasyMed",2,3,297,9,141.32,231.09,0,"Medium",68,1,1.3357
"PLY12",1003,"EasyMed",2,3,298,6,46.895,135.96,0,"Medium",68,1,0.5603
"PLY12",1003,"EasyMed",2,3,299,22,167.32,78.878,1,"Medium",76,1,0.53575
"PLY12",1003,"EasyMed",2,3,300,7,78.368,167.68,0,"Medium",68,1,0.57519
"PLY12",1004,"EasyMed",1,1,1,29,252.16,120.1,1,"Easy",68,0,1.2072
"PLY12",1004,"EasyMed",1,1,2,1,25,158.15,0,"Easy",76,0,1.1156
"PLY12",1004,"EasyMed",1,1,3,29,252.16,120.1,1,"Easy",68,0,0.62044
"PLY12",1004,"EasyMed",1,1,4,30,285,151.82,1,"Easy",76,1,0.97555
"PLY12",1004,"EasyMed",1,1,5,29,252.16,120.1,1,"Easy",76,1,0.76539
"PLY12",1004,"EasyMed",1,1,6,27,189.21,56.691,1,"Easy",76,1,0.99554
"PLY12",1004,"EasyMed",1,1,7,3,87.947,221.56,0,"Easy",68,1,0.69543
"PLY12",1004,"EasyMed",1,1,8,28,220.68,88.411,1,"Easy",76,1,0.91032
"PLY12",1004,"EasyMed",1,1,9,27,189.21,56.691,1,"Easy",76,1,0.85019
"PLY12",1004,"EasyMed",1,1,10,3,87.947,221.56,0,"Easy",68,1,0.64499
"PLY12",1004,"EasyMed",1,1,11,2,56.474,189.87,0,"Easy",68,1,0.55576
"PLY12",1004,"EasyMed",1,1,12,26,157.74,25,1,"Easy",76,1,0.68564
"PLY12",1004,"EasyMed",1,1,13,5,150.89,285,0,"Easy",76,0,0.68014
"PLY12",1004,"EasyMed",1,1,14,1,25,158.15,0,"Easy",68,1,0.67066
"PLY12",1004,"EasyMed",1,1,15,1,25,158.15,0,"Easy",68,1,0.64085
"PLY12",1004,"EasyMed",1,1,16,26,157.74,25,1,"Easy",76,1,1.1901
"PLY12",1004,"EasyMed",1,1,17,27,189.21,56.691,1,"Easy",76,1,0.67561
"PLY12",1004,"EasyMed",1,1,18,4,119.42,253.28,0,"Easy",68,1,0.9108
"PLY12",1004,"EasyMed",1,1,19,5,150.89,285,0,"Easy",68,1,0.67572
"PLY12",1004,"EasyMed",1,1,20,1,25,158.15,0,"Easy",68,1,1.4405
"PLY12",1004,"EasyMed",1,1,21,28,220.68,88.411,1,"Easy",76,1,1.075
"PLY12",1004,"EasyMed",1,1,22,1,25,158.15,0,"Easy",68,1,0.61517
"PLY12",1004,"EasyMed",1,1,23,4,119.42,253.28,0,"Easy",68,1,1.1054
"PLY12",1004,"EasyMed",1,1,24,4,119.42,253.28,0,"Easy",68,1,0.64022
"PLY12",1004,"EasyMed",1,1,25,28,220.68,88.411,1,"Easy",76,1,0.61113
"PLY12",1004,"EasyMed",1,1,26,30,285,151.82,1,"Easy",76,1,0.63998
"PLY12",1004,"EasyMed",1,1,27,2,56.474,189.87,0,"Easy",68,1,0.75017
"PLY12",1004,"EasyMed",1,1,28,2,56.474,189.87,0,"Easy",68,1,0.81092
"PLY12",1004,"EasyMed",1,1,29,2,56.474,189.87,0,"Easy",68,1,1.2652
"PLY12",1004,"EasyMed",1,1,30,27,189.21,56.691,1,"Easy",76,1,0.57007
"PLY12",1004,"EasyMed",1,1,31,26,157.74,25,1,"Easy",76,1,0.74589
"PLY12",1004,"EasyMed",1,1,32,3,87.947,221.56,0,"Easy",68,1,1.2307
"PLY12",1004,"EasyMed",1,1,33,5,150.89,285,0,"Easy",68,1,0.83521
"PLY12",1004,"EasyMed",1,1,34,2,56.474,189.87,0,"Easy",68,1,0.62079
"PLY12",1004,"EasyMed",1,1,35,28,220.68,88.411,1,"Easy",76,1,0.56495
"PLY12",1004,"EasyMed",1,1,36,26,157.74,25,1,"Easy",76,1,0.51083
"PLY12",1004,"EasyMed",1,1,37,26,157.74,25,1,"Easy",76,1,0.57056
"PLY12",1004,"EasyMed",1,1,38,30,285,151.82,1,"Easy",76,1,0.5257
"PLY12",1004,"EasyMed",1,1,39,27,189.21,56.691,1,"Easy",76,1,0.61493
"PLY12",1004,"EasyMed",1,1,40,5,150.89,285,0,"Easy",68,1,0.65015
"PLY12",1004,"EasyMed",1,1,41,5,150.89,285,0,"Easy",68,1,0.46991
"PLY12",1004,"EasyMed",1,1,42,27,189.21,56.691,1,"Easy",76,1,0.49014
"PLY12",1004,"EasyMed",1,1,43,30,285,151.82,1,"Easy",76,1,0.48031
"PLY12",1004,"EasyMed",1,1,44,26,157.74,25,1,"Easy",76,1,0.54045
"PLY12",1004,"EasyMed",1,1,45,4,119.42,253.28,0,"Easy",68,1,0.70074
"PLY12",1004,"EasyMed",1,1,46,27,189.21,56.691,1,"Easy",76,1,0.58017
"PLY12",1004,"EasyMed",1,1,47,28,220.68,88.411,1,"Easy",76,1,0.46572
"PLY12",1004,"EasyMed",1,1,48,29,252.16,120.1,1,"Easy",76,1,0.48586
"PLY12",1004,"EasyMed",1,1,49,29,252.16,120.1,1,"Easy",76,1,0.38498
"PLY12",1004,"EasyMed",1,1,50,5,150.89,285,0,"Easy",68,1,0.71545
"PLY12",1004,"EasyMed",1,2,51,1,25,158.15,0,"Easy",76,0,0.76539
"PLY12",1004,"EasyMed",1,2,52,3,87.947,221.56,0,"Easy",68,1,1.0355
"PLY12",1004,"EasyMed",1,2,53,28,220.68,88.411,1,"Easy",76,1,0.68077
"PLY12",1004,"EasyMed",1,2,54,28,220.68,88.411,1,"Easy",76,1,0.5759
"PLY12",1004,"EasyMed",1,2,55,26,157.74,25,1,"Easy",76,1,0.53571
"PLY12",1004,"EasyMed",1,2,56,5,150.89,285,0,"Easy",68,1,0.4152
"PLY12",1004,"EasyMed",1,2,57,4,119.42,253.28,0,"Easy",68,1,0.67537
"PLY12",1004,"EasyMed",1,2,58,30,285,151.82,1,"Easy",76,1,0.57557
"PLY12",1004,"EasyMed",1,2,59,29,252.16,120.1,1,"Easy",76,1,0.45065
"PLY12",1004,"EasyMed",1,2,60,28,220.68,88.411,1,"Easy",76,1,0.38018
"PLY12",1004,"EasyMed",1,2,61,28,220.68,88.411,1,"Easy",76,1,0.42055
"PLY12",1004,"EasyMed",1,2,62,1,25,158.15,0,"Easy",68,1,0.74559
"PLY12",1004,"EasyMed",1,2,63,3,87.947,221.56,0,"Easy",68,1,1.2001
"PLY12",1004,"EasyMed",1,2,64,4,119.42,253.28,0,"Easy",68,1,0.68567
"PLY12",1004,"EasyMed",1,2,65,1,25,158.15,0,"Easy",68,1,0.85587
"PLY12",1004,"EasyMed",1,2,66,2,56.474,189.87,0,"Easy",68,1,0.65059
"PLY12",1004,"EasyMed",1,2,67,27,189.21,56.691,1,"Easy",76,1,0.59016
"PLY12",1004,"EasyMed",1,2,68,3,87.947,221.56,0,"Easy",76,0,0.82035
"PLY12",1004,"EasyMed",1,2,69,5,150.89,285,0,"Easy",76,0,0.73554
"PLY12",1004,"EasyMed",1,2,70,3,87.947,221.56,0,"Easy",68,1,1.0157
"PLY12",1004,"EasyMed",1,2,71,4,119.42,253.28,0,"Easy",68,1,0.7155
"PLY12",1004,"EasyMed",1,2,72,26,157.74,25,1,"Easy",76,1,0.55568
"PLY12",1004,"EasyMed",1,2,73,28,220.68,88.411,1,"Easy",76,1,0.5805
"PLY12",1004,"EasyMed",1,2,74,3,87.947,221.56,0,"Easy",68,1,0.67006
"PLY12",1004,"EasyMed",1,2,75,30,285,151.82,1,"Easy",76,1,0.46089
"PLY12",1004,"EasyMed",1,2,76,28,220.68,88.411,1,"Easy",76,1,0.61508
"PLY12",1004,"EasyMed",1,2,77,5,150.89,285,0,"Easy",68,1,0.5202
"PLY12",1004,"EasyMed",1,2,78,5,150.89,285,0,"Easy",68,1,0.75518
"PLY12",1004,"EasyMed",1,2,79,2,56.474,189.87,0,"Easy",68,1,0.6406
"PLY12",1004,"EasyMed",1,2,80,1,25,158.15,0,"Easy",68,1,0.63575
"PLY12",1004,"EasyMed",1,2,81,29,252.16,120.1,1,"Easy",76,1,0.4559
"PLY12",1004,"EasyMed",1,2,82,29,252.16,120.1,1,"Easy",76,1,0.51539
"PLY12",1004,"EasyMed",1,2,83,29,252.16,120.1,1,"Easy",76,1,0.48526
"PLY12",1004,"EasyMed",1,2,84,30,285,151.82,1,"Easy",76,1,0.52042
"PLY12",1004,"EasyMed",1,2,85,30,285,151.82,1,"Easy",76,1,0.41523
"PLY12",1004,"EasyMed",1,2,86,4,119.42,253.28,0,"Easy",68,1,0.75009
"PLY12",1004,"EasyMed",1,2,87,5,150.89,285,0,"Easy",68,1,0.54575
"PLY12",1004,"EasyMed",1,2,88,28,220.68,88.411,1,"Easy",76,1,0.49013
"PLY12",1004,"EasyMed",1,2,89,29,252.16,120.1,1,"Easy",76,1,0.41018
"PLY12",1004,"EasyMed",1,2,90,5,150.89,285,0,"Easy",68,1,0.50518
"PLY12",1004,"EasyMed",1,2,91,27,189.21,56.691,1,"Easy",76,1,0.33583
"PLY12",1004,"EasyMed",1,2,92,3,87.947,221.56,0,"Easy",68,1,0.42505
"PLY12",1004,"EasyMed",1,2,93,27,189.21,56.691,1,"Easy",76,1,0.52018
"PLY12",1004,"EasyMed",1,2,94,2,56.474,189.87,0,"Easy",68,1,0.67572
"PLY12",1004,"EasyMed",1,2,95,2,56.474,189.87,0,"Easy",68,1,0.41526
"PLY12",1004,"EasyMed",1,2,96,2,56.474,189.87,0,"Easy",68,1,0.51017
"PLY12",1004,"EasyMed",1,2,97,27,189.21,56.691,1,"Easy",76,1,0.38064
"PLY12",1004,"EasyMed",1,2,98,3,87.947,221.56,0,"Easy",68,1,0.63074
"PLY12",1004,"EasyMed",1,2,99,4,119.42,253.28,0,"Easy",68,1,0.42588
"PLY12",1004,"EasyMed",1,2,100,3,87.947,221.56,0,"Easy",68,1,0.55079
"PLY12",1004,"EasyMed",1,3,101,28,220.68,88.411,1,"Easy",76,1,0.5102
"PLY12",1004,"EasyMed",1,3,102,26,157.74,25,1,"Easy",76,1,0.49505
"PLY12",1004,"EasyMed",1,3,103,27,189.21,56.691,1,"Easy",76,1,0.56582
"PLY12",1004,"EasyMed",1,3,104,26,157.74,25,1,"Easy",76,1,0.5657
"PLY12",1004,"EasyMed",1,3,105,4,119.42,253.28,0,"Easy",68,1,0.37063
"PLY12",1004,"EasyMed",1,3,106,2,56.474,189.87,0,"Easy",68,1,0.50036
"PLY12",1004,"EasyMed",1,3,107,1,25,158.15,0,"Easy",68,1,0.52013
"PLY12",1004,"EasyMed",1,3,108,1,25,158.15,0,"Easy",68,1,0.40482
"PLY12",1004,"EasyMed",1,3,109,4,119.42,253.28,0,"Easy",68,1,0.72584
"PLY12",1004,"EasyMed",1,3,110,29,252.16,120.1,1,"Easy",76,1,0.40001
"PLY12",1004,"EasyMed",1,3,111,30,285,151.82,1,"Easy",76,1,0.31584
"PLY12",1004,"EasyMed",1,3,112,4,119.42,253.28,0,"Easy",68,1,0.39001
"PLY12",1004,"EasyMed",1,3,113,28,220.68,88.411,1,"Easy",76,1,0.34545
"PLY12",1004,"EasyMed",1,3,114,28,220.68,88.411,1,"Easy",76,1,0.52011
"PLY12",1004,"EasyMed",1,3,115,30,285,151.82,1,"Easy",76,1,0.49578
"PLY12",1004,"EasyMed",1,3,116,3,87.947,221.56,0,"Easy",68,1,0.56545
"PLY12",1004,"EasyMed",1,3,117,3,87.947,221.56,0,"Easy",68,1,0.41054
"PLY12",1004,"EasyMed",1,3,118,26,157.74,25,1,"Easy",76,1,0.66065
"PLY12",1004,"EasyMed",1,3,119,30,285,151.82,1,"Easy",76,1,0.49591
"PLY12",1004,"EasyMed",1,3,120,29,252.16,120.1,1,"Easy",76,1,0.44065
"PLY12",1004,"EasyMed",1,3,121,2,56.474,189.87,0,"Easy",68,1,0.58522
"PLY12",1004,"EasyMed",1,3,122,1,25,158.15,0,"Easy",68,1,0.5054
"PLY12",1004,"EasyMed",1,3,123,4,119.42,253.28,0,"Easy",68,1,0.61017
"PLY12",1004,"EasyMed",1,3,124,30,285,151.82,1,"Easy",76,1,0.42576
"PLY12",1004,"EasyMed",1,3,125,27,189.21,56.691,1,"Easy",76,1,0.38583
"PLY12",1004,"EasyMed",1,3,126,4,119.42,253.28,0,"Easy",68,1,0.5304
"PLY12",1004,"EasyMed",1,3,127,2,56.474,189.87,0,"Easy",68,1,0.36083
"PLY12",1004,"EasyMed",1,3,128,4,119.42,253.28,0,"Easy",68,1,0.49498
"PLY12",1004,"EasyMed",1,3,129,26,157.74,25,1,"Easy",76,1,0.78565
"PLY12",1004,"EasyMed",1,3,130,29,252.16,120.1,1,"Easy",76,1,0.46079
"PLY12",1004,"EasyMed",1,3,131,30,285,151.82,1,"Easy",76,1,0.44085
"PLY12",1004,"EasyMed",1,3,132,1,25,158.15,0,"Easy",68,1,0.59537
"PLY12",1004,"EasyMed",1,3,133,29,252.16,120.1,1,"Easy",76,1,0.35084
"PLY12",1004,"EasyMed",1,3,134,5,150.89,285,0,"Easy",68,1,0.52067
"PLY12",1004,"EasyMed",1,3,135,26,157.74,25,1,"Easy",76,1,0.36554
"PLY12",1004,"EasyMed",1,3,136,5,150.89,285,0,"Easy",68,1,0.64571
"PLY12",1004,"EasyMed",1,3,137,3,87.947,221.56,0,"Easy",76,0,0.65551
"PLY12",1004,"EasyMed",1,3,138,2,56.474,189.87,0,"Easy",68,1,0.54033
"PLY12",1004,"EasyMed",1,3,139,27,189.21,56.691,1,"Easy",76,1,0.59585
"PLY12",1004,"EasyMed",1,3,140,5,150.89,285,0,"Easy",68,1,0.76538
"PLY12",1004,"EasyMed",1,3,141,30,285,151.82,1,"Easy",76,1,0.49554
"PLY12",1004,"EasyMed",1,3,142,3,87.947,221.56,0,"Easy",76,0,0.79034
"PLY12",1004,"EasyMed",1,3,143,1,25,158.15,0,"Easy",68,1,0.64088
"PLY12",1004,"EasyMed",1,3,144,30,285,151.82,1,"Easy",76,1,0.58515
"PLY12",1004,"EasyMed",1,3,145,1,25,158.15,0,"Easy",68,1,0.95023
"PLY12",1004,"EasyMed",1,3,146,26,157.74,25,1,"Easy",76,1,0.64515
"PLY12",1004,"EasyMed",1,3,147,2,56.474,189.87,0,"Easy",68,1,0.42564
"PLY12",1004,"EasyMed",1,3,148,26,157.74,25,1,"Easy",76,1,0.41043
"PLY12",1004,"EasyMed",1,3,149,27,189.21,56.691,1,"Easy",76,1,0.49001
"PLY12",1004,"EasyMed",1,3,150,29,252.16,120.1,1,"Easy",76,1,0.55522
"PLY12",1004,"EasyMed",2,1,151,21,135.84,47.187,1,"Medium",76,1,1.0904
"PLY12",1004,"EasyMed",2,1,152,25,261.74,174.01,1,"Medium",76,1,0.4809
"PLY12",1004,"EasyMed",2,1,153,23,198.79,110.6,1,"Medium",76,1,0.46012
"PLY12",1004,"EasyMed",2,1,154,6,46.895,135.96,0,"Medium",68,1,0.45572
"PLY12",1004,"EasyMed",2,1,155,25,261.74,174.01,1,"Medium",76,1,0.38021
"PLY12",1004,"EasyMed",2,1,156,24,230.26,142.32,1,"Medium",76,1,0.42551
"PLY12",1004,"EasyMed",2,1,157,23,198.79,110.6,1,"Medium",76,1,0.41549
"PLY12",1004,"EasyMed",2,1,158,25,261.74,174.01,1,"Medium",76,1,0.54523
"PLY12",1004,"EasyMed",2,1,159,9,141.32,231.09,0,"Medium",68,1,0.49005
"PLY12",1004,"EasyMed",2,1,160,6,46.895,135.96,0,"Medium",68,1,0.45584
"PLY12",1004,"EasyMed",2,1,161,23,198.79,110.6,1,"Medium",76,1,0.3251
"PLY12",1004,"EasyMed",2,1,162,9,141.32,231.09,0,"Medium",76,0,0.75522
"PLY12",1004,"EasyMed",2,1,163,7,78.368,167.68,0,"Medium",68,1,0.55004
"PLY12",1004,"EasyMed",2,1,164,24,230.26,142.32,1,"Medium",76,1,0.50587
"PLY12",1004,"EasyMed",2,1,165,25,261.74,174.01,1,"Medium",76,1,0.53071
"PLY12",1004,"EasyMed",2,1,166,21,135.84,47.187,1,"Medium",76,1,0.87502
"PLY12",1004,"EasyMed",2,1,167,7,78.368,167.68,0,"Medium",68,1,0.46012
"PLY12",1004,"EasyMed",2,1,168,6,46.895,135.96,0,"Medium",68,1,0.57557
"PLY12",1004,"EasyMed",2,1,169,9,141.32,231.09,0,"Medium",76,0,0.48045
"PLY12",1004,"EasyMed",2,1,170,8,109.84,199.37,0,"Medium",68,1,0.71091
"PLY12",1004,"EasyMed",2,1,171,6,46.895,135.96,0,"Medium",68,1,0.59678
"PLY12",1004,"EasyMed",2,1,172,25,261.74,174.01,1,"Medium",76,1,0.42024
"PLY12",1004,"EasyMed",2,1,173,23,198.79,110.6,1,"Medium",76,1,0.88531
"PLY12",1004,"EasyMed",2,1,174,10,172.79,262.78,0,"Medium",76,0,0.50034
"PLY12",1004,"EasyMed",2,1,175,10,172.79,262.78,0,"Medium",68,1,0.47014
"PLY12",1004,"EasyMed",2,1,176,21,135.84,47.187,1,"Medium",76,1,0.50524
"PLY12",1004,"EasyMed",2,1,177,24,230.26,142.32,1,"Medium",76,1,0.52086
"PLY12",1004,"EasyMed",2,1,178,23,198.79,110.6,1,"Medium",76,1,0.39556
"PLY12",1004,"EasyMed",2,1,179,9,141.32,231.09,0,"Medium",76,0,1.201
"PLY12",1004,"EasyMed",2,1,180,22,167.32,78.878,1,"Medium",76,1,0.79065
"PLY12",1004,"EasyMed",2,1,181,25,261.74,174.01,1,"Medium",76,1,0.5458
"PLY12",1004,"EasyMed",2,1,182,21,135.84,47.187,1,"Medium",76,1,0.44069
"PLY12",1004,"EasyMed",2,1,183,21,135.84,47.187,1,"Medium",76,1,0.50084
"PLY12",1004,"EasyMed",2,1,184,9,141.32,231.09,0,"Medium",68,1,0.79061
"PLY12",1004,"EasyMed",2,1,185,8,109.84,199.37,0,"Medium",68,1,0.58014
"PLY12",1004,"EasyMed",2,1,186,8,109.84,199.37,0,"Medium",68,1,0.45036
"PLY12",1004,"EasyMed",2,1,187,10,172.79,262.78,0,"Medium",68,1,0.86086
"PLY12",1004,"EasyMed",2,1,188,7,78.368,167.68,0,"Medium",76,0,0.53588
"PLY12",1004,"EasyMed",2,1,189,21,135.84,47.187,1,"Medium",76,1,0.75022
"PLY12",1004,"EasyMed",2,1,190,8,109.84,199.37,0,"Medium",76,0,0.5407
"PLY12",1004,"EasyMed",2,1,191,24,230.26,142.32,1,"Medium",76,1,0.43016
"PLY12",1004,"EasyMed",2,1,192,24,230.26,142.32,1,"Medium",76,1,0.57067
"PLY12",1004,"EasyMed",2,1,193,23,198.79,110.6,1,"Medium",76,1,0.48563
"PLY12",1004,"EasyMed",2,1,194,21,135.84,47.187,1,"Medium",76,1,0.59042
"PLY12",1004,"EasyMed",2,1,195,6,46.895,135.96,0,"Medium",68,1,0.76547
"PLY12",1004,"EasyMed",2,1,196,23,198.79,110.6,1,"Medium",76,1,0.35569
"PLY12",1004,"EasyMed",2,1,197,6,46.895,135.96,0,"Medium",68,1,0.38529
"PLY12",1004,"EasyMed",2,1,198,22,167.32,78.878,1,"Medium",76,1,0.34565
"PLY12",1004,"EasyMed",2,1,199,21,135.84,47.187,1,"Medium",76,1,0.47049
"PLY12",1004,"EasyMed",2,1,200,25,261.74,174.01,1,"Medium",76,1,0.43568
"PLY12",1004,"EasyMed",2,2,201,22,167.32,78.878,1,"Medium",76,1,0.38016
"PLY12",1004,"EasyMed",2,2,202,8,109.84,199.37,0,"Medium",68,1,1.0156
"PLY12",1004,"EasyMed",2,2,203,22,167.32,78.878,1,"Medium",76,1,0.55057
"PLY12",1004,"EasyMed",2,2,204,24,230.26,142.32,1,"Medium",76,1,0.56541
"PLY12",1004,"EasyMed",2,2,205,10,172.79,262.78,0,"Medium",68,1,0.66554
"PLY12",1004,"EasyMed",2,2,206,9,141.32,231.09,0,"Medium",76,0,0.5804
"PLY12",1004,"EasyMed",2,2,207,6,46.895,135.96,0,"Medium",68,1,0.64084
"PLY12",1004,"EasyMed",2,2,208,22,167.32,78.878,1,"Medium",76,1,0.48508
"PLY12",1004,"EasyMed",2,2,209,10,172.79,262.78,0,"Medium",68,1,0.5952
"PLY12",1004,"EasyMed",2,2,210,24,230.26,142.32,1,"Medium",76,1,0.40073
"PLY12",1004,"EasyMed",2,2,211,10,172.79,262.78,0,"Medium",68,1,0.51561
"PLY12",1004,"EasyMed",2,2,212,8,109.84,199.37,0,"Medium",76,0,0.51059
"PLY12",1004,"EasyMed",2,2,213,7,78.368,167.68,0,"Medium",68,1,0.62017
"PLY12",1004,"EasyMed",2,2,214,22,167.32,78.878,1,"Medium",76,1,0.61521
"PLY12",1004,"EasyMed",2,2,215,24,230.26,142.32,1,"Medium",76,1,0.47585
"PLY12",1004,"EasyMed",2,2,216,9,141.32,231.09,0,"Medium",68,1,0.81509
"PLY12",1004,"EasyMed",2,2,217,6,46.895,135.96,0,"Medium",68,1,0.70091
"PLY12",1004,"EasyMed",2,2,218,25,261.74,174.01,1,"Medium",76,1,0.33543
"PLY12",1004,"EasyMed",2,2,219,25,261.74,174.01,1,"Medium",76,1,0.4706
"PLY12",1004,"EasyMed",2,2,220,21,135.84,47.187,1,"Medium",76,1,0.91075
"PLY12",1004,"EasyMed",2,2,221,25,261.74,174.01,1,"Medium",76,1,0.5349
"PLY12",1004,"EasyMed",2,2,222,25,261.74,174.01,1,"Medium",76,1,0.41514
"PLY12",1004,"EasyMed",2,2,223,8,109.84,199.37,0,"Medium",76,0,0.81025
"PLY12",1004,"EasyMed",2,2,224,6,46.895,135.96,0,"Medium",68,1,0.63013
"PLY12",1004,"EasyMed",2,2,225,21,135.84,47.187,1,"Medium",76,1,0.57064
"PLY12",1004,"EasyMed",2,2,226,22,167.32,78.878,1,"Medium",76,1,0.53078
"PLY12",1004,"EasyMed",2,2,227,7,78.368,167.68,0,"Medium",68,1,0.72995
"PLY12",1004,"EasyMed",2,2,228,7,78.368,167.68,0,"Medium",68,1,0.43552
"PLY12",1004,"EasyMed",2,2,229,22,167.32,78.878,1,"Medium",76,1,0.64569
"PLY12",1004,"EasyMed",2,2,230,23,198.79,110.6,1,"Medium",76,1,0.59047
"PLY12",1004,"EasyMed",2,2,231,24,230.26,142.32,1,"Medium",76,1,0.68497
"PLY12",1004,"EasyMed",2,2,232,8,109.84,199.37,0,"Medium",68,1,0.59051
"PLY12",1004,"EasyMed",2,2,233,25,261.74,174.01,1,"Medium",76,1,0.36498
"PLY12",1004,"EasyMed",2,2,234,25,261.74,174.01,1,"Medium",76,1,0.42017
"PLY12",1004,"EasyMed",2,2,235,9,141.32,231.09,0,"Medium",68,1,0.69531
"PLY12",1004,"EasyMed",2,2,236,7,78.368,167.68,0,"Medium",68,1,0.62016
"PLY12",1004,"EasyMed",2,2,237,6,46.895,135.96,0,"Medium",68,1,0.5203
"PLY12",1004,"EasyMed",2,2,238,22,167.32,78.878,1,"Medium",76,1,0.56524
"PLY12",1004,"EasyMed",2,2,239,10,172.79,262.78,0,"Medium",68,1,0.61998
"PLY12",1004,"EasyMed",2,2,240,24,230.26,142.32,1,"Medium",76,1,0.42018
"PLY12",1004,"EasyMed",2,2,241,9,141.32,231.09,0,"Medium",68,1,0.5553
"PLY12",1004,"EasyMed",2,2,242,22,167.32,78.878,1,"Medium",76,1,0.31515
"PLY12",1004,"EasyMed",2,2,243,9,141.32,231.09,0,"Medium",68,1,0.50535
"PLY12",1004,"EasyMed",2,2,244,23,198.79,110.6,1,"Medium",76,1,0.31511
"PLY12",1004,"EasyMed",2,2,245,10,172.79,262.78,0,"Medium",68,1,0.45529
"PLY12",1004,"EasyMed",2,2,246,23,198.79,110.6,1,"Medium",76,1,0.31578
"PLY12",1004,"EasyMed",2,2,247,7,78.368,167.68,0,"Medium",68,1,0.54992
"PLY12",1004,"EasyMed",2,2,248,10,172.79,262.78,0,"Medium",68,1,0.57052
"PLY12",1004,"EasyMed",2,2,249,8,109.84,199.37,0,"Medium",76,0,0.42531
"PLY12",1004,"EasyMed",2,2,250,7,78.368,167.68,0,"Medium",68,1,0.60044
"PLY12",1004,"EasyMed",2,3,251,10,172.79,262.78,0,"Medium",68,1,0.63597
"PLY12",1004,"EasyMed",2,3,252,9,141.32,231.09,0,"Medium",68,1,0.62512
"PLY12",1004,"EasyMed",2,3,253,7,78.368,167.68,0,"Medium",68,1,0.69031
"PLY12",1004,"EasyMed",2,3,254,24,230.26,142.32,1,"Medium",76,1,0.37554
"PLY12",1004,"EasyMed",2,3,255,10,172.79,262.78,0,"Medium",68,1,0.55029
"PLY12",1004,"EasyMed",2,3,256,9,141.32,231.09,0,"Medium",68,1,0.5309
"PLY12",1004,"EasyMed",2,3,257,22,167.32,78.878,1,"Medium",76,1,0.64999
"PLY12",1004,"EasyMed",2,3,258,24,230.26,142.32,1,"Medium",76,1,0.51081
"PLY12",1004,"EasyMed",2,3,259,21,135.84,47.187,1,"Medium",68,0,0.72572
"PLY12",1004,"EasyMed",2,3,260,7,78.368,167.68,0,"Medium",68,1,0.6455
"PLY12",1004,"EasyMed",2,3,261,9,141.32,231.09,0,"Medium",68,1,0.50507
"PLY12",1004,"EasyMed",2,3,262,21,135.84,47.187,1,"Medium",76,1,0.76553
"PLY12",1004,"EasyMed",2,3,263,6,46.895,135.96,0,"Medium",68,1,0.50068
"PLY12",1004,"EasyMed",2,3,264,6,46.895,135.96,0,"Medium",68,1,0.48551
"PLY12",1004,"EasyMed",2,3,265,6,46.895,135.96,0,"Medium",68,1,0.37113
"PLY12",1004,"EasyMed",2,3,266,8,109.84,199.37,0,"Medium",68,1,0.66056
"PLY12",1004,"EasyMed",2,3,267,22,167.32,78.878,1,"Medium",76,1,0.31566
"PLY12",1004,"EasyMed",2,3,268,6,46.895,135.96,0,"Medium",68,1,0.35084
"PLY12",1004,"EasyMed",2,3,269,21,135.84,47.187,1,"Medium",76,1,0.71565
"PLY12",1004,"EasyMed",2,3,270,22,167.32,78.878,1,"Medium",76,1,0.54084
"PLY12",1004,"EasyMed",2,3,271,9,141.32,231.09,0,"Medium",68,1,0.72499
"PLY12",1004,"EasyMed",2,3,272,8,109.84,199.37,0,"Medium",68,1,0.46013
"PLY12",1004,"EasyMed",2,3,273,25,261.74,174.01,1,"Medium",76,1,0.48568
"PLY12",1004,"EasyMed",2,3,274,25,261.74,174.01,1,"Medium",76,1,0.41585
"PLY12",1004,"EasyMed",2,3,275,10,172.79,262.78,0,"Medium",68,1,0.40566
"PLY12",1004,"EasyMed",2,3,276,23,198.79,110.6,1,"Medium",76,1,0.39517
"PLY12",1004,"EasyMed",2,3,277,8,109.84,199.37,0,"Medium",68,1,0.35495
"PLY12",1004,"EasyMed",2,3,278,23,198.79,110.6,1,"Medium",76,1,0.52583
"PLY12",1004,"EasyMed",2,3,279,8,109.84,199.37,0,"Medium",68,1,0.54569
"PLY12",1004,"EasyMed",2,3,280,7,78.368,167.68,0,"Medium",68,1,0.44544
"PLY12",1004,"EasyMed",2,3,281,22,167.32,78.878,1,"Medium",76,1,0.28995
"PLY12",1004,"EasyMed",2,3,282,21,135.84,47.187,1,"Medium",68,0,0.36512
"PLY12",1004,"EasyMed",2,3,283,22,167.32,78.878,1,"Medium",76,1,0.49034
"PLY12",1004,"EasyMed",2,3,284,24,230.26,142.32,1,"Medium",76,1,0.4655
"PLY12",1004,"EasyMed",2,3,285,8,109.84,199.37,0,"Medium",68,1,0.49564
"PLY12",1004,"EasyMed",2,3,286,21,135.84,47.187,1,"Medium",76,1,0.40042
"PLY12",1004,"EasyMed",2,3,287,10,172.79,262.78,0,"Medium",68,1,0.68595
"PLY12",1004,"EasyMed",2,3,288,10,172.79,262.78,0,"Medium",68,1,0.55017
"PLY12",1004,"EasyMed",2,3,289,10,172.79,262.78,0,"Medium",68,1,0.47064
"PLY12",1004,"EasyMed",2,3,290,23,198.79,110.6,1,"Medium",76,1,0.4058
"PLY12",1004,"EasyMed",2,3,291,24,230.26,142.32,1,"Medium",76,1,0.42561
"PLY12",1004,"EasyMed",2,3,292,6,46.895,135.96,0,"Medium",68,1,0.43075
"PLY12",1004,"EasyMed",2,3,293,9,141.32,231.09,0,"Medium",68,1,0.43525
"PLY12",1004,"EasyMed",2,3,294,7,78.368,167.68,0,"Medium",68,1,0.44572
"PLY12",1004,"EasyMed",2,3,295,7,78.368,167.68,0,"Medium",68,1,0.34035
"PLY12",1004,"EasyMed",2,3,296,7,78.368,167.68,0,"Medium",68,1,0.34042
"PLY12",1004,"EasyMed",2,3,297,8,109.84,199.37,0,"Medium",68,1,0.37557
"PLY12",1004,"EasyMed",2,3,298,24,230.26,142.32,1,"Medium",76,1,0.51034
"PLY12",1004,"EasyMed",2,3,299,23,198.79,110.6,1,"Medium",76,1,0.4759
"PLY12",1004,"EasyMed",2,3,300,23,198.79,110.6,1,"Medium",76,1,0.34071
"PLY12",1005,"EasyMed",1,1,1,26,157.74,25,1,"Easy",68,0,2.3724
"PLY12",1005,"EasyMed",1,1,2,28,220.68,88.411,1,"Easy",76,1,3.5254
"PLY12",1005,"EasyMed",1,1,3,29,252.16,120.1,1,"Easy",76,1,1.0456
"PLY12",1005,"EasyMed",1,1,4,30,285,151.82,1,"Easy",76,1,1.0954
"PLY12",1005,"EasyMed",1,1,5,28,220.68,88.411,1,"Easy",76,1,1.1703
"PLY12",1005,"EasyMed",1,1,6,4,119.42,253.28,0,"Easy",68,1,1.1905
"PLY12",1005,"EasyMed",1,1,7,4,119.42,253.28,0,"Easy",68,1,0.77507
"PLY12",1005,"EasyMed",1,1,8,26,157.74,25,1,"Easy",76,1,0.965
"PLY12",1005,"EasyMed",1,1,9,26,157.74,25,1,"Easy",76,1,0.77073
"PLY12",1005,"EasyMed",1,1,10,27,189.21,56.691,1,"Easy",76,1,0.78494
"PLY12",1005,"EasyMed",1,1,11,4,119.42,253.28,0,"Easy",68,1,0.90025
"PLY12",1005,"EasyMed",1,1,12,1,25,158.15,0,"Easy",76,0,1.12
"PLY12",1005,"EasyMed",1,1,13,27,189.21,56.691,1,"Easy",76,1,1.2153
"PLY12",1005,"EasyMed",1,1,14,26,157.74,25,1,"Easy",76,1,0.73037
"PLY12",1005,"EasyMed",1,1,15,27,189.21,56.691,1,"Easy",76,1,1.2409
"PLY12",1005,"EasyMed",1,1,16,2,56.474,189.87,0,"Easy",68,1,0.65544
"PLY12",1005,"EasyMed",1,1,17,1,25,158.15,0,"Easy",68,1,0.61512
"PLY12",1005,"EasyMed",1,1,18,30,285,151.82,1,"Easy",76,1,0.86088
"PLY12",1005,"EasyMed",1,1,19,27,189.21,56.691,1,"Easy",76,1,0.75007
"PLY12",1005,"EasyMed",1,1,20,2,56.474,189.87,0,"Easy",68,1,0.62081
"PLY12",1005,"EasyMed",1,1,21,3,87.947,221.56,0,"Easy",76,0,2.0203
"PLY12",1005,"EasyMed",1,1,22,29,252.16,120.1,1,"Easy",76,1,2.5003
"PLY12",1005,"EasyMed",1,1,23,5,150.89,285,0,"Easy",76,0,1.535
"PLY12",1005,"EasyMed",1,1,24,28,220.68,88.411,1,"Easy",76,1,0.56053
"PLY12",1005,"EasyMed",1,1,25,2,56.474,189.87,0,"Easy",68,1,0.65057
"PLY12",1005,"EasyMed",1,1,26,29,252.16,120.1,1,"Easy",76,1,0.58548
"PLY12",1005,"EasyMed",1,1,27,5,150.89,285,0,"Easy",76,0,1.99
"PLY12",1005,"EasyMed",1,1,28,3,87.947,221.56,0,"Easy",76,0,1.2806
"PLY12",1005,"EasyMed",1,1,29,28,220.68,88.411,1,"Easy",76,1,0.49017
"PLY12",1005,"EasyMed",1,1,30,2,56.474,189.87,0,"Easy",68,1,0.78068
"PLY12",1005,"EasyMed",1,1,31,3,87.947,221.56,0,"Easy",68,1,1.3802
"PLY12",1005,"EasyMed",1,1,32,3,87.947,221.56,0,"Easy",68,1,0.76066
"PLY12",1005,"EasyMed",1,1,33,2,56.474,189.87,0,"Easy",68,1,0.57576
"PLY12",1005,"EasyMed",1,1,34,27,189.21,56.691,1,"Easy",76,1,0.36567
"PLY12",1005,"EasyMed",1,1,35,1,25,158.15,0,"Easy",68,1,0.55581
"PLY12",1005,"EasyMed",1,1,36,27,189.21,56.691,1,"Easy",76,1,0.57043
"PLY12",1005,"EasyMed",1,1,37,3,87.947,221.56,0,"Easy",68,1,1.8252
"PLY12",1005,"EasyMed",1,1,38,29,252.16,120.1,1,"Easy",76,1,0.58051
"PLY12",1005,"EasyMed",1,1,39,30,285,151.82,1,"Easy",76,1,0.46504
"PLY12",1005,"EasyMed",1,1,40,30,285,151.82,1,"Easy",76,1,1.0202
"PLY12",1005,"EasyMed",1,1,41,4,119.42,253.28,0,"Easy",76,0,5.0654
"PLY12",1005,"EasyMed",1,1,42,27,189.21,56.691,1,"Easy",76,1,0.54555
"PLY12",1005,"EasyMed",1,1,43,30,285,151.82,1,"Easy",76,1,0.48004
"PLY12",1005,"EasyMed",1,1,44,26,157.74,25,1,"Easy",76,1,0.5402
"PLY12",1005,"EasyMed",1,1,45,4,119.42,253.28,0,"Easy",76,0,0.84553
"PLY12",1005,"EasyMed",1,1,46,4,119.42,253.28,0,"Easy",68,1,0.56079
"PLY12",1005,"EasyMed",1,1,47,4,119.42,253.28,0,"Easy",68,1,0.45583
"PLY12",1005,"EasyMed",1,1,48,1,25,158.15,0,"Easy",68,1,0.68049
"PLY12",1005,"EasyMed",1,1,49,5,150.89,285,0,"Easy",68,1,0.58166
"PLY12",1005,"EasyMed",1,1,50,1,25,158.15,0,"Easy",68,1,0.66522
"PLY12",1005,"EasyMed",1,2,51,1,25,158.15,0,"Easy",68,1,0.58008
"PLY12",1005,"EasyMed",1,2,52,29,252.16,120.1,1,"Easy",76,1,0.59054
"PLY12",1005,"EasyMed",1,2,53,28,220.68,88.411,1,"Easy",76,1,0.55573
"PLY12",1005,"EasyMed",1,2,54,5,150.89,285,0,"Easy",68,1,0.65059
"PLY12",1005,"EasyMed",1,2,55,29,252.16,120.1,1,"Easy",76,1,0.54101
"PLY12",1005,"EasyMed",1,2,56,2,56.474,189.87,0,"Easy",76,0,0.84584
"PLY12",1005,"EasyMed",1,2,57,4,119.42,253.28,0,"Easy",68,1,0.73572
"PLY12",1005,"EasyMed",1,2,58,3,87.947,221.56,0,"Easy",68,1,0.62514
"PLY12",1005,"EasyMed",1,2,59,30,285,151.82,1,"Easy",76,1,0.46037
"PLY12",1005,"EasyMed",1,2,60,30,285,151.82,1,"Easy",76,1,0.52554
"PLY12",1005,"EasyMed",1,2,61,4,119.42,253.28,0,"Easy",68,1,0.69543
"PLY12",1005,"EasyMed",1,2,62,29,252.16,120.1,1,"Easy",76,1,0.52522
"PLY12",1005,"EasyMed",1,2,63,27,189.21,56.691,1,"Easy",76,1,0.61515
"PLY12",1005,"EasyMed",1,2,64,4,119.42,253.28,0,"Easy",68,1,0.57018
"PLY12",1005,"EasyMed",1,2,65,27,189.21,56.691,1,"Easy",76,1,0.50038
"PLY12",1005,"EasyMed",1,2,66,26,157.74,25,1,"Easy",76,1,0.51516
"PLY12",1005,"EasyMed",1,2,67,5,150.89,285,0,"Easy",68,1,0.60573
"PLY12",1005,"EasyMed",1,2,68,2,56.474,189.87,0,"Easy",68,1,0.87551
"PLY12",1005,"EasyMed",1,2,69,2,56.474,189.87,0,"Easy",68,1,0.66541
"PLY12",1005,"EasyMed",1,2,70,3,87.947,221.56,0,"Easy",68,1,0.60562
"PLY12",1005,"EasyMed",1,2,71,26,157.74,25,1,"Easy",76,1,0.41041
"PLY12",1005,"EasyMed",1,2,72,3,87.947,221.56,0,"Easy",68,1,0.79026
"PLY12",1005,"EasyMed",1,2,73,3,87.947,221.56,0,"Easy",68,1,0.55046
"PLY12",1005,"EasyMed",1,2,74,4,119.42,253.28,0,"Easy",68,1,0.56533
"PLY12",1005,"EasyMed",1,2,75,1,25,158.15,0,"Easy",68,1,0.48045
"PLY12",1005,"EasyMed",1,2,76,3,87.947,221.56,0,"Easy",68,1,0.72566
"PLY12",1005,"EasyMed",1,2,77,26,157.74,25,1,"Easy",76,1,0.46049
"PLY12",1005,"EasyMed",1,2,78,2,56.474,189.87,0,"Easy",76,0,0.58515
"PLY12",1005,"EasyMed",1,2,79,28,220.68,88.411,1,"Easy",76,1,0.46017
"PLY12",1005,"EasyMed",1,2,80,2,56.474,189.87,0,"Easy",76,0,0.3757
"PLY12",1005,"EasyMed",1,2,81,28,220.68,88.411,1,"Easy",76,1,0.91054
"PLY12",1005,"EasyMed",1,2,82,29,252.16,120.1,1,"Easy",76,1,0.86567
"PLY12",1005,"EasyMed",1,2,83,30,285,151.82,1,"Easy",76,1,0.54557
"PLY12",1005,"EasyMed",1,2,84,26,157.74,25,1,"Easy",76,1,0.6251
"PLY12",1005,"EasyMed",1,2,85,1,25,158.15,0,"Easy",68,1,0.53514
"PLY12",1005,"EasyMed",1,2,86,29,252.16,120.1,1,"Easy",76,1,0.60554
"PLY12",1005,"EasyMed",1,2,87,27,189.21,56.691,1,"Easy",76,1,0.79519
"PLY12",1005,"EasyMed",1,2,88,26,157.74,25,1,"Easy",76,1,0.44593
"PLY12",1005,"EasyMed",1,2,89,28,220.68,88.411,1,"Easy",76,1,0.42549
"PLY12",1005,"EasyMed",1,2,90,5,150.89,285,0,"Easy",68,1,0.48539
"PLY12",1005,"EasyMed",1,2,91,28,220.68,88.411,1,"Easy",76,1,0.49554
"PLY12",1005,"EasyMed",1,2,92,3,87.947,221.56,0,"Easy",68,1,0.77529
"PLY12",1005,"EasyMed",1,2,93,5,150.89,285,0,"Easy",68,1,0.60049
"PLY12",1005,"EasyMed",1,2,94,27,189.21,56.691,1,"Easy",76,1,0.55006
"PLY12",1005,"EasyMed",1,2,95,5,150.89,285,0,"Easy",68,1,0.7006
"PLY12",1005,"EasyMed",1,2,96,27,189.21,56.691,1,"Easy",76,1,0.54038
"PLY12",1005,"EasyMed",1,2,97,5,150.89,285,0,"Easy",68,1,0.71589
"PLY12",1005,"EasyMed",1,2,98,2,56.474,189.87,0,"Easy",68,1,0.5707
"PLY12",1005,"EasyMed",1,2,99,3,87.947,221.56,0,"Easy",68,1,0.50573
"PLY12",1005,"EasyMed",1,2,100,30,285,151.82,1,"Easy",76,1,0.52543
"PLY12",1005,"EasyMed",1,3,101,3,87.947,221.56,0,"Easy",68,1,0.75026
"PLY12",1005,"EasyMed",1,3,102,5,150.89,285,0,"Easy",68,1,0.62088
"PLY12",1005,"EasyMed",1,3,103,26,157.74,25,1,"Easy",76,1,0.65501
"PLY12",1005,"EasyMed",1,3,104,29,252.16,120.1,1,"Easy",76,1,0.63576
"PLY12",1005,"EasyMed",1,3,105,29,252.16,120.1,1,"Easy",76,1,0.43996
"PLY12",1005,"EasyMed",1,3,106,1,25,158.15,0,"Easy",68,1,0.5805
"PLY12",1005,"EasyMed",1,3,107,4,119.42,253.28,0,"Easy",68,1,0.6508
"PLY12",1005,"EasyMed",1,3,108,4,119.42,253.28,0,"Easy",68,1,0.5404
"PLY12",1005,"EasyMed",1,3,109,4,119.42,253.28,0,"Easy",68,1,0.58063
"PLY12",1005,"EasyMed",1,3,110,2,56.474,189.87,0,"Easy",68,1,0.7202
"PLY12",1005,"EasyMed",1,3,111,1,25,158.15,0,"Easy",68,1,0.49031
"PLY12",1005,"EasyMed",1,3,112,28,220.68,88.411,1,"Easy",76,1,0.4805
"PLY12",1005,"EasyMed",1,3,113,2,56.474,189.87,0,"Easy",68,1,0.79569
"PLY12",1005,"EasyMed",1,3,114,29,252.16,120.1,1,"Easy",76,1,0.46554
"PLY12",1005,"EasyMed",1,3,115,2,56.474,189.87,0,"Easy",68,1,0.49062
"PLY12",1005,"EasyMed",1,3,116,5,150.89,285,0,"Easy",68,1,0.70015
"PLY12",1005,"EasyMed",1,3,117,1,25,158.15,0,"Easy",68,1,0.50067
"PLY12",1005,"EasyMed",1,3,118,5,150.89,285,0,"Easy",68,1,0.67051
"PLY12",1005,"EasyMed",1,3,119,26,157.74,25,1,"Easy",76,1,0.55069
"PLY12",1005,"EasyMed",1,3,120,3,87.947,221.56,0,"Easy",68,1,0.60519
"PLY12",1005,"EasyMed",1,3,121,27,189.21,56.691,1,"Easy",76,1,0.59068
"PLY12",1005,"EasyMed",1,3,122,30,285,151.82,1,"Easy",76,1,0.57021
"PLY12",1005,"EasyMed",1,3,123,1,25,158.15,0,"Easy",68,1,0.63035
"PLY12",1005,"EasyMed",1,3,124,30,285,151.82,1,"Easy",76,1,0.4906
"PLY12",1005,"EasyMed",1,3,125,5,150.89,285,0,"Easy",68,1,0.56575
"PLY12",1005,"EasyMed",1,3,126,29,252.16,120.1,1,"Easy",76,1,0.43553
"PLY12",1005,"EasyMed",1,3,127,30,285,151.82,1,"Easy",76,1,0.54523
"PLY12",1005,"EasyMed",1,3,128,5,150.89,285,0,"Easy",68,1,0.44553
"PLY12",1005,"EasyMed",1,3,129,3,87.947,221.56,0,"Easy",76,0,0.85006
"PLY12",1005,"EasyMed",1,3,130,26,157.74,25,1,"Easy",76,1,0.76558
"PLY12",1005,"EasyMed",1,3,131,27,189.21,56.691,1,"Easy",76,1,0.55569
"PLY12",1005,"EasyMed",1,3,132,4,119.42,253.28,0,"Easy",68,1,0.50054
"PLY12",1005,"EasyMed",1,3,133,1,25,158.15,0,"Easy",68,1,0.50036
"PLY12",1005,"EasyMed",1,3,134,1,25,158.15,0,"Easy",68,1,0.48517
"PLY12",1005,"EasyMed",1,3,135,29,252.16,120.1,1,"Easy",76,1,0.52043
"PLY12",1005,"EasyMed",1,3,136,27,189.21,56.691,1,"Easy",76,1,0.45554
"PLY12",1005,"EasyMed",1,3,137,28,220.68,88.411,1,"Easy",76,1,0.41537
"PLY12",1005,"EasyMed",1,3,138,28,220.68,88.411,1,"Easy",76,1,0.40523
"PLY12",1005,"EasyMed",1,3,139,26,157.74,25,1,"Easy",76,1,0.45013
"PLY12",1005,"EasyMed",1,3,140,30,285,151.82,1,"Easy",76,1,0.55085
"PLY12",1005,"EasyMed",1,3,141,2,56.474,189.87,0,"Easy",68,1,0.97072
"PLY12",1005,"EasyMed",1,3,142,1,25,158.15,0,"Easy",68,1,0.42059
"PLY12",1005,"EasyMed",1,3,143,28,220.68,88.411,1,"Easy",76,1,0.58057
"PLY12",1005,"EasyMed",1,3,144,29,252.16,120.1,1,"Easy",76,1,0.58094
"PLY12",1005,"EasyMed",1,3,145,30,285,151.82,1,"Easy",76,1,0.54516
"PLY12",1005,"EasyMed",1,3,146,30,285,151.82,1,"Easy",76,1,0.42589
"PLY12",1005,"EasyMed",1,3,147,28,220.68,88.411,1,"Easy",76,1,0.49507
"PLY12",1005,"EasyMed",1,3,148,5,150.89,285,0,"Easy",68,1,0.61563
"PLY12",1005,"EasyMed",1,3,149,28,220.68,88.411,1,"Easy",76,1,0.54041
"PLY12",1005,"EasyMed",1,3,150,26,157.74,25,1,"Easy",76,1,0.53056
"PLY12",1005,"EasyMed",2,1,151,6,46.895,135.96,0,"Medium",68,1,1.1355
"PLY12",1005,"EasyMed",2,1,152,24,230.26,142.32,1,"Medium",76,1,0.51582
"PLY12",1005,"EasyMed",2,1,153,22,167.32,78.878,1,"Medium",76,1,0.62002
"PLY12",1005,"EasyMed",2,1,154,8,109.84,199.37,0,"Medium",76,0,0.62515
"PLY12",1005,"EasyMed",2,1,155,25,261.74,174.01,1,"Medium",76,1,0.45109
"PLY12",1005,"EasyMed",2,1,156,21,135.84,47.187,1,"Medium",76,1,0.85501
"PLY12",1005,"EasyMed",2,1,157,9,141.32,231.09,0,"Medium",76,0,0.82038
"PLY12",1005,"EasyMed",2,1,158,7,78.368,167.68,0,"Medium",68,1,0.57527
"PLY12",1005,"EasyMed",2,1,159,23,198.79,110.6,1,"Medium",76,1,0.48012
"PLY12",1005,"EasyMed",2,1,160,25,261.74,174.01,1,"Medium",76,1,0.42522
"PLY12",1005,"EasyMed",2,1,161,24,230.26,142.32,1,"Medium",76,1,0.411
"PLY12",1005,"EasyMed",2,1,162,6,46.895,135.96,0,"Medium",68,1,0.59519
"PLY12",1005,"EasyMed",2,1,163,25,261.74,174.01,1,"Medium",76,1,0.48576
"PLY12",1005,"EasyMed",2,1,164,24,230.26,142.32,1,"Medium",76,1,0.55495
"PLY12",1005,"EasyMed",2,1,165,22,167.32,78.878,1,"Medium",76,1,0.43039
"PLY12",1005,"EasyMed",2,1,166,22,167.32,78.878,1,"Medium",76,1,0.42583
"PLY12",1005,"EasyMed",2,1,167,25,261.74,174.01,1,"Medium",76,1,0.40075
"PLY12",1005,"EasyMed",2,1,168,21,135.84,47.187,1,"Medium",76,1,0.46018
"PLY12",1005,"EasyMed",2,1,169,25,261.74,174.01,1,"Medium",76,1,0.68078
"PLY12",1005,"EasyMed",2,1,170,22,167.32,78.878,1,"Medium",76,1,0.39594
"PLY12",1005,"EasyMed",2,1,171,9,141.32,231.09,0,"Medium",76,0,0.45048
"PLY12",1005,"EasyMed",2,1,172,7,78.368,167.68,0,"Medium",68,1,0.70014
"PLY12",1005,"EasyMed",2,1,173,22,167.32,78.878,1,"Medium",76,1,0.43506
"PLY12",1005,"EasyMed",2,1,174,6,46.895,135.96,0,"Medium",68,1,0.48049
"PLY12",1005,"EasyMed",2,1,175,7,78.368,167.68,0,"Medium",68,1,0.48067
"PLY12",1005,"EasyMed",2,1,176,21,135.84,47.187,1,"Medium",76,1,0.70493
"PLY12",1005,"EasyMed",2,1,177,9,141.32,231.09,0,"Medium",76,0,0.67039
"PLY12",1005,"EasyMed",2,1,178,22,167.32,78.878,1,"Medium",76,1,1.0956
"PLY12",1005,"EasyMed",2,1,179,21,135.84,47.187,1,"Medium",76,1,0.41538
"PLY12",1005,"EasyMed",2,1,180,25,261.74,174.01,1,"Medium",76,1,0.42552
"PLY12",1005,"EasyMed",2,1,181,6,46.895,135.96,0,"Medium",68,1,0.56045
"PLY12",1005,"EasyMed",2,1,182,24,230.26,142.32,1,"Medium",76,1,0.44036
"PLY12",1005,"EasyMed",2,1,183,10,172.79,262.78,0,"Medium",68,1,0.48043
"PLY12",1005,"EasyMed",2,1,184,24,230.26,142.32,1,"Medium",76,1,0.55558
"PLY12",1005,"EasyMed",2,1,185,21,135.84,47.187,1,"Medium",76,1,0.54037
"PLY12",1005,"EasyMed",2,1,186,8,109.84,199.37,0,"Medium",68,1,0.47585
"PLY12",1005,"EasyMed",2,1,187,10,172.79,262.78,0,"Medium",68,1,0.50006
"PLY12",1005,"EasyMed",2,1,188,7,78.368,167.68,0,"Medium",68,1,0.59085
"PLY12",1005,"EasyMed",2,1,189,23,198.79,110.6,1,"Medium",76,1,0.41035
"PLY12",1005,"EasyMed",2,1,190,23,198.79,110.6,1,"Medium",76,1,0.36526
"PLY12",1005,"EasyMed",2,1,191,8,109.84,199.37,0,"Medium",76,0,0.46008
"PLY12",1005,"EasyMed",2,1,192,8,109.84,199.37,0,"Medium",68,1,0.52065
"PLY12",1005,"EasyMed",2,1,193,10,172.79,262.78,0,"Medium",68,1,0.55536
"PLY12",1005,"EasyMed",2,1,194,8,109.84,199.37,0,"Medium",76,0,0.41023
"PLY12",1005,"EasyMed",2,1,195,24,230.26,142.32,1,"Medium",76,1,0.66044
"PLY12",1005,"EasyMed",2,1,196,25,261.74,174.01,1,"Medium",76,1,0.52557
"PLY12",1005,"EasyMed",2,1,197,7,78.368,167.68,0,"Medium",68,1,0.46071
"PLY12",1005,"EasyMed",2,1,198,23,198.79,110.6,1,"Medium",76,1,0.50552
"PLY12",1005,"EasyMed",2,1,199,9,141.32,231.09,0,"Medium",68,1,0.64036
"PLY12",1005,"EasyMed",2,1,200,8,109.84,199.37,0,"Medium",68,1,0.86057
"PLY12",1005,"EasyMed",2,2,201,8,109.84,199.37,0,"Medium",68,1,0.41057
"PLY12",1005,"EasyMed",2,2,202,10,172.79,262.78,0,"Medium",68,1,0.58092
"PLY12",1005,"EasyMed",2,2,203,6,46.895,135.96,0,"Medium",68,1,0.40054
"PLY12",1005,"EasyMed",2,2,204,25,261.74,174.01,1,"Medium",76,1,0.48093
"PLY12",1005,"EasyMed",2,2,205,21,135.84,47.187,1,"Medium",76,1,0.48011
"PLY12",1005,"EasyMed",2,2,206,10,172.79,262.78,0,"Medium",68,1,0.53025
"PLY12",1005,"EasyMed",2,2,207,9,141.32,231.09,0,"Medium",68,1,0.50047
"PLY12",1005,"EasyMed",2,2,208,8,109.84,199.37,0,"Medium",68,1,0.41519
"PLY12",1005,"EasyMed",2,2,209,6,46.895,135.96,0,"Medium",68,1,0.54543
"PLY12",1005,"EasyMed",2,2,210,8,109.84,199.37,0,"Medium",68,1,0.55018
"PLY12",1005,"EasyMed",2,2,211,24,230.26,142.32,1,"Medium",76,1,0.44013
"PLY12",1005,"EasyMed",2,2,212,9,141.32,231.09,0,"Medium",68,1,0.62527
"PLY12",1005,"EasyMed",2,2,213,9,141.32,231.09,0,"Medium",68,1,0.58034
"PLY12",1005,"EasyMed",2,2,214,10,172.79,262.78,0,"Medium",68,1,0.45086
"PLY12",1005,"EasyMed",2,2,215,8,109.84,199.37,0,"Medium",68,1,0.67049
"PLY12",1005,"EasyMed",2,2,216,23,198.79,110.6,1,"Medium",76,1,0.51521
"PLY12",1005,"EasyMed",2,2,217,22,167.32,78.878,1,"Medium",76,1,0.3951
"PLY12",1005,"EasyMed",2,2,218,25,261.74,174.01,1,"Medium",76,1,0.49492
"PLY12",1005,"EasyMed",2,2,219,24,230.26,142.32,1,"Medium",76,1,0.36066
"PLY12",1005,"EasyMed",2,2,220,23,198.79,110.6,1,"Medium",76,1,0.42056
"PLY12",1005,"EasyMed",2,2,221,21,135.84,47.187,1,"Medium",76,1,0.42548
"PLY12",1005,"EasyMed",2,2,222,6,46.895,135.96,0,"Medium",68,1,0.59054
"PLY12",1005,"EasyMed",2,2,223,6,46.895,135.96,0,"Medium",68,1,0.44509
"PLY12",1005,"EasyMed",2,2,224,6,46.895,135.96,0,"Medium",68,1,0.45551
"PLY12",1005,"EasyMed",2,2,225,21,135.84,47.187,1,"Medium",76,1,0.67522
"PLY12",1005,"EasyMed",2,2,226,6,46.895,135.96,0,"Medium",68,1,0.45588
"PLY12",1005,"EasyMed",2,2,227,9,141.32,231.09,0,"Medium",68,1,0.65547
"PLY12",1005,"EasyMed",2,2,228,7,78.368,167.68,0,"Medium",68,1,0.35597
"PLY12",1005,"EasyMed",2,2,229,7,78.368,167.68,0,"Medium",68,1,0.43539
"PLY12",1005,"EasyMed",2,2,230,10,172.79,262.78,0,"Medium",68,1,0.5759
"PLY12",1005,"EasyMed",2,2,231,22,167.32,78.878,1,"Medium",76,1,0.45499
"PLY12",1005,"EasyMed",2,2,232,25,261.74,174.01,1,"Medium",76,1,0.46551
"PLY12",1005,"EasyMed",2,2,233,23,198.79,110.6,1,"Medium",76,1,0.46158
"PLY12",1005,"EasyMed",2,2,234,7,78.368,167.68,0,"Medium",68,1,0.63582
"PLY12",1005,"EasyMed",2,2,235,23,198.79,110.6,1,"Medium",76,1,0.50509
"PLY12",1005,"EasyMed",2,2,236,23,198.79,110.6,1,"Medium",76,1,0.40084
"PLY12",1005,"EasyMed",2,2,237,25,261.74,174.01,1,"Medium",76,1,0.45567
"PLY12",1005,"EasyMed",2,2,238,10,172.79,262.78,0,"Medium",68,1,0.47515
"PLY12",1005,"EasyMed",2,2,239,24,230.26,142.32,1,"Medium",76,1,0.48118
"PLY12",1005,"EasyMed",2,2,240,22,167.32,78.878,1,"Medium",76,1,0.42054
"PLY12",1005,"EasyMed",2,2,241,21,135.84,47.187,1,"Medium",76,1,0.50562
"PLY12",1005,"EasyMed",2,2,242,10,172.79,262.78,0,"Medium",68,1,0.46029
"PLY12",1005,"EasyMed",2,2,243,9,141.32,231.09,0,"Medium",76,0,0.69499
"PLY12",1005,"EasyMed",2,2,244,8,109.84,199.37,0,"Medium",68,1,0.54081
