"cond"	"subj"	"phase"	"blk"	"trial"	"stim"	"resp"	"rt"
1	1006	1	1	1	42	3	3016
1	1006	1	1	2	48	2	3897
1	1006	1	1	3	10	3	1684
1	1006	1	1	4	2	2	903
1	1006	1	1	5	21	2	854
1	1006	1	1	6	33	2	4004
1	1006	1	1	7	14	2	1434
1	1006	1	1	8	30	1	4137
1	1006	1	2	1	39	3	1673
1	1006	1	2	2	1	3	595
1	1006	1	2	3	46	2	1768
1	1006	1	2	4	18	1	9261
1	1006	1	2	5	22	3	1413
1	1006	1	2	6	32	2	5981
1	1006	1	2	7	9	2	322
1	1006	1	2	8	27	2	937
1	1006	1	3	1	43	3	655
1	1006	1	3	2	17	2	784
1	1006	1	3	3	24	3	553
1	1006	1	3	4	28	3	1992
1	1006	1	3	5	34	3	1216
1	1006	1	3	6	7	1	778
1	1006	1	3	7	5	1	2453
1	1006	1	3	8	38	2	328
1	1006	1	4	1	11	2	455
1	1006	1	4	2	41	2	544
1	1006	1	4	3	35	2	305
1	1006	1	4	4	4	2	281
1	1006	1	4	5	47	3	579
1	1006	1	4	6	15	3	756
1	1006	1	4	7	29	2	683
1	1006	1	4	8	19	1	381
1	1006	1	5	1	44	3	355
1	1006	1	5	2	13	3	390
1	1006	1	5	3	25	3	960
1	1006	1	5	4	31	1	354
1	1006	1	5	5	6	3	430
1	1006	1	5	6	23	2	299
1	1006	1	5	7	8	1	320
1	1006	1	5	8	37	3	1247
1	1006	1	6	1	26	3	255
1	1006	1	6	2	3	3	110
1	1006	1	6	3	45	3	281
1	1006	1	6	4	12	3	613
1	1006	1	6	5	16	2	408
1	1006	1	6	6	40	2	265
1	1006	1	6	7	20	1	431
1	1006	1	6	8	36	3	234
1	1006	1	7	1	17	1	385
1	1006	1	7	2	6	3	1086
1	1006	1	7	3	44	3	313
1	1006	1	7	4	33	2	281
1	1006	1	7	5	23	2	281
1	1006	1	7	6	28	1	711
1	1006	1	7	7	8	2	280
1	1006	1	7	8	38	2	742
1	1006	1	8	1	9	2	271
1	1006	1	8	2	43	2	311
1	1006	1	8	3	3	3	460
1	1006	1	8	4	20	1	411
1	1006	1	8	5	35	2	528
1	1006	1	8	6	25	2	501
1	1006	1	8	7	16	2	442
1	1006	1	8	8	42	1	398
1	1006	1	9	1	32	1	312
1	1006	1	9	2	11	2	575
1	1006	1	9	3	30	2	427
1	1006	1	9	4	15	3	1140
1	1006	1	9	5	37	3	1577
1	1006	1	9	6	5	2	313
1	1006	1	9	7	47	3	1165
1	1006	1	9	8	22	3	484
1	1006	1	10	1	39	3	415
1	1006	1	10	2	7	1	324
1	1006	1	10	3	2	2	421
1	1006	1	10	4	29	3	490
1	1006	1	10	5	45	1	419
1	1006	1	10	6	24	2	519
1	1006	1	10	7	14	2	285
1	1006	1	10	8	34	3	246
1	1006	1	11	1	19	2	329
1	1006	1	11	2	18	1	954
1	1006	1	11	3	41	1	3708
1	1006	1	11	4	4	2	294
1	1006	1	11	5	46	1	2826
1	1006	1	11	6	10	3	540
1	1006	1	11	7	36	3	877
1	1006	1	11	8	26	1	1765
1	1006	1	12	1	21	2	415
1	1006	1	12	2	48	2	142
1	1006	1	12	3	40	2	310
1	1006	1	12	4	31	1	450
1	1006	1	12	5	1	1	323
1	1006	1	12	6	27	2	233
1	1006	1	12	7	12	3	278
1	1006	1	12	8	13	3	6681
1	1006	2	1	1	0	2	8069
1	1006	2	1	2	0	1	6729
1	1006	2	1	3	0	2	7953
1	1006	2	1	4	0	2	5129
1	1006	2	1	5	0	3	5416
1	1006	2	1	6	0	2	3062
1	1006	2	1	7	0	2	9279
1	1006	2	1	8	0	3	4738
1	1006	2	1	9	0	3	4034
1	1006	2	1	10	0	2	10855
1	1006	2	1	11	0	2	4706
1	1006	2	1	12	0	3	9850
1	1006	2	1	13	0	1	6487
1	1006	2	1	14	0	1	3473
1	1006	2	1	15	0	4	3130
1	1006	2	1	16	0	2	3066
1	1006	2	1	17	0	2	2355
1	1006	2	1	18	0	1	8849
1	1006	2	1	19	0	2	4134
1	1006	2	1	20	0	4	3726
1	1006	2	1	21	0	1	2655
1	1006	2	1	22	0	1	4152
1	1006	2	1	23	0	2	4438
1	1006	2	1	24	0	1	5698
1	1006	2	1	25	0	1	5612
1	1006	2	1	26	0	2	3696
1	1006	2	1	27	0	3	7364
1	1006	2	1	28	0	2	6553
1	1006	2	1	29	0	2	2615
1	1006	2	1	30	0	2	5035
1	1008	1	1	1	45	1	5344
1	1008	1	1	2	15	3	2537
1	1008	1	1	3	9	2	491
1	1008	1	1	4	32	1	3040
1	1008	1	1	5	4	2	2923
1	1008	1	1	6	42	2	2009
1	1008	1	1	7	25	3	1169
1	1008	1	1	8	23	2	1862
1	1008	1	2	1	8	1	1708
1	1008	1	2	2	35	2	6
1	1008	1	2	3	5	2	10830
1	1008	1	2	4	30	3	752
1	1008	1	2	5	46	3	1875
1	1008	1	2	6	20	1	1100
1	1008	1	2	7	37	3	2041
1	1008	1	2	8	18	1	1133
1	1008	1	3	1	36	3	515
1	1008	1	3	2	21	2	2414
1	1008	1	3	3	41	1	1973
1	1008	1	3	4	12	3	301
1	1008	1	3	5	6	3	1088
1	1008	1	3	6	26	1	2447
1	1008	1	3	7	47	2	2692
1	1008	1	3	8	14	1	1319
1	1008	1	4	1	24	3	555
1	1008	1	4	2	29	2	63
1	1008	1	4	3	48	2	351
1	1008	1	4	4	40	2	293
1	1008	1	4	5	17	1	1633
1	1008	1	4	6	31	1	653
1	1008	1	4	7	3	2	395
1	1008	1	4	8	10	3	3571
1	1008	1	5	1	44	3	567
1	1008	1	5	2	22	3	705
1	1008	1	5	3	13	1	487
1	1008	1	5	4	28	2	891
1	1008	1	5	5	2	1	465
1	1008	1	5	6	38	3	754
1	1008	1	5	7	33	2	296
1	1008	1	5	8	11	2	404
1	1008	1	6	1	27	2	1445
1	1008	1	6	2	7	1	416
1	1008	1	6	3	19	1	922
1	1008	1	6	4	43	2	455
1	1008	1	6	5	1	1	244
1	1008	1	6	6	34	3	606
1	1008	1	6	7	39	2	1008
1	1008	1	6	8	16	3	770
1	1008	1	7	1	3	2	201
1	1008	1	7	2	35	2	249
1	1008	1	7	3	9	2	357
1	1008	1	7	4	42	1	863
1	1008	1	7	5	15	2	758
1	1008	1	7	6	21	2	327
1	1008	1	7	7	45	1	1303
1	1008	1	7	8	26	2	834
1	1008	1	8	1	48	2	679
1	1008	1	8	2	7	1	343
1	1008	1	8	3	34	3	3056
1	1008	1	8	4	5	2	1210
1	1008	1	8	5	20	3	395
1	1008	1	8	6	14	1	823
1	1008	1	8	7	28	3	315
1	1008	1	8	8	40	3	1902
1	1008	1	9	1	31	1	339
1	1008	1	9	2	4	3	552
1	1008	1	9	3	24	3	718
1	1008	1	9	4	17	2	302
1	1008	1	9	5	29	2	284
1	1008	1	9	6	38	2	1951
1	1008	1	9	7	12	3	916
1	1008	1	9	8	43	2	270
1	1008	1	10	1	30	3	311
1	1008	1	10	2	36	3	532
1	1008	1	10	3	6	3	722
1	1008	1	10	4	10	3	545
1	1008	1	10	5	22	3	446
1	1008	1	10	6	13	1	328
1	1008	1	10	7	39	2	445
1	1008	1	10	8	47	2	370
1	1008	1	11	1	25	1	430
1	1008	1	11	2	8	1	750
1	1008	1	11	3	16	3	2256
1	1008	1	11	4	1	1	515
1	1008	1	11	5	46	1	1536
1	1008	1	11	6	32	1	509
1	1008	1	11	7	41	2	1349
1	1008	1	11	8	23	2	357
1	1008	1	12	1	37	2	3066
1	1008	1	12	2	19	1	469
1	1008	1	12	3	27	2	79
1	1008	1	12	4	2	1	272
1	1008	1	12	5	33	2	213
1	1008	1	12	6	18	2	253
1	1008	1	12	7	44	3	516
1	1008	1	12	8	11	2	455
1	1008	2	1	1	0	2	12123
1	1008	2	1	2	0	2	10684
1	1008	2	1	3	0	3	7272
1	1008	2	1	4	0	3	11035
1	1008	2	1	5	0	2	6513
1	1008	2	1	6	0	4	4722
1	1008	2	1	7	0	3	4610
1	1008	2	1	8	0	3	3615
1	1008	2	1	9	0	3	2859
1	1008	2	1	10	0	2	4069
1	1008	2	1	11	0	2	8967
1	1008	2	1	12	0	4	3318
1	1008	2	1	13	0	1	7878
1	1008	2	1	14	0	2	6481
1	1008	2	1	15	0	2	3299
1	1008	2	1	16	0	2	5865
1	1008	2	1	17	0	2	4983
1	1008	2	1	18	0	1	5292
1	1008	2	1	19	0	2	3222
1	1008	2	1	20	0	2	3082
1	1008	2	1	21	0	1	4851
1	1008	2	1	22	0	3	2166
1	1008	2	1	23	0	2	5692
1	1008	2	1	24	0	3	2620
1	1008	2	1	25	0	2	6320
1	1008	2	1	26	0	2	4705
1	1008	2	1	27	0	3	5978
1	1008	2	1	28	0	2	6504
1	1008	2	1	29	0	2	2962
1	1008	2	1	30	0	3	1976
1	1009	1	1	1	44	2	1506
1	1009	1	1	2	16	2	853
1	1009	1	1	3	12	3	1049
1	1009	1	1	4	38	2	1087
1	1009	1	1	5	24	1	1593
1	1009	1	1	6	32	2	1080
1	1009	1	1	7	30	2	960
1	1009	1	1	8	3	3	3350
1	1009	1	2	1	10	3	633
1	1009	1	2	2	23	2	602
1	1009	1	2	3	1	3	693
1	1009	1	2	4	17	1	519
1	1009	1	2	5	37	3	481
1	1009	1	2	6	34	3	711
1	1009	1	2	7	26	3	386
1	1009	1	2	8	47	2	535
1	1009	1	3	1	35	2	600
1	1009	1	3	2	25	3	408
1	1009	1	3	3	11	2	366
1	1009	1	3	4	19	1	1721
1	1009	1	3	5	2	2	593
1	1009	1	3	6	48	2	469
1	1009	1	3	7	41	2	434
1	1009	1	3	8	14	2	353
1	1009	1	4	1	39	3	325
1	1009	1	4	2	46	2	502
1	1009	1	4	3	15	3	706
1	1009	1	4	4	7	1	2420
1	1009	1	4	5	31	3	328
1	1009	1	4	6	21	2	321
1	1009	1	4	7	5	1	755
1	1009	1	4	8	29	2	747
1	1009	1	5	1	9	2	307
1	1009	1	5	2	45	3	419
1	1009	1	5	3	28	3	765
1	1009	1	5	4	4	2	519
1	1009	1	5	5	13	1	1490
1	1009	1	5	6	33	3	334
1	1009	1	5	7	42	3	445
1	1009	1	5	8	22	3	774
1	1009	1	6	1	36	1	557
1	1009	1	6	2	18	1	315
1	1009	1	6	3	6	1	371
1	1009	1	6	4	8	2	906
1	1009	1	6	5	43	3	3138
1	1009	1	6	6	27	3	438
1	1009	1	6	7	40	2	861
1	1009	1	6	8	20	1	1259
1	1009	1	7	1	35	3	380
1	1009	1	7	2	9	2	342
1	1009	1	7	3	19	1	314
1	1009	1	7	4	45	2	357
1	1009	1	7	5	15	2	327
1	1009	1	7	6	3	2	307
1	1009	1	7	7	30	3	557
1	1009	1	7	8	37	1	512
1	1009	1	8	1	36	1	499
1	1009	1	8	2	22	2	823
1	1009	1	8	3	16	2	504
1	1009	1	8	4	42	3	811
1	1009	1	8	5	48	3	714
1	1009	1	8	6	28	2	1158
1	1009	1	8	7	8	1	546
1	1009	1	8	8	6	1	825
1	1009	1	9	1	24	3	378
1	1009	1	9	2	34	2	356
1	1009	1	9	3	27	3	314
1	1009	1	9	4	43	1	458
1	1009	1	9	5	14	2	617
1	1009	1	9	6	11	2	541
1	1009	1	9	7	4	2	366
1	1009	1	9	8	39	2	580
1	1009	1	10	1	1	3	983
1	1009	1	10	2	20	1	508
1	1009	1	10	3	10	3	364
1	1009	1	10	4	44	2	365
1	1009	1	10	5	25	3	481
1	1009	1	10	6	13	3	304
1	1009	1	10	7	41	1	499
1	1009	1	10	8	32	2	848
1	1009	1	11	1	12	3	351
1	1009	1	11	2	17	2	302
1	1009	1	11	3	38	2	825
1	1009	1	11	4	47	2	512
1	1009	1	11	5	29	1	1175
1	1009	1	11	6	31	3	699
1	1009	1	11	7	5	1	370
1	1009	1	11	8	23	2	326
1	1009	1	12	1	46	3	689
1	1009	1	12	2	21	2	352
1	1009	1	12	3	7	1	613
1	1009	1	12	4	26	1	1059
1	1009	1	12	5	33	3	1009
1	1009	1	12	6	18	1	706
1	1009	1	12	7	40	3	465
1	1009	1	12	8	2	2	490
1	1009	2	1	1	0	2	6508
1	1009	2	1	2	0	2	3597
1	1009	2	1	3	0	3	3922
1	1009	2	1	4	0	3	3682
1	1009	2	1	5	0	2	2212
1	1009	2	1	6	0	2	4774
1	1009	2	1	7	0	2	5012
1	1009	2	1	8	0	3	2217
1	1009	2	1	9	0	3	2508
1	1009	2	1	10	0	4	3804
1	1009	2	1	11	0	3	3874
1	1009	2	1	12	0	3	2291
1	1009	2	1	13	0	2	4355
1	1009	2	1	14	0	2	1533
1	1009	2	1	15	0	3	3256
1	1009	2	1	16	0	1	2027
1	1009	2	1	17	0	2	3013
1	1009	2	1	18	0	1	2522
1	1009	2	1	19	0	1	1736
1	1009	2	1	20	0	2	1543
1	1009	2	1	21	0	1	3741
1	1009	2	1	22	0	2	3436
1	1009	2	1	23	0	2	3246
1	1009	2	1	24	0	3	1995
1	1009	2	1	25	0	1	2853
1	1009	2	1	26	0	4	4303
1	1009	2	1	27	0	2	5218
1	1009	2	1	28	0	4	3029
1	1009	2	1	29	0	4	1944
1	1009	2	1	30	0	3	2583
1	1016	1	1	1	16	2	1056
1	1016	1	1	2	47	2	1629
1	1016	1	1	3	11	2	970
1	1016	1	1	4	6	1	1536
1	1016	1	1	5	41	2	626
1	1016	1	1	6	32	1	52
1	1016	1	1	7	24	3	3633
1	1016	1	1	8	28	3	887
1	1016	1	2	1	1	3	935
1	1016	1	2	2	10	3	654
1	1016	1	2	3	31	1	931
1	1016	1	2	4	37	3	1192
1	1016	1	2	5	17	1	746
1	1016	1	2	6	45	3	1215
1	1016	1	2	7	29	2	289
1	1016	1	2	8	21	2	915
1	1016	1	3	1	44	2	1227
1	1016	1	3	2	4	2	2321
1	1016	1	3	3	35	2	698
1	1016	1	3	4	30	3	872
1	1016	1	3	5	23	2	572
1	1016	1	3	6	7	1	689
1	1016	1	3	7	13	3	504
1	1016	1	3	8	38	2	1040
1	1016	1	4	1	33	2	521
1	1016	1	4	2	3	3	994
1	1016	1	4	3	25	1	502
1	1016	1	4	4	18	3	1202
1	1016	1	4	5	20	1	919
1	1016	1	4	6	40	2	1330
1	1016	1	4	7	43	2	1257
1	1016	1	4	8	8	1	820
1	1016	1	5	1	34	3	1252
1	1016	1	5	2	15	2	1062
1	1016	1	5	3	5	1	816
1	1016	1	5	4	22	3	1462
1	1016	1	5	5	48	2	826
1	1016	1	5	6	9	2	548
1	1016	1	5	7	42	2	693
1	1016	1	5	8	27	2	495
1	1016	1	6	1	46	2	845
1	1016	1	6	2	26	3	419
1	1016	1	6	3	19	2	955
1	1016	1	6	4	39	3	394
1	1016	1	6	5	14	2	559
1	1016	1	6	6	36	3	429
1	1016	1	6	7	12	3	482
1	1016	1	6	8	2	2	435
1	1016	1	7	1	33	2	489
1	1016	1	7	2	4	2	1219
1	1016	1	7	3	38	2	450
1	1016	1	7	4	13	3	745
1	1016	1	7	5	11	2	448
1	1016	1	7	6	24	3	929
1	1016	1	7	7	43	2	296
1	1016	1	7	8	30	2	324
1	1016	1	8	1	5	2	600
1	1016	1	8	2	42	1	612
1	1016	1	8	3	18	3	841
1	1016	1	8	4	32	1	456
1	1016	1	8	5	22	3	1094
1	1016	1	8	6	44	3	509
1	1016	1	8	7	25	2	506
1	1016	1	8	8	12	3	520
1	1016	1	9	1	45	3	1113
1	1016	1	9	2	14	3	505
1	1016	1	9	3	19	1	356
1	1016	1	9	4	40	2	525
1	1016	1	9	5	36	3	340
1	1016	1	9	6	26	3	341
1	1016	1	9	7	10	1	782
1	1016	1	9	8	2	2	516
1	1016	1	10	1	20	3	512
1	1016	1	10	2	41	1	496
1	1016	1	10	3	6	3	421
1	1016	1	10	4	48	2	481
1	1016	1	10	5	7	1	512
1	1016	1	10	6	29	3	422
1	1016	1	10	7	15	3	498
1	1016	1	10	8	31	1	306
1	1016	1	11	1	16	2	906
1	1016	1	11	2	8	1	737
1	1016	1	11	3	37	3	438
1	1016	1	11	4	47	3	452
1	1016	1	11	5	28	1	370
1	1016	1	11	6	23	2	334
1	1016	1	11	7	3	2	770
1	1016	1	11	8	35	2	342
1	1016	1	12	1	1	1	352
1	1016	1	12	2	46	2	310
1	1016	1	12	3	17	2	377
1	1016	1	12	4	27	2	1458
1	1016	1	12	5	34	3	292
1	1016	1	12	6	39	3	473
1	1016	1	12	7	21	2	503
1	1016	1	12	8	9	2	491
1	1016	2	1	1	0	2	8390
1	1016	2	1	2	0	1	8340
1	1016	2	1	3	0	2	5397
1	1016	2	1	4	0	1	3922
1	1016	2	1	5	0	2	4385
1	1016	2	1	6	0	3	3455
1	1016	2	1	7	0	3	4426
1	1016	2	1	8	0	3	2325
1	1016	2	1	9	0	2	2109
1	1016	2	1	10	0	2	4580
1	1016	2	1	11	0	1	3898
1	1016	2	1	12	0	3	3339
1	1016	2	1	13	0	3	2482
1	1016	2	1	14	0	1	1803
1	1016	2	1	15	0	2	2816
1	1016	2	1	16	0	1	4051
1	1016	2	1	17	0	2	2758
1	1016	2	1	18	0	2	2676
1	1016	2	1	19	0	2	2773
1	1016	2	1	20	0	2	1771
1	1016	2	1	21	0	1	3233
1	1016	2	1	22	0	2	1523
1	1016	2	1	23	0	2	2306
1	1016	2	1	24	0	1	2378
1	1016	2	1	25	0	2	3551
1	1016	2	1	26	0	2	3950
1	1016	2	1	27	0	2	4389
1	1016	2	1	28	0	2	2490
1	1016	2	1	29	0	2	1754
1	1016	2	1	30	0	3	3433
1	1017	1	1	1	46	2	1369
1	1017	1	1	2	30	2	872
1	1017	1	1	3	19	1	1790
1	1017	1	1	4	37	3	468
1	1017	1	1	5	4	2	2484
1	1017	1	1	6	14	2	1272
1	1017	1	1	7	35	3	2158
1	1017	1	1	8	7	1	1795
1	1017	1	2	1	41	1	524
1	1017	1	2	2	47	1	1036
1	1017	1	2	3	21	2	1049
1	1017	1	2	4	5	1	621
1	1017	1	2	5	33	2	1360
1	1017	1	2	6	8	1	1144
1	1017	1	2	7	25	2	1061
1	1017	1	2	8	15	3	1078
1	1017	1	3	1	2	1	1276
1	1017	1	3	2	18	1	517
1	1017	1	3	3	28	1	939
1	1017	1	3	4	43	2	784
1	1017	1	3	5	34	3	1000
1	1017	1	3	6	40	2	420
1	1017	1	3	7	24	1	1155
1	1017	1	3	8	12	3	817
1	1017	1	4	1	27	1	2387
1	1017	1	4	2	48	1	1678
1	1017	1	4	3	6	1	1570
1	1017	1	4	4	16	3	793
1	1017	1	4	5	20	3	2487
1	1017	1	4	6	38	2	491
1	1017	1	4	7	32	1	1093
1	1017	1	4	8	10	3	591
1	1017	1	5	1	39	3	1425
1	1017	1	5	2	26	3	946
1	1017	1	5	3	31	1	544
1	1017	1	5	4	17	3	1180
1	1017	1	5	5	44	3	524
1	1017	1	5	6	23	2	984
1	1017	1	5	7	9	2	892
1	1017	1	5	8	3	3	816
1	1017	1	6	1	11	2	803
1	1017	1	6	2	42	1	1319
1	1017	1	6	3	36	3	597
1	1017	1	6	4	22	2	1006
1	1017	1	6	5	29	3	718
1	1017	1	6	6	1	3	1147
1	1017	1	6	7	45	3	710
1	1017	1	6	8	13	3	504
1	1017	1	7	1	3	3	807
1	1017	1	7	2	25	2	1180
1	1017	1	7	3	38	2	396
1	1017	1	7	4	18	1	838
1	1017	1	7	5	19	2	1404
1	1017	1	7	6	12	3	1319
1	1017	1	7	7	44	3	390
1	1017	1	7	8	34	3	508
1	1017	1	8	1	4	2	451
1	1017	1	8	2	9	2	589
1	1017	1	8	3	40	2	355
1	1017	1	8	4	35	2	420
1	1017	1	8	5	48	2	1004
1	1017	1	8	6	26	1	1886
1	1017	1	8	7	16	2	477
1	1017	1	8	8	21	3	1255
1	1017	1	9	1	29	3	633
1	1017	1	9	2	13	3	1097
1	1017	1	9	3	36	3	502
1	1017	1	9	4	47	3	718
1	1017	1	9	5	7	1	1052
1	1017	1	9	6	2	2	1220
1	1017	1	9	7	23	2	440
1	1017	1	9	8	39	3	542
1	1017	1	10	1	45	3	2164
1	1017	1	10	2	37	3	398
1	1017	1	10	3	27	1	842
1	1017	1	10	4	1	3	483
1	1017	1	10	5	20	2	641
1	1017	1	10	6	14	2	505
1	1017	1	10	7	32	1	583
1	1017	1	10	8	8	1	715
1	1017	1	11	1	24	1	284
1	1017	1	11	2	15	3	957
1	1017	1	11	3	33	2	477
1	1017	1	11	4	5	2	1013
1	1017	1	11	5	30	2	537
1	1017	1	11	6	41	1	479
1	1017	1	11	7	10	3	936
1	1017	1	11	8	43	3	900
1	1017	1	12	1	42	1	440
1	1017	1	12	2	6	3	1693
1	1017	1	12	3	11	1	1131
1	1017	1	12	4	17	2	1141
1	1017	1	12	5	31	1	436
1	1017	1	12	6	46	1	434
1	1017	1	12	7	22	3	905
1	1017	1	12	8	28	2	1262
1	1017	2	1	1	0	3	18118
1	1017	2	1	2	0	4	7875
1	1017	2	1	3	0	3	6366
1	1017	2	1	4	0	1	6933
1	1017	2	1	5	0	3	6677
1	1017	2	1	6	0	3	2816
1	1017	2	1	7	0	1	7636
1	1017	2	1	8	0	2	3040
1	1017	2	1	9	0	1	3699
1	1017	2	1	10	0	2	2428
1	1017	2	1	11	0	3	5638
1	1017	2	1	12	0	2	7762
1	1017	2	1	13	0	3	5041
1	1017	2	1	14	0	3	2541
1	1017	2	1	15	0	2	5587
1	1017	2	1	16	0	1	5801
1	1017	2	1	17	0	3	3774
1	1017	2	1	18	0	3	4292
1	1017	2	1	19	0	3	3685
1	1017	2	1	20	0	2	2726
1	1017	2	1	21	0	1	3781
1	1017	2	1	22	0	4	2347
1	1017	2	1	23	0	2	4273
1	1017	2	1	24	0	1	4419
1	1017	2	1	25	0	4	5543
1	1017	2	1	26	0	3	3494
1	1017	2	1	27	0	1	3182
1	1017	2	1	28	0	4	2140
1	1017	2	1	29	0	1	1787
1	1017	2	1	30	0	3	2119
1	1018	1	1	1	16	2	2503
1	1018	1	1	2	23	2	2649
1	1018	1	1	3	37	3	1130
1	1018	1	1	4	12	3	1383
1	1018	1	1	5	45	1	2104
1	1018	1	1	6	30	2	1268
1	1018	1	1	7	31	3	1100
1	1018	1	1	8	2	2	711
1	1018	1	2	1	13	3	981
1	1018	1	2	2	42	1	908
1	1018	1	2	3	46	2	1295
1	1018	1	2	4	1	3	694
1	1018	1	2	5	26	3	849
1	1018	1	2	6	35	2	183
1	1018	1	2	7	22	3	865
1	1018	1	2	8	11	2	635
1	1018	1	3	1	24	3	1148
1	1018	1	3	2	18	1	736
1	1018	1	3	3	9	2	208
1	1018	1	3	4	25	2	418
1	1018	1	3	5	43	2	479
1	1018	1	3	6	32	1	509
1	1018	1	3	7	6	1	407
1	1018	1	3	8	39	3	789
1	1018	1	4	1	29	3	783
1	1018	1	4	2	33	2	819
1	1018	1	4	3	15	3	1176
1	1018	1	4	4	7	1	763
1	1018	1	4	5	48	2	1722
1	1018	1	4	6	41	1	685
1	1018	1	4	7	4	2	521
1	1018	1	4	8	21	2	1016
1	1018	1	5	1	40	2	434
1	1018	1	5	2	8	1	157
1	1018	1	5	3	34	3	747
1	1018	1	5	4	17	1	925
1	1018	1	5	5	47	3	515
1	1018	1	5	6	3	3	492
1	1018	1	5	7	20	1	750
1	1018	1	5	8	27	1	671
1	1018	1	6	1	38	2	563
1	1018	1	6	2	10	2	580
1	1018	1	6	3	14	2	1104
1	1018	1	6	4	44	3	661
1	1018	1	6	5	36	3	715
1	1018	1	6	6	28	1	1031
1	1018	1	6	7	5	1	1151
1	1018	1	6	8	19	1	928
1	1018	1	7	1	37	3	730
1	1018	1	7	2	43	2	444
1	1018	1	7	3	26	3	514
1	1018	1	7	4	6	1	431
1	1018	1	7	5	24	3	420
1	1018	1	7	6	11	2	371
1	1018	1	7	7	16	2	415
1	1018	1	7	8	33	2	521
1	1018	1	8	1	38	2	698
1	1018	1	8	2	30	2	375
1	1018	1	8	3	44	3	679
1	1018	1	8	4	22	2	531
1	1018	1	8	5	31	1	303
1	1018	1	8	6	18	2	475
1	1018	1	8	7	4	2	582
1	1018	1	8	8	9	2	544
1	1018	1	9	1	41	1	943
1	1018	1	9	2	28	1	521
1	1018	1	9	3	15	3	592
1	1018	1	9	4	36	3	824
1	1018	1	9	5	1	1	799
1	1018	1	9	6	47	3	435
1	1018	1	9	7	10	3	1316
1	1018	1	9	8	19	1	1040
1	1018	1	10	1	29	3	635
1	1018	1	10	2	32	1	34
1	1018	1	10	3	20	1	924
1	1018	1	10	4	17	1	799
1	1018	1	10	5	40	2	748
1	1018	1	10	6	7	1	609
1	1018	1	10	7	48	2	317
1	1018	1	10	8	5	3	309
1	1018	1	11	1	23	2	696
1	1018	1	11	2	2	2	670
1	1018	1	11	3	42	1	593
1	1018	1	11	4	13	2	605
1	1018	1	11	5	8	1	334
1	1018	1	11	6	27	1	852
1	1018	1	11	7	46	1	453
1	1018	1	11	8	34	3	539
1	1018	1	12	1	45	1	637
1	1018	1	12	2	3	3	511
1	1018	1	12	3	14	2	323
1	1018	1	12	4	12	3	503
1	1018	1	12	5	21	2	331
1	1018	1	12	6	25	2	368
1	1018	1	12	7	39	3	383
1	1018	1	12	8	35	2	815
1	1018	2	1	1	0	3	13978
1	1018	2	1	2	0	3	9875
1	1018	2	1	3	0	4	5079
1	1018	2	1	4	0	4	2633
1	1018	2	1	5	0	3	2884
1	1018	2	1	6	0	3	2373
1	1018	2	1	7	0	3	3466
1	1018	2	1	8	0	2	3333
1	1018	2	1	9	0	1	4002
1	1018	2	1	10	0	1	2351
1	1018	2	1	11	0	2	8190
1	1018	2	1	12	0	2	2516
1	1018	2	1	13	0	3	2924
1	1018	2	1	14	0	3	1875
1	1018	2	1	15	0	3	2948
1	1018	2	1	16	0	2	2794
1	1018	2	1	17	0	4	2863
1	1018	2	1	18	0	2	2888
1	1018	2	1	19	0	4	1802
1	1018	2	1	20	0	2	3430
1	1018	2	1	21	0	1	3889
1	1018	2	1	22	0	4	3722
1	1018	2	1	23	0	2	3153
1	1018	2	1	24	0	1	3600
1	1018	2	1	25	0	4	5013
1	1018	2	1	26	0	3	2256
1	1018	2	1	27	0	4	5298
1	1018	2	1	28	0	3	2723
1	1018	2	1	29	0	3	1106
1	1018	2	1	30	0	3	1674
1	1019	1	1	1	2	2	1952
1	1019	1	1	2	26	3	1645
1	1019	1	1	3	40	3	1198
1	1019	1	1	4	36	2	1204
1	1019	1	1	5	46	1	2217
1	1019	1	1	6	15	3	1926
1	1019	1	1	7	11	2	1104
1	1019	1	1	8	21	2	1056
1	1019	1	2	1	37	1	435
1	1019	1	2	2	1	3	484
1	1019	1	2	3	17	1	471
1	1019	1	2	4	12	3	527
1	1019	1	2	5	23	2	591
1	1019	1	2	6	30	2	977
1	1019	1	2	7	47	2	774
1	1019	1	2	8	33	3	1012
1	1019	1	3	1	39	2	903
1	1019	1	3	2	20	1	459
1	1019	1	3	3	18	1	475
1	1019	1	3	4	34	2	548
1	1019	1	3	5	10	3	475
1	1019	1	3	6	28	2	772
1	1019	1	3	7	4	2	1009
1	1019	1	3	8	45	2	936
1	1019	1	4	1	31	3	71
1	1019	1	4	2	13	3	721
1	1019	1	4	3	42	3	1056
1	1019	1	4	4	43	2	898
1	1019	1	4	5	25	3	622
1	1019	1	4	6	8	1	638
1	1019	1	4	7	22	3	997
1	1019	1	4	8	6	1	527
1	1019	1	5	1	32	2	2707
1	1019	1	5	2	9	2	662
1	1019	1	5	3	41	2	1134
1	1019	1	5	4	3	3	963
1	1019	1	5	5	16	2	1000
1	1019	1	5	6	19	1	1722
1	1019	1	5	7	27	1	1100
1	1019	1	5	8	44	1	1142
1	1019	1	6	1	38	1	859
1	1019	1	6	2	29	1	943
1	1019	1	6	3	7	1	851
1	1019	1	6	4	35	1	934
1	1019	1	6	5	48	3	958
1	1019	1	6	6	24	3	1525
1	1019	1	6	7	5	1	1030
1	1019	1	6	8	14	2	1151
1	1019	1	7	1	46	3	1125
1	1019	1	7	2	12	3	1031
1	1019	1	7	3	36	1	622
1	1019	1	7	4	42	3	1108
1	1019	1	7	5	16	2	836
1	1019	1	7	6	27	3	1089
1	1019	1	7	7	19	1	1471
1	1019	1	7	8	3	3	716
1	1019	1	8	1	35	2	1059
1	1019	1	8	2	26	3	1112
1	1019	1	8	3	38	1	942
1	1019	1	8	4	20	1	920
1	1019	1	8	5	15	3	872
1	1019	1	8	6	9	1	438
1	1019	1	8	7	43	1	892
1	1019	1	8	8	5	1	998
1	1019	1	9	1	28	1	888
1	1019	1	9	2	6	1	790
1	1019	1	9	3	44	3	1017
1	1019	1	9	4	34	2	775
1	1019	1	9	5	10	3	786
1	1019	1	9	6	14	2	957
1	1019	1	9	7	40	3	790
1	1019	1	9	8	23	2	950
1	1019	1	10	1	1	3	784
1	1019	1	10	2	47	2	783
1	1019	1	10	3	17	1	1186
1	1019	1	10	4	37	3	959
1	1019	1	10	5	31	1	1235
1	1019	1	10	6	24	3	1182
1	1019	1	10	7	29	3	1384
1	1019	1	10	8	7	2	1218
1	1019	1	11	1	39	3	819
1	1019	1	11	2	48	3	516
1	1019	1	11	3	4	2	567
1	1019	1	11	4	21	2	807
1	1019	1	11	5	13	3	774
1	1019	1	11	6	33	3	1232
1	1019	1	11	7	11	2	958
1	1019	1	11	8	25	2	1231
1	1019	1	12	1	2	2	2098
1	1019	1	12	2	41	1	932
1	1019	1	12	3	45	1	1503
1	1019	1	12	4	30	2	1104
1	1019	1	12	5	32	1	964
1	1019	1	12	6	8	1	1381
1	1019	1	12	7	22	3	1116
1	1019	1	12	8	18	1	1142
1	1019	2	1	1	0	3	10997
1	1019	2	1	2	0	2	4804
1	1019	2	1	3	0	2	7017
1	1019	2	1	4	0	2	4206
1	1019	2	1	5	0	3	4450
1	1019	2	1	6	0	3	2935
1	1019	2	1	7	0	2	2932
1	1019	2	1	8	0	2	2883
1	1019	2	1	9	0	2	3765
1	1019	2	1	10	0	1	3443
1	1019	2	1	11	0	2	3757
1	1019	2	1	12	0	3	3156
1	1019	2	1	13	0	2	3394
1	1019	2	1	14	0	3	7574
1	1019	2	1	15	0	2	3653
1	1019	2	1	16	0	1	3336
1	1019	2	1	17	0	2	2512
1	1019	2	1	18	0	2	15326
1	1019	2	1	19	0	2	2785
1	1019	2	1	20	0	3	1902
1	1019	2	1	21	0	1	3167
1	1019	2	1	22	0	3	2213
1	1019	2	1	23	0	3	3576
1	1019	2	1	24	0	2	1942
1	1019	2	1	25	0	2	3317
1	1019	2	1	26	0	2	2684
1	1019	2	1	27	0	3	2949
1	1019	2	1	28	0	2	2179
1	1019	2	1	29	0	3	2320
1	1019	2	1	30	0	2	2912
1	1020	1	1	1	35	2	431
1	1020	1	1	2	37	3	446
1	1020	1	1	3	5	1	912
1	1020	1	1	4	8	1	388
1	1020	1	1	5	29	3	591
1	1020	1	1	6	43	2	386
1	1020	1	1	7	16	2	2066
1	1020	1	1	8	23	3	2718
1	1020	1	2	1	39	3	1305
1	1020	1	2	2	19	1	465
1	1020	1	2	3	10	3	697
1	1020	1	2	4	18	1	690
1	1020	1	2	5	25	2	341
1	1020	1	2	6	33	2	263
1	1020	1	2	7	46	1	339
1	1020	1	2	8	2	3	518
1	1020	1	3	1	24	3	343
1	1020	1	3	2	31	1	307
1	1020	1	3	3	12	2	442
1	1020	1	3	4	17	3	263
1	1020	1	3	5	45	1	359
1	1020	1	3	6	30	2	640
1	1020	1	3	7	1	3	478
1	1020	1	3	8	41	1	1073
1	1020	1	4	1	36	3	655
1	1020	1	4	2	3	2	323
1	1020	1	4	3	42	1	312
1	1020	1	4	4	7	3	479
1	1020	1	4	5	27	1	382
1	1020	1	4	6	44	3	370
1	1020	1	4	7	22	1	1034
1	1020	1	4	8	15	2	437
1	1020	1	5	1	21	1	590
1	1020	1	5	2	26	3	488
1	1020	1	5	3	38	2	613
1	1020	1	5	4	9	1	2209
1	1020	1	5	5	47	3	328
1	1020	1	5	6	32	1	355
1	1020	1	5	7	6	3	300
1	1020	1	5	8	14	3	382
1	1020	1	6	1	40	2	466
1	1020	1	6	2	13	3	693
1	1020	1	6	3	11	3	444
1	1020	1	6	4	34	1	834
1	1020	1	6	5	20	3	612
1	1020	1	6	6	48	2	216
1	1020	1	6	7	28	1	279
1	1020	1	6	8	4	2	1378
1	1020	1	7	1	24	2	342
1	1020	1	7	2	41	1	257
1	1020	1	7	3	9	1	502
1	1020	1	7	4	17	1	1465
1	1020	1	7	5	36	3	262
1	1020	1	7	6	25	2	229
1	1020	1	7	7	5	3	411
1	1020	1	7	8	45	1	899
1	1020	1	8	1	12	2	388
1	1020	1	8	2	2	3	275
1	1020	1	8	3	46	1	34
1	1020	1	8	4	30	2	94
1	1020	1	8	5	23	2	658
1	1020	1	8	6	31	1	253
1	1020	1	8	7	15	1	476
1	1020	1	8	8	39	3	375
1	1020	1	9	1	8	3	569
1	1020	1	9	2	42	1	277
1	1020	1	9	3	28	1	392
1	1020	1	9	4	34	3	343
1	1020	1	9	5	6	3	327
1	1020	1	9	6	48	2	265
1	1020	1	9	7	14	3	324
1	1020	1	9	8	22	1	886
1	1020	1	10	1	18	1	1479
1	1020	1	10	2	27	1	279
1	1020	1	10	3	4	3	361
1	1020	1	10	4	11	3	277
1	1020	1	10	5	20	3	561
1	1020	1	10	6	32	1	232
1	1020	1	10	7	43	2	246
1	1020	1	10	8	38	2	253
1	1020	1	11	1	47	3	428
1	1020	1	11	2	26	3	293
1	1020	1	11	3	33	2	240
1	1020	1	11	4	10	1	337
1	1020	1	11	5	40	2	228
1	1020	1	11	6	13	3	572
1	1020	1	11	7	19	1	291
1	1020	1	11	8	3	1	887
1	1020	1	12	1	44	3	451
1	1020	1	12	2	7	2	562
1	1020	1	12	3	29	3	356
1	1020	1	12	4	35	2	86
1	1020	1	12	5	1	2	462
1	1020	1	12	6	21	2	305
1	1020	1	12	7	16	1	293
1	1020	1	12	8	37	3	375
1	1020	2	1	1	0	4	7392
1	1020	2	1	2	0	1	2718
1	1020	2	1	3	0	2	4182
1	1020	2	1	4	0	2	3371
1	1020	2	1	5	0	1	1665
1	1020	2	1	6	0	2	3027
1	1020	2	1	7	0	4	1806
1	1020	2	1	8	0	4	1042
1	1020	2	1	9	0	3	1627
1	1020	2	1	10	0	4	1478
1	1020	2	1	11	0	1	6134
1	1020	2	1	12	0	4	1023
1	1020	2	1	13	0	4	1978
1	1020	2	1	14	0	1	1399
1	1020	2	1	15	0	4	2291
1	1020	2	1	16	0	1	1243
1	1020	2	1	17	0	3	2077
1	1020	2	1	18	0	1	2542
1	1020	2	1	19	0	2	2588
1	1020	2	1	20	0	3	2049
1	1020	2	1	21	0	1	4339
1	1020	2	1	22	0	1	2066
1	1020	2	1	23	0	2	2884
1	1020	2	1	24	0	2	1613
1	1020	2	1	25	0	2	4720
1	1020	2	1	26	0	3	2497
1	1020	2	1	27	0	2	3009
1	1020	2	1	28	0	1	2541
1	1020	2	1	29	0	4	1244
1	1020	2	1	30	0	4	1134
1	1026	1	1	1	4	2	2088
1	1026	1	1	2	21	2	699
1	1026	1	1	3	37	3	779
1	1026	1	1	4	26	3	643
1	1026	1	1	5	32	1	483
1	1026	1	1	6	13	3	3231
1	1026	1	1	7	8	3	829
1	1026	1	1	8	44	3	2123
1	1026	1	2	1	6	1	596
1	1026	1	2	2	11	3	2320
1	1026	1	2	3	33	2	394
1	1026	1	2	4	17	3	370
1	1026	1	2	5	20	1	1377
1	1026	1	2	6	41	1	240
1	1026	1	2	7	45	1	301
1	1026	1	2	8	30	2	329
1	1026	1	3	1	2	1	1411
1	1026	1	3	2	24	1	493
1	1026	1	3	3	47	3	562
1	1026	1	3	4	16	2	910
1	1026	1	3	5	36	3	374
1	1026	1	3	6	42	1	312
1	1026	1	3	7	29	3	311
1	1026	1	3	8	12	3	582
1	1026	1	4	1	15	3	808
1	1026	1	4	2	46	1	341
1	1026	1	4	3	3	3	1310
1	1026	1	4	4	27	1	381
1	1026	1	4	5	22	1	585
1	1026	1	4	6	35	2	280
1	1026	1	4	7	9	3	542
1	1026	1	4	8	38	2	287
1	1026	1	5	1	28	1	222
1	1026	1	5	2	1	1	4856
1	1026	1	5	3	19	2	566
1	1026	1	5	4	39	3	228
1	1026	1	5	5	48	1	262
1	1026	1	5	6	7	1	1207
1	1026	1	5	7	34	3	261
1	1026	1	5	8	14	3	286
1	1026	1	6	1	25	2	409
1	1026	1	6	2	5	3	569
1	1026	1	6	3	43	2	241
1	1026	1	6	4	18	2	574
1	1026	1	6	5	40	2	349
1	1026	1	6	6	23	3	605
1	1026	1	6	7	10	2	237
1	1026	1	6	8	31	1	568
1	1026	1	7	1	16	1	378
1	1026	1	7	2	45	1	250
1	1026	1	7	3	3	3	599
1	1026	1	7	4	26	3	855
1	1026	1	7	5	34	3	169
1	1026	1	7	6	39	3	215
1	1026	1	7	7	12	1	1116
1	1026	1	7	8	22	1	364
1	1026	1	8	1	9	2	270
1	1026	1	8	2	4	3	1148
1	1026	1	8	3	36	3	273
1	1026	1	8	4	24	2	1745
1	1026	1	8	5	17	2	978
1	1026	1	8	6	38	2	261
1	1026	1	8	7	30	2	5
1	1026	1	8	8	44	2	586
1	1026	1	9	1	33	2	243
1	1026	1	9	2	8	3	285
1	1026	1	9	3	13	2	165
1	1026	1	9	4	1	2	406
1	1026	1	9	5	28	1	235
1	1026	1	9	6	46	1	388
1	1026	1	9	7	19	3	550
1	1026	1	9	8	41	1	297
1	1026	1	10	1	6	3	929
1	1026	1	10	2	47	3	258
1	1026	1	10	3	37	3	979
1	1026	1	10	4	18	1	324
1	1026	1	10	5	21	2	190
1	1026	1	10	6	25	2	254
1	1026	1	10	7	31	2	300
1	1026	1	10	8	7	1	343
1	1026	1	11	1	27	1	215
1	1026	1	11	2	2	1	772
1	1026	1	11	3	42	1	540
1	1026	1	11	4	48	2	263
1	1026	1	11	5	20	1	341
1	1026	1	11	6	35	2	229
1	1026	1	11	7	14	2	205
1	1026	1	11	8	11	2	213
1	1026	1	12	1	40	2	218
1	1026	1	12	2	32	1	1678
1	1026	1	12	3	10	3	368
1	1026	1	12	4	29	3	227
1	1026	1	12	5	5	2	499
1	1026	1	12	6	15	1	263
1	1026	1	12	7	43	2	228
1	1026	1	12	8	23	2	262
1	1026	2	1	1	0	2	15471
1	1026	2	1	2	0	2	9468
1	1026	2	1	3	0	3	3624
1	1026	2	1	4	0	3	4412
1	1026	2	1	5	0	2	2168
1	1026	2	1	6	0	3	2190
1	1026	2	1	7	0	3	3546
1	1026	2	1	8	0	2	4057
1	1026	2	1	9	0	2	3403
1	1026	2	1	10	0	2	4271
1	1026	2	1	11	0	2	6033
1	1026	2	1	12	0	3	1925
1	1026	2	1	13	0	2	2140
1	1026	2	1	14	0	3	3122
1	1026	2	1	15	0	4	3402
1	1026	2	1	16	0	1	2743
1	1026	2	1	17	0	3	1669
1	1026	2	1	18	0	2	3255
1	1026	2	1	19	0	3	1601
1	1026	2	1	20	0	3	4789
1	1026	2	1	21	0	1	3147
1	1026	2	1	22	0	3	1977
1	1026	2	1	23	0	3	3254
1	1026	2	1	24	0	3	2137
1	1026	2	1	25	0	4	3704
1	1026	2	1	26	0	3	4136
1	1026	2	1	27	0	3	3247
1	1026	2	1	28	0	2	7266
1	1026	2	1	29	0	2	1917
1	1026	2	1	30	0	2	2044
1	1027	1	1	1	24	3	3710
1	1027	1	1	2	46	1	2041
1	1027	1	1	3	9	2	2266
1	1027	1	1	4	17	1	1363
1	1027	1	1	5	42	1	1380
1	1027	1	1	6	25	2	1399
1	1027	1	1	7	2	2	1282
1	1027	1	1	8	32	1	1057
1	1027	1	2	1	13	2	951
1	1027	1	2	2	6	1	1254
1	1027	1	2	3	40	2	613
1	1027	1	2	4	22	2	1663
1	1027	1	2	5	11	2	1039
1	1027	1	2	6	26	3	1093
1	1027	1	2	7	48	2	821
1	1027	1	2	8	34	3	887
1	1027	1	3	1	41	1	1421
1	1027	1	3	2	30	2	564
1	1027	1	3	3	8	1	716
1	1027	1	3	4	5	1	715
1	1027	1	3	5	18	1	450
1	1027	1	3	6	20	2	1061
1	1027	1	3	7	35	2	831
1	1027	1	3	8	44	3	513
1	1027	1	4	1	37	3	765
1	1027	1	4	2	12	3	486
1	1027	1	4	3	1	3	399
1	1027	1	4	4	29	3	381
1	1027	1	4	5	36	3	338
1	1027	1	4	6	21	2	913
1	1027	1	4	7	45	1	442
1	1027	1	4	8	16	2	803
1	1027	1	5	1	3	3	941
1	1027	1	5	2	27	2	1326
1	1027	1	5	3	33	2	381
1	1027	1	5	4	7	1	721
1	1027	1	5	5	43	3	901
1	1027	1	5	6	39	3	564
1	1027	1	5	7	14	3	481
1	1027	1	5	8	23	2	688
1	1027	1	6	1	47	3	419
1	1027	1	6	2	31	1	755
1	1027	1	6	3	19	3	2420
1	1027	1	6	4	15	3	1241
1	1027	1	6	5	38	2	440
1	1027	1	6	6	4	2	430
1	1027	1	6	7	28	1	701
1	1027	1	6	8	10	3	606
1	1027	1	7	1	5	2	670
1	1027	1	7	2	39	3	423
1	1027	1	7	3	30	2	303
1	1027	1	7	4	23	3	350
1	1027	1	7	5	34	3	305
1	1027	1	7	6	45	1	847
1	1027	1	7	7	9	3	446
1	1027	1	7	8	17	2	742
1	1027	1	8	1	11	2	799
1	1027	1	8	2	37	3	310
1	1027	1	8	3	33	2	398
1	1027	1	8	4	19	1	887
1	1027	1	8	5	1	3	460
1	1027	1	8	6	48	1	354
1	1027	1	8	7	14	3	477
1	1027	1	8	8	26	3	510
1	1027	1	9	1	20	3	47
1	1027	1	9	2	32	1	728
1	1027	1	9	3	41	1	448
1	1027	1	9	4	18	3	1017
1	1027	1	9	5	47	3	380
1	1027	1	9	6	4	2	560
1	1027	1	9	7	27	1	508
1	1027	1	9	8	8	1	501
1	1027	1	10	1	28	1	411
1	1027	1	10	2	40	2	412
1	1027	1	10	3	24	3	327
1	1027	1	10	4	16	3	527
1	1027	1	10	5	46	1	462
1	1027	1	10	6	31	1	360
1	1027	1	10	7	2	2	440
1	1027	1	10	8	10	3	276
1	1027	1	11	1	25	2	354
1	1027	1	11	2	42	1	306
1	1027	1	11	3	3	3	459
1	1027	1	11	4	12	3	367
1	1027	1	11	5	43	2	343
1	1027	1	11	6	15	3	375
1	1027	1	11	7	36	3	320
1	1027	1	11	8	21	3	1039
1	1027	1	12	1	6	1	1109
1	1027	1	12	2	22	3	730
1	1027	1	12	3	44	3	386
1	1027	1	12	4	35	2	376
1	1027	1	12	5	13	1	822
1	1027	1	12	6	29	3	354
1	1027	1	12	7	38	2	415
1	1027	1	12	8	7	1	571
1	1027	2	1	1	0	2	7332
1	1027	2	1	2	0	3	3660
1	1027	2	1	3	0	3	3782
1	1027	2	1	4	0	4	2811
1	1027	2	1	5	0	2	2599
1	1027	2	1	6	0	2	2755
1	1027	2	1	7	0	4	3562
1	1027	2	1	8	0	3	3816
1	1027	2	1	9	0	2	2276
1	1027	2	1	10	0	1	2405
1	1027	2	1	11	0	2	3361
1	1027	2	1	12	0	2	1951
1	1027	2	1	13	0	2	4533
1	1027	2	1	14	0	1	3541
1	1027	2	1	15	0	2	2684
1	1027	2	1	16	0	1	1853
1	1027	2	1	17	0	3	3847
1	1027	2	1	18	0	2	3170
1	1027	2	1	19	0	3	5864
1	1027	2	1	20	0	2	2147
1	1027	2	1	21	0	2	1769
1	1027	2	1	22	0	3	2670
1	1027	2	1	23	0	2	2735
1	1027	2	1	24	0	2	2702
1	1027	2	1	25	0	3	3791
1	1027	2	1	26	0	3	3876
1	1027	2	1	27	0	4	3277
1	1027	2	1	28	0	2	3638
1	1027	2	1	29	0	1	3418
1	1027	2	1	30	0	2	2294
1	1029	1	1	1	39	1	4350
1	1029	1	1	2	17	2	1901
1	1029	1	1	3	20	1	1822
1	1029	1	1	4	6	3	5230
1	1029	1	1	5	10	3	2140
1	1029	1	1	6	27	1	1502
1	1029	1	1	7	33	2	1663
1	1029	1	1	8	44	3	1422
1	1029	1	2	1	4	3	975
1	1029	1	2	2	41	1	1195
1	1029	1	2	3	18	3	1305
1	1029	1	2	4	29	3	1329
1	1029	1	2	5	48	2	1191
1	1029	1	2	6	9	2	3055
1	1029	1	2	7	31	2	1341
1	1029	1	2	8	23	2	1209
1	1029	1	3	1	37	3	971
1	1029	1	3	2	3	2	1749
1	1029	1	3	3	25	2	879
1	1029	1	3	4	11	2	986
1	1029	1	3	5	32	1	837
1	1029	1	3	6	16	1	862
1	1029	1	3	7	45	3	2896
1	1029	1	3	8	19	3	3976
1	1029	1	4	1	43	2	1004
1	1029	1	4	2	40	2	1144
1	1029	1	4	3	2	1	892
1	1029	1	4	4	30	2	444
1	1029	1	4	5	7	1	1421
1	1029	1	4	6	21	2	674
1	1029	1	4	7	15	2	1349
1	1029	1	4	8	36	2	701
1	1029	1	5	1	26	3	995
1	1029	1	5	2	1	3	3576
1	1029	1	5	3	34	3	1063
1	1029	1	5	4	46	1	851
1	1029	1	5	5	24	3	2367
1	1029	1	5	6	42	1	737
1	1029	1	5	7	13	3	1343
1	1029	1	5	8	12	3	1086
1	1029	1	6	1	47	3	605
1	1029	1	6	2	22	2	2024
1	1029	1	6	3	8	3	1482
1	1029	1	6	4	14	2	1302
1	1029	1	6	5	35	2	1107
1	1029	1	6	6	5	2	2487
1	1029	1	6	7	28	3	3618
1	1029	1	6	8	38	2	1451
1	1029	1	7	1	21	2	2231
1	1029	1	7	2	48	2	877
1	1029	1	7	3	11	2	948
1	1029	1	7	4	40	2	1387
1	1029	1	7	5	2	2	1369
1	1029	1	7	6	33	2	1521
1	1029	1	7	7	13	3	3915
1	1029	1	7	8	26	3	1044
1	1029	1	8	1	35	2	991
1	1029	1	8	2	10	3	1492
1	1029	1	8	3	4	3	1068
1	1029	1	8	4	42	1	866
1	1029	1	8	5	25	2	1080
1	1029	1	8	6	17	2	644
1	1029	1	8	7	24	1	2671
1	1029	1	8	8	45	1	1278
1	1029	1	9	1	20	2	2919
1	1029	1	9	2	43	2	1202
1	1029	1	9	3	32	1	955
1	1029	1	9	4	6	1	2217
1	1029	1	9	5	9	2	1248
1	1029	1	9	6	18	1	2449
1	1029	1	9	7	27	1	1275
1	1029	1	9	8	37	3	1109
1	1029	1	10	1	8	2	1314
1	1029	1	10	2	29	3	668
1	1029	1	10	3	31	1	455
1	1029	1	10	4	19	3	760
1	1029	1	10	5	47	3	462
1	1029	1	10	6	38	2	278
1	1029	1	10	7	3	2	2518
1	1029	1	10	8	15	2	417
1	1029	1	11	1	22	2	387
1	1029	1	11	2	28	2	375
1	1029	1	11	3	7	1	806
1	1029	1	11	4	16	2	530
1	1029	1	11	5	46	1	884
1	1029	1	11	6	5	2	355
1	1029	1	11	7	41	1	339
1	1029	1	11	8	36	3	518
1	1029	1	12	1	44	3	1137
1	1029	1	12	2	30	2	296
1	1029	1	12	3	34	3	121
1	1029	1	12	4	23	2	384
1	1029	1	12	5	1	3	487
1	1029	1	12	6	39	3	234
1	1029	1	12	7	14	2	272
1	1029	1	12	8	12	2	315
1	1029	2	1	1	0	3	13383
1	1029	2	1	2	0	3	7263
1	1029	2	1	3	0	1	8706
1	1029	2	1	4	0	1	2924
1	1029	2	1	5	0	2	3340
1	1029	2	1	6	0	3	5010
1	1029	2	1	7	0	2	3559
1	1029	2	1	8	0	3	2559
1	1029	2	1	9	0	2	5699
1	1029	2	1	10	0	2	5039
1	1029	2	1	11	0	3	3465
1	1029	2	1	12	0	3	4875
1	1029	2	1	13	0	1	5253
1	1029	2	1	14	0	2	2590
1	1029	2	1	15	0	3	4539
1	1029	2	1	16	0	1	1954
1	1029	2	1	17	0	1	3192
1	1029	2	1	18	0	2	2581
1	1029	2	1	19	0	3	4314
1	1029	2	1	20	0	3	2002
1	1029	2	1	21	0	1	2342
1	1029	2	1	22	0	3	2132
1	1029	2	1	23	0	1	2611
1	1029	2	1	24	0	1	3007
1	1029	2	1	25	0	3	3603
1	1029	2	1	26	0	3	6984
1	1029	2	1	27	0	2	5190
1	1029	2	1	28	0	3	4724
1	1029	2	1	29	0	2	2467
1	1029	2	1	30	0	3	2156
1	1030	1	1	1	6	1	1835
1	1030	1	1	2	36	1	735
1	1030	1	1	3	21	2	533
1	1030	1	1	4	29	1	699
1	1030	1	1	5	7	1	571
1	1030	1	1	6	17	1	1318
1	1030	1	1	7	43	1	756
1	1030	1	1	8	41	1	1728
1	1030	1	2	1	44	3	1052
1	1030	1	2	2	2	2	1092
1	1030	1	2	3	32	2	1533
1	1030	1	2	4	42	1	585
1	1030	1	2	5	25	2	1323
1	1030	1	2	6	8	3	1118
1	1030	1	2	7	22	1	605
1	1030	1	2	8	13	3	1271
1	1030	1	3	1	24	3	553
1	1030	1	3	2	26	3	301
1	1030	1	3	3	34	3	54
1	1030	1	3	4	39	1	506
1	1030	1	3	5	47	3	295
1	1030	1	3	6	1	2	922
1	1030	1	3	7	15	1	970
1	1030	1	3	8	12	3	520
1	1030	1	4	1	20	3	502
1	1030	1	4	2	3	2	1061
1	1030	1	4	3	37	3	447
1	1030	1	4	4	48	2	451
1	1030	1	4	5	35	2	328
1	1030	1	4	6	16	1	826
1	1030	1	4	7	28	1	590
1	1030	1	4	8	10	1	557
1	1030	1	5	1	4	2	1386
1	1030	1	5	2	23	3	367
1	1030	1	5	3	27	1	234
1	1030	1	5	4	38	2	271
1	1030	1	5	5	9	2	460
1	1030	1	5	6	18	2	426
1	1030	1	5	7	45	1	290
1	1030	1	5	8	33	2	414
1	1030	1	6	1	5	3	1498
1	1030	1	6	2	40	2	515
1	1030	1	6	3	30	1	157
1	1030	1	6	4	14	3	1235
1	1030	1	6	5	11	3	387
1	1030	1	6	6	31	1	1559
1	1030	1	6	7	19	2	767
1	1030	1	6	8	46	1	443
1	1030	1	7	1	38	2	105
1	1030	1	7	2	4	3	493
1	1030	1	7	3	25	2	268
1	1030	1	7	4	13	3	755
1	1030	1	7	5	20	3	345
1	1030	1	7	6	34	3	389
1	1030	1	7	7	9	1	62
1	1030	1	7	8	47	3	347
1	1030	1	8	1	17	3	605
1	1030	1	8	2	11	1	806
1	1030	1	8	3	35	1	1390
1	1030	1	8	4	45	1	518
1	1030	1	8	5	3	3	446
1	1030	1	8	6	21	1	754
1	1030	1	8	7	28	1	1544
1	1030	1	8	8	37	1	1964
1	1030	1	9	1	46	3	1655
1	1030	1	9	2	14	1	689
1	1030	1	9	3	33	2	1847
1	1030	1	9	4	24	3	543
1	1030	1	9	5	29	1	316
1	1030	1	9	6	5	3	671
1	1030	1	9	7	41	1	664
1	1030	1	9	8	10	1	1119
1	1030	1	10	1	42	1	377
1	1030	1	10	2	23	3	823
1	1030	1	10	3	27	1	345
1	1030	1	10	4	44	1	681
1	1030	1	10	5	7	2	670
1	1030	1	10	6	32	1	630
1	1030	1	10	7	6	3	268
1	1030	1	10	8	18	2	984
1	1030	1	11	1	22	1	251
1	1030	1	11	2	15	2	239
1	1030	1	11	3	36	1	317
1	1030	1	11	4	2	1	831
1	1030	1	11	5	40	2	380
1	1030	1	11	6	30	1	352
1	1030	1	11	7	12	2	254
1	1030	1	11	8	43	2	315
1	1030	1	12	1	8	3	198
1	1030	1	12	2	1	1	381
1	1030	1	12	3	48	2	317
1	1030	1	12	4	19	1	1717
1	1030	1	12	5	16	3	1130
1	1030	1	12	6	31	1	1268
1	1030	1	12	7	39	2	759
1	1030	1	12	8	26	1	1151
1	1030	2	1	1	0	4	12738
1	1030	2	1	2	0	2	4308
1	1030	2	1	3	0	1	5812
1	1030	2	1	4	0	2	2625
1	1030	2	1	5	0	2	3804
1	1030	2	1	6	0	1	4185
1	1030	2	1	7	0	3	4431
1	1030	2	1	8	0	3	1818
1	1030	2	1	9	0	2	2590
1	1030	2	1	10	0	3	3171
1	1030	2	1	11	0	3	5689
1	1030	2	1	12	0	3	1987
1	1030	2	1	13	0	2	2608
1	1030	2	1	14	0	1	1954
1	1030	2	1	15	0	2	2241
1	1030	2	1	16	0	1	1723
1	1030	2	1	17	0	1	1578
1	1030	2	1	18	0	2	4663
1	1030	2	1	19	0	1	1882
1	1030	2	1	20	0	3	1890
1	1030	2	1	21	0	1	2387
1	1030	2	1	22	0	2	1495
1	1030	2	1	23	0	2	4063
1	1030	2	1	24	0	2	2378
1	1030	2	1	25	0	2	3023
1	1030	2	1	26	0	3	2483
1	1030	2	1	27	0	2	3964
1	1030	2	1	28	0	3	3546
1	1030	2	1	29	0	3	1625
1	1030	2	1	30	0	2	1443
2	1001	1	1	1	16	1	2890
2	1001	1	1	2	7	1	659
2	1001	1	1	3	46	1	567
2	1001	1	1	4	27	1	675
2	1001	1	1	5	42	1	652
2	1001	1	1	6	22	3	366
2	1001	1	1	7	32	2	44
2	1001	1	1	8	2	2	913
2	1001	1	2	1	19	2	489
2	1001	1	2	2	30	2	365
2	1001	1	2	3	3	3	431
2	1001	1	2	4	12	3	463
2	1001	1	2	5	18	2	435
2	1001	1	2	6	41	3	636
2	1001	1	2	7	43	2	102
2	1001	1	2	8	35	2	267
2	1001	1	3	1	47	3	426
2	1001	1	3	2	33	2	317
2	1001	1	3	3	5	1	589
2	1001	1	3	4	9	2	232
2	1001	1	3	5	14	2	239
2	1001	1	3	6	29	3	366
2	1001	1	3	7	38	2	224
2	1001	1	3	8	24	2	332
2	1001	1	4	1	1	1	583
2	1001	1	4	2	10	3	312
2	1001	1	4	3	31	1	371
2	1001	1	4	4	15	2	462
2	1001	1	4	5	40	2	221
2	1001	1	4	6	45	1	360
2	1001	1	4	7	28	1	293
2	1001	1	4	8	21	2	201
2	1001	1	5	1	37	3	241
2	1001	1	5	2	20	1	441
2	1001	1	5	3	25	2	44
2	1001	1	5	4	8	1	305
2	1001	1	5	5	13	2	388
2	1001	1	5	6	36	3	215
2	1001	1	5	7	48	2	236
2	1001	1	5	8	4	3	249
2	1001	1	6	1	39	3	189
2	1001	1	6	2	17	1	329
2	1001	1	6	3	6	1	265
2	1001	1	6	4	44	3	221
2	1001	1	6	5	34	3	250
2	1001	1	6	6	11	2	243
2	1001	1	6	7	23	3	482
2	1001	1	6	8	26	2	361
2	1001	1	7	1	43	2	207
2	1001	1	7	2	7	1	343
2	1001	1	7	3	32	1	262
2	1001	1	7	4	28	1	281
2	1001	1	7	5	2	2	1169
2	1001	1	7	6	18	1	333
2	1001	1	7	7	40	2	327
2	1001	1	7	8	24	3	253
2	1001	1	8	1	8	1	319
2	1001	1	8	2	5	1	302
2	1001	1	8	3	13	3	211
2	1001	1	8	4	36	3	290
2	1001	1	8	5	23	2	215
2	1001	1	8	6	27	1	265
2	1001	1	8	7	41	2	372
2	1001	1	8	8	45	1	341
2	1001	1	9	1	39	3	253
2	1001	1	9	2	16	2	266
2	1001	1	9	3	21	2	224
2	1001	1	9	4	35	2	316
2	1001	1	9	5	47	3	336
2	1001	1	9	6	6	2	247
2	1001	1	9	7	25	2	237
2	1001	1	9	8	9	2	319
2	1001	1	10	1	46	1	567
2	1001	1	10	2	34	3	212
2	1001	1	10	3	20	1	265
2	1001	1	10	4	4	2	179
2	1001	1	10	5	15	1	313
2	1001	1	10	6	10	3	311
2	1001	1	10	7	30	2	222
2	1001	1	10	8	37	3	260
2	1001	1	11	1	26	3	254
2	1001	1	11	2	11	2	331
2	1001	1	11	3	44	3	232
2	1001	1	11	4	33	2	203
2	1001	1	11	5	14	2	245
2	1001	1	11	6	22	3	247
2	1001	1	11	7	1	1	353
2	1001	1	11	8	42	1	231
2	1001	1	12	1	31	1	336
2	1001	1	12	2	29	3	257
2	1001	1	12	3	3	3	266
2	1001	1	12	4	17	1	309
2	1001	1	12	5	48	2	218
2	1001	1	12	6	38	2	270
2	1001	1	12	7	19	2	1125
2	1001	1	12	8	12	2	387
2	1001	2	1	1	0	4	10835
2	1001	2	1	2	0	2	5385
2	1001	2	1	3	0	2	6041
2	1001	2	1	4	0	3	8739
2	1001	2	1	5	0	2	4053
2	1001	2	1	6	0	2	5038
2	1001	2	1	7	0	4	3521
2	1001	2	1	8	0	4	4025
2	1001	2	1	9	0	3	3397
2	1001	2	1	10	0	3	6529
2	1001	2	1	11	0	2	5930
2	1001	2	1	12	0	3	2682
2	1001	2	1	13	0	4	3068
2	1001	2	1	14	0	3	3301
2	1001	2	1	15	0	2	4057
2	1001	2	1	16	0	1	4018
2	1001	2	1	17	0	2	2572
2	1001	2	1	18	0	2	5161
2	1001	2	1	19	0	2	5344
2	1001	2	1	20	0	2	2991
2	1001	2	1	21	0	2	3814
2	1001	2	1	22	0	1	5552
2	1001	2	1	23	0	3	7463
2	1001	2	1	24	0	2	4915
2	1001	2	1	25	0	4	6603
2	1001	2	1	26	0	2	4593
2	1001	2	1	27	0	1	5886
2	1001	2	1	28	0	2	5192
2	1001	2	1	29	0	3	2589
2	1001	2	1	30	0	4	2143
2	1002	1	1	1	9	2	1008
2	1002	1	1	2	2	2	1777
2	1002	1	1	3	28	1	690
2	1002	1	1	4	23	3	783
2	1002	1	1	5	31	1	987
2	1002	1	1	6	42	3	950
2	1002	1	1	7	18	2	622
2	1002	1	1	8	44	2	971
2	1002	1	2	1	38	2	563
2	1002	1	2	2	10	3	479
2	1002	1	2	3	5	3	353
2	1002	1	2	4	47	1	903
2	1002	1	2	5	24	2	320
2	1002	1	2	6	33	2	791
2	1002	1	2	7	25	2	590
2	1002	1	2	8	13	2	635
2	1002	1	3	1	22	1	676
2	1002	1	3	2	8	3	347
2	1002	1	3	3	16	1	465
2	1002	1	3	4	39	3	340
2	1002	1	3	5	45	1	650
2	1002	1	3	6	30	2	344
2	1002	1	3	7	32	1	1069
2	1002	1	3	8	6	2	530
2	1002	1	4	1	48	2	333
2	1002	1	4	2	41	1	652
2	1002	1	4	3	3	2	305
2	1002	1	4	4	14	3	292
2	1002	1	4	5	12	3	642
2	1002	1	4	6	26	2	296
2	1002	1	4	7	34	3	1044
2	1002	1	4	8	21	1	406
2	1002	1	5	1	11	3	768
2	1002	1	5	2	35	2	839
2	1002	1	5	3	17	3	411
2	1002	1	5	4	19	3	336
2	1002	1	5	5	27	1	299
2	1002	1	5	6	37	3	277
2	1002	1	5	7	43	2	524
2	1002	1	5	8	4	1	327
2	1002	1	6	1	15	3	774
2	1002	1	6	2	46	2	725
2	1002	1	6	3	40	2	883
2	1002	1	6	4	36	3	715
2	1002	1	6	5	1	2	314
2	1002	1	6	6	20	1	1247
2	1002	1	6	7	29	3	233
2	1002	1	6	8	7	3	962
2	1002	1	7	1	30	2	429
2	1002	1	7	2	43	2	381
2	1002	1	7	3	21	3	578
2	1002	1	7	4	38	2	312
2	1002	1	7	5	3	1	775
2	1002	1	7	6	16	1	301
2	1002	1	7	7	9	2	463
2	1002	1	7	8	34	2	831
2	1002	1	8	1	15	3	365
2	1002	1	8	2	4	1	489
2	1002	1	8	3	36	3	390
2	1002	1	8	4	42	1	563
2	1002	1	8	5	23	2	501
2	1002	1	8	6	48	2	548
2	1002	1	8	7	10	1	774
2	1002	1	8	8	27	1	337
2	1002	1	9	1	35	2	288
2	1002	1	9	2	17	1	731
2	1002	1	9	3	24	2	336
2	1002	1	9	4	37	3	301
2	1002	1	9	5	29	3	267
2	1002	1	9	6	7	2	660
2	1002	1	9	7	47	3	462
2	1002	1	9	8	2	3	313
2	1002	1	10	1	40	2	323
2	1002	1	10	2	5	3	311
2	1002	1	10	3	22	2	453
2	1002	1	10	4	11	3	1087
2	1002	1	10	5	13	2	625
2	1002	1	10	6	25	2	1005
2	1002	1	10	7	31	2	842
2	1002	1	10	8	45	3	629
2	1002	1	11	1	18	2	284
2	1002	1	11	2	44	2	892
2	1002	1	11	3	6	2	286
2	1002	1	11	4	28	1	728
2	1002	1	11	5	8	1	378
2	1002	1	11	6	19	3	351
2	1002	1	11	7	39	3	1175
2	1002	1	11	8	33	3	629
2	1002	1	12	1	20	3	336
2	1002	1	12	2	32	3	566
2	1002	1	12	3	1	2	352
2	1002	1	12	4	14	3	242
2	1002	1	12	5	41	1	685
2	1002	1	12	6	12	3	333
2	1002	1	12	7	26	3	270
2	1002	1	12	8	46	2	305
2	1002	2	1	1	0	2	5907
2	1002	2	1	2	0	3	3752
2	1002	2	1	3	0	3	3291
2	1002	2	1	4	0	3	1851
2	1002	2	1	5	0	3	2094
2	1002	2	1	6	0	2	3678
2	1002	2	1	7	0	2	2967
2	1002	2	1	8	0	2	5405
2	1002	2	1	9	0	2	2770
2	1002	2	1	10	0	2	2104
2	1002	2	1	11	0	3	4728
2	1002	2	1	12	0	2	3152
2	1002	2	1	13	0	1	2239
2	1002	2	1	14	0	2	1850
2	1002	2	1	15	0	2	3004
2	1002	2	1	16	0	1	1848
2	1002	2	1	17	0	3	2251
2	1002	2	1	18	0	2	4213
2	1002	2	1	19	0	3	2617
2	1002	2	1	20	0	2	3940
2	1002	2	1	21	0	1	2419
2	1002	2	1	22	0	3	1702
2	1002	2	1	23	0	3	4374
2	1002	2	1	24	0	3	4828
2	1002	2	1	25	0	4	4232
2	1002	2	1	26	0	2	4300
2	1002	2	1	27	0	4	4669
2	1002	2	1	28	0	4	2807
2	1002	2	1	29	0	2	3435
2	1002	2	1	30	0	2	1798
2	1003	1	1	1	41	1	3729
2	1003	1	1	2	26	3	3930
2	1003	1	1	3	47	3	1378
2	1003	1	1	4	5	1	1684
2	1003	1	1	5	15	2	1864
2	1003	1	1	6	35	2	1178
2	1003	1	1	7	19	1	4433
2	1003	1	1	8	12	2	3540
2	1003	1	2	1	34	3	634
2	1003	1	2	2	2	2	468
2	1003	1	2	3	27	1	861
2	1003	1	2	4	39	3	2297
2	1003	1	2	5	16	3	1639
2	1003	1	2	6	46	1	3695
2	1003	1	2	7	11	2	437
2	1003	1	2	8	24	2	1919
2	1003	1	3	1	10	3	2882
2	1003	1	3	2	29	3	2208
2	1003	1	3	3	40	2	429
2	1003	1	3	4	13	3	7326
2	1003	1	3	5	45	3	1199
2	1003	1	3	6	33	2	471
2	1003	1	3	7	4	3	4208
2	1003	1	3	8	22	3	931
2	1003	1	4	1	42	1	1883
2	1003	1	4	2	14	2	1624
2	1003	1	4	3	31	1	724
2	1003	1	4	4	1	1	3054
2	1003	1	4	5	9	2	1656
2	1003	1	4	6	23	1	2160
2	1003	1	4	7	48	2	780
2	1003	1	4	8	30	2	414
2	1003	1	5	1	3	3	446
2	1003	1	5	2	38	2	1240
2	1003	1	5	3	25	2	418
2	1003	1	5	4	32	1	493
2	1003	1	5	5	43	2	2069
2	1003	1	5	6	8	2	1167
2	1003	1	5	7	21	2	429
2	1003	1	5	8	18	1	2422
2	1003	1	6	1	28	1	1700
2	1003	1	6	2	6	1	891
2	1003	1	6	3	36	3	1139
2	1003	1	6	4	37	3	956
2	1003	1	6	5	44	3	914
2	1003	1	6	6	17	2	1868
2	1003	1	6	7	7	1	1160
2	1003	1	6	8	20	1	4811
2	1003	1	7	1	46	2	362
2	1003	1	7	2	39	3	328
2	1003	1	7	3	10	1	926
2	1003	1	7	4	19	3	560
2	1003	1	7	5	1	3	3352
2	1003	1	7	6	33	2	3719
2	1003	1	7	7	14	2	4417
2	1003	1	7	8	29	3	755
2	1003	1	8	1	4	3	2242
2	1003	1	8	2	15	3	1125
2	1003	1	8	3	42	2	4081
2	1003	1	8	4	43	2	400
2	1003	1	8	5	25	2	403
2	1003	1	8	6	12	3	1455
2	1003	1	8	7	31	2	1500
2	1003	1	8	8	21	3	774
2	1003	1	9	1	41	1	1819
2	1003	1	9	2	27	1	324
2	1003	1	9	3	32	1	6365
2	1003	1	9	4	16	2	1556
2	1003	1	9	5	9	2	2005
2	1003	1	9	6	23	1	2153
2	1003	1	9	7	5	1	428
2	1003	1	9	8	47	3	3215
2	1003	1	10	1	20	1	1236
2	1003	1	10	2	30	2	1364
2	1003	1	10	3	11	2	1075
2	1003	1	10	4	35	2	801
2	1003	1	10	5	38	2	541
2	1003	1	10	6	44	3	548
2	1003	1	10	7	6	3	7410
2	1003	1	10	8	18	1	993
2	1003	1	11	1	26	1	2046
2	1003	1	11	2	8	1	1120
2	1003	1	11	3	40	2	2090
2	1003	1	11	4	22	3	1503
2	1003	1	11	5	2	2	276
2	1003	1	11	6	17	2	694
2	1003	1	11	7	34	2	1797
2	1003	1	11	8	45	3	1678
2	1003	1	12	1	36	3	1531
2	1003	1	12	2	37	3	1240
2	1003	1	12	3	7	1	433
2	1003	1	12	4	28	1	1417
2	1003	1	12	5	3	2	3274
2	1003	1	12	6	24	3	924
2	1003	1	12	7	13	3	5059
2	1003	1	12	8	48	2	470
2	1003	2	1	1	0	2	10675
2	1003	2	1	2	0	3	4239
2	1003	2	1	3	0	3	2810
2	1003	2	1	4	0	2	6998
2	1003	2	1	5	0	2	2492
2	1003	2	1	6	0	1	4380
2	1003	2	1	7	0	2	3314
2	1003	2	1	8	0	3	5618
2	1003	2	1	9	0	2	2711
2	1003	2	1	10	0	1	3663
2	1003	2	1	11	0	2	4816
2	1003	2	1	12	0	1	1948
2	1003	2	1	13	0	1	3538
2	1003	2	1	14	0	2	2290
2	1003	2	1	15	0	2	3098
2	1003	2	1	16	0	1	2011
2	1003	2	1	17	0	3	3134
2	1003	2	1	18	0	2	5038
2	1003	2	1	19	0	2	1825
2	1003	2	1	20	0	2	6796
2	1003	2	1	21	0	1	2834
2	1003	2	1	22	0	2	3893
2	1003	2	1	23	0	2	4966
2	1003	2	1	24	0	1	4797
2	1003	2	1	25	0	3	3986
2	1003	2	1	26	0	2	4678
2	1003	2	1	27	0	3	4488
2	1003	2	1	28	0	2	5098
2	1003	2	1	29	0	2	1995
2	1003	2	1	30	0	1	3375
2	1004	1	1	1	37	3	1546
2	1004	1	1	2	17	1	1120
2	1004	1	1	3	20	1	1171
2	1004	1	1	4	7	1	1003
2	1004	1	1	5	5	2	1146
2	1004	1	1	6	25	2	1018
2	1004	1	1	7	36	3	881
2	1004	1	1	8	46	1	1018
2	1004	1	2	1	34	3	885
2	1004	1	2	2	14	2	893
2	1004	1	2	3	39	3	874
2	1004	1	2	4	30	3	830
2	1004	1	2	5	1	3	966
2	1004	1	2	6	21	2	771
2	1004	1	2	7	47	1	976
2	1004	1	2	8	8	1	977
2	1004	1	3	1	16	2	929
2	1004	1	3	2	28	3	861
2	1004	1	3	3	3	3	806
2	1004	1	3	4	42	1	968
2	1004	1	3	5	44	3	928
2	1004	1	3	6	22	3	956
2	1004	1	3	7	12	3	790
2	1004	1	3	8	33	2	780
2	1004	1	4	1	11	2	888
2	1004	1	4	2	35	2	786
2	1004	1	4	3	4	2	793
2	1004	1	4	4	19	3	622
2	1004	1	4	5	15	3	551
2	1004	1	4	6	48	2	610
2	1004	1	4	7	38	2	839
2	1004	1	4	8	29	3	397
2	1004	1	5	1	23	3	785
2	1004	1	5	2	43	2	814
2	1004	1	5	3	9	2	834
2	1004	1	5	4	32	1	1069
2	1004	1	5	5	18	2	777
2	1004	1	5	6	27	1	937
2	1004	1	5	7	6	1	918
2	1004	1	5	8	40	2	812
2	1004	1	6	1	13	2	827
2	1004	1	6	2	31	1	1172
2	1004	1	6	3	41	1	903
2	1004	1	6	4	10	1	1035
2	1004	1	6	5	26	3	857
2	1004	1	6	6	45	1	927
2	1004	1	6	7	2	2	921
2	1004	1	6	8	24	3	749
2	1004	1	7	1	33	2	795
2	1004	1	7	2	15	3	734
2	1004	1	7	3	47	3	792
2	1004	1	7	4	38	2	805
2	1004	1	7	5	3	2	721
2	1004	1	7	6	23	2	862
2	1004	1	7	7	25	2	804
2	1004	1	7	8	9	2	1084
2	1004	1	8	1	1	3	830
2	1004	1	8	2	41	1	882
2	1004	1	8	3	28	1	980
2	1004	1	8	4	35	2	864
2	1004	1	8	5	43	2	788
2	1004	1	8	6	16	2	713
2	1004	1	8	7	8	1	893
2	1004	1	8	8	24	3	964
2	1004	1	9	1	29	3	714
2	1004	1	9	2	32	1	896
2	1004	1	9	3	42	1	810
2	1004	1	9	4	11	2	815
2	1004	1	9	5	18	2	835
2	1004	1	9	6	19	1	844
2	1004	1	9	7	45	3	702
2	1004	1	9	8	5	3	781
2	1004	1	10	1	40	2	775
2	1004	1	10	2	20	1	897
2	1004	1	10	3	2	2	834
2	1004	1	10	4	12	3	645
2	1004	1	10	5	30	2	765
2	1004	1	10	6	31	1	849
2	1004	1	10	7	44	3	770
2	1004	1	10	8	13	3	782
2	1004	1	11	1	34	3	780
2	1004	1	11	2	14	2	893
2	1004	1	11	3	22	3	859
2	1004	1	11	4	37	3	733
2	1004	1	11	5	27	1	966
2	1004	1	11	6	10	1	820
2	1004	1	11	7	6	2	712
2	1004	1	11	8	48	1	802
2	1004	1	12	1	17	3	823
2	1004	1	12	2	4	1	896
2	1004	1	12	3	26	3	840
2	1004	1	12	4	46	2	851
2	1004	1	12	5	7	2	680
2	1004	1	12	6	36	3	964
2	1004	1	12	7	21	2	974
2	1004	1	12	8	39	3	725
2	1004	2	1	1	0	4	8527
2	1004	2	1	2	0	1	4426
2	1004	2	1	3	0	3	4808
2	1004	2	1	4	0	2	5095
2	1004	2	1	5	0	1	3200
2	1004	2	1	6	0	3	3458
2	1004	2	1	7	0	4	3274
2	1004	2	1	8	0	3	3016
2	1004	2	1	9	0	4	2437
2	1004	2	1	10	0	4	2599
2	1004	2	1	11	0	1	3765
2	1004	2	1	12	0	4	2370
2	1004	2	1	13	0	3	2954
2	1004	2	1	14	0	1	2312
2	1004	2	1	15	0	2	3085
2	1004	2	1	16	0	1	2039
2	1004	2	1	17	0	1	1682
2	1004	2	1	18	0	3	4114
2	1004	2	1	19	0	1	2275
2	1004	2	1	20	0	3	2008
2	1004	2	1	21	0	1	2372
2	1004	2	1	22	0	1	1930
2	1004	2	1	23	0	2	2637
2	1004	2	1	24	0	1	1854
2	1004	2	1	25	0	1	4464
2	1004	2	1	26	0	2	3050
2	1004	2	1	27	0	4	4149
2	1004	2	1	28	0	1	3220
2	1004	2	1	29	0	2	1980
2	1004	2	1	30	0	2	2301
2	1005	1	1	1	15	2	2428
2	1005	1	1	2	48	2	1833
2	1005	1	1	3	40	3	281
2	1005	1	1	4	25	2	148
2	1005	1	1	5	10	3	1540
2	1005	1	1	6	20	1	1244
2	1005	1	1	7	3	2	1353
2	1005	1	1	8	35	2	1398
2	1005	1	2	1	30	2	1039
2	1005	1	2	2	41	1	391
2	1005	1	2	3	24	3	759
2	1005	1	2	4	18	3	1289
2	1005	1	2	5	5	1	1107
2	1005	1	2	6	43	2	1002
2	1005	1	2	7	11	2	730
2	1005	1	2	8	34	3	915
2	1005	1	3	1	29	3	372
2	1005	1	3	2	22	1	749
2	1005	1	3	3	4	2	550
2	1005	1	3	4	16	2	771
2	1005	1	3	5	32	1	398
2	1005	1	3	6	9	2	506
2	1005	1	3	7	45	3	651
2	1005	1	3	8	42	1	839
2	1005	1	4	1	33	2	310
2	1005	1	4	2	39	3	560
2	1005	1	4	3	6	3	1410
2	1005	1	4	4	13	3	1285
2	1005	1	4	5	8	1	494
2	1005	1	4	6	46	1	1638
2	1005	1	4	7	21	2	1811
2	1005	1	4	8	27	1	1206
2	1005	1	5	1	44	2	1976
2	1005	1	5	2	1	3	640
2	1005	1	5	3	14	2	671
2	1005	1	5	4	37	3	696
2	1005	1	5	5	26	3	325
2	1005	1	5	6	19	3	610
2	1005	1	5	7	7	2	325
2	1005	1	5	8	36	3	424
2	1005	1	6	1	47	3	711
2	1005	1	6	2	2	3	578
2	1005	1	6	3	23	2	976
2	1005	1	6	4	17	3	467
2	1005	1	6	5	38	2	695
2	1005	1	6	6	28	1	782
2	1005	1	6	7	12	2	825
2	1005	1	6	8	31	1	676
2	1005	1	7	1	37	3	646
2	1005	1	7	2	33	2	509
2	1005	1	7	3	13	2	433
2	1005	1	7	4	22	1	811
2	1005	1	7	5	10	3	472
2	1005	1	7	6	46	1	579
2	1005	1	7	7	29	3	602
2	1005	1	7	8	4	2	811
2	1005	1	8	1	44	2	825
2	1005	1	8	2	38	2	799
2	1005	1	8	3	34	3	1067
2	1005	1	8	4	6	1	734
2	1005	1	8	5	9	2	831
2	1005	1	8	6	25	2	625
2	1005	1	8	7	20	1	541
2	1005	1	8	8	15	2	913
2	1005	1	9	1	40	2	431
2	1005	1	9	2	2	2	472
2	1005	1	9	3	48	2	628
2	1005	1	9	4	16	1	687
2	1005	1	9	5	23	2	548
2	1005	1	9	6	11	2	513
2	1005	1	9	7	36	3	408
2	1005	1	9	8	28	1	485
2	1005	1	10	1	43	3	647
2	1005	1	10	2	31	1	866
2	1005	1	10	3	3	1	843
2	1005	1	10	4	42	1	490
2	1005	1	10	5	27	1	576
2	1005	1	10	6	8	1	449
2	1005	1	10	7	17	3	580
2	1005	1	10	8	19	3	698
2	1005	1	11	1	7	1	934
2	1005	1	11	2	45	1	645
2	1005	1	11	3	24	3	781
2	1005	1	11	4	1	3	624
2	1005	1	11	5	26	3	441
2	1005	1	11	6	35	2	561
2	1005	1	11	7	39	3	719
2	1005	1	11	8	14	2	437
2	1005	1	12	1	21	2	392
2	1005	1	12	2	41	1	590
2	1005	1	12	3	30	2	599
2	1005	1	12	4	5	1	963
2	1005	1	12	5	32	1	908
2	1005	1	12	6	12	3	951
2	1005	1	12	7	18	1	597
2	1005	1	12	8	47	1	859
2	1005	2	1	1	0	2	10452
2	1005	2	1	2	0	2	4793
2	1005	2	1	3	0	3	4487
2	1005	2	1	4	0	2	4631
2	1005	2	1	5	0	1	3995
2	1005	2	1	6	0	2	5160
2	1005	2	1	7	0	1	4599
2	1005	2	1	8	0	3	4124
2	1005	2	1	9	0	3	4171
2	1005	2	1	10	0	2	6106
2	1005	2	1	11	0	1	6443
2	1005	2	1	12	0	3	3487
2	1005	2	1	13	0	1	4327
2	1005	2	1	14	0	2	3519
2	1005	2	1	15	0	1	6735
2	1005	2	1	16	0	1	3656
2	1005	2	1	17	0	2	2923
2	1005	2	1	18	0	2	5657
2	1005	2	1	19	0	2	4492
2	1005	2	1	20	0	3	2877
2	1005	2	1	21	0	2	8478
2	1005	2	1	22	0	3	3330
2	1005	2	1	23	0	3	3705
2	1005	2	1	24	0	2	2922
2	1005	2	1	25	0	3	3578
2	1005	2	1	26	0	2	4839
2	1005	2	1	27	0	4	6092
2	1005	2	1	28	0	2	3420
2	1005	2	1	29	0	1	3439
2	1005	2	1	30	0	2	3005
2	1011	1	1	1	29	2	2225
2	1011	1	1	2	3	2	1300
2	1011	1	1	3	20	1	1936
2	1011	1	1	4	44	2	1398
2	1011	1	1	5	15	3	692
2	1011	1	1	6	39	3	894
2	1011	1	1	7	7	1	836
2	1011	1	1	8	32	1	932
2	1011	1	2	1	47	1	693
2	1011	1	2	2	5	2	1184
2	1011	1	2	3	21	2	1655
2	1011	1	2	4	12	3	762
2	1011	1	2	5	14	2	409
2	1011	1	2	6	36	3	526
2	1011	1	2	7	38	2	457
2	1011	1	2	8	28	3	596
2	1011	1	3	1	48	2	549
2	1011	1	3	2	19	1	402
2	1011	1	3	3	11	2	404
2	1011	1	3	4	41	1	422
2	1011	1	3	5	25	2	374
2	1011	1	3	6	1	3	943
2	1011	1	3	7	34	3	457
2	1011	1	3	8	18	1	1686
2	1011	1	4	1	40	2	322
2	1011	1	4	2	23	2	558
2	1011	1	4	3	26	3	717
2	1011	1	4	4	43	2	434
2	1011	1	4	5	8	3	1870
2	1011	1	4	6	16	1	582
2	1011	1	4	7	35	2	329
2	1011	1	4	8	2	3	521
2	1011	1	5	1	10	3	2283
2	1011	1	5	2	6	2	2395
2	1011	1	5	3	17	3	394
2	1011	1	5	4	30	2	295
2	1011	1	5	5	46	1	582
2	1011	1	5	6	31	1	650
2	1011	1	5	7	37	3	336
2	1011	1	5	8	24	2	418
2	1011	1	6	1	33	2	233
2	1011	1	6	2	27	1	320
2	1011	1	6	3	22	1	442
2	1011	1	6	4	42	1	502
2	1011	1	6	5	13	2	431
2	1011	1	6	6	4	1	409
2	1011	1	6	7	9	1	490
2	1011	1	6	8	45	1	457
2	1011	1	7	1	26	3	909
2	1011	1	7	2	11	3	368
2	1011	1	7	3	44	3	1087
2	1011	1	7	4	31	1	454
2	1011	1	7	5	15	1	623
2	1011	1	7	6	40	2	516
2	1011	1	7	7	20	3	391
2	1011	1	7	8	6	2	377
2	1011	1	8	1	43	2	374
2	1011	1	8	2	42	1	542
2	1011	1	8	3	23	2	2982
2	1011	1	8	4	27	1	710
2	1011	1	8	5	13	2	1089
2	1011	1	8	6	3	1	542
2	1011	1	8	7	35	2	472
2	1011	1	8	8	12	2	811
2	1011	1	9	1	14	3	489
2	1011	1	9	2	7	2	1261
2	1011	1	9	3	33	2	418
2	1011	1	9	4	25	2	504
2	1011	1	9	5	21	1	555
2	1011	1	9	6	46	1	530
2	1011	1	9	7	5	3	475
2	1011	1	9	8	41	1	513
2	1011	1	10	1	32	1	350
2	1011	1	10	2	1	2	337
2	1011	1	10	3	8	3	379
2	1011	1	10	4	19	2	392
2	1011	1	10	5	39	3	434
2	1011	1	10	6	16	1	451
2	1011	1	10	7	48	2	553
2	1011	1	10	8	28	1	391
2	1011	1	11	1	9	2	515
2	1011	1	11	2	30	2	530
2	1011	1	11	3	45	1	679
2	1011	1	11	4	24	2	372
2	1011	1	11	5	36	3	356
2	1011	1	11	6	4	1	352
2	1011	1	11	7	37	3	515
2	1011	1	11	8	18	2	624
2	1011	1	12	1	47	3	402
2	1011	1	12	2	29	3	379
2	1011	1	12	3	22	1	526
2	1011	1	12	4	34	3	330
2	1011	1	12	5	10	1	380
2	1011	1	12	6	2	3	374
2	1011	1	12	7	38	2	520
2	1011	1	12	8	17	3	383
2	1011	2	1	1	0	4	14067
2	1011	2	1	2	0	2	6504
2	1011	2	1	3	0	3	3258
2	1011	2	1	4	0	3	2740
2	1011	2	1	5	0	2	6201
2	1011	2	1	6	0	2	3159
2	1011	2	1	7	0	3	2173
2	1011	2	1	8	0	3	2762
2	1011	2	1	9	0	3	1944
2	1011	2	1	10	0	3	2134
2	1011	2	1	11	0	3	3485
2	1011	2	1	12	0	3	2270
2	1011	2	1	13	0	3	5744
2	1011	2	1	14	0	2	2407
2	1011	2	1	15	0	3	2899
2	1011	2	1	16	0	1	3332
2	1011	2	1	17	0	2	2019
2	1011	2	1	18	0	2	4142
2	1011	2	1	19	0	2	2061
2	1011	2	1	20	0	3	6871
2	1011	2	1	21	0	1	2186
2	1011	2	1	22	0	2	2655
2	1011	2	1	23	0	2	4624
2	1011	2	1	24	0	2	3876
2	1011	2	1	25	0	2	6230
2	1011	2	1	26	0	2	4146
2	1011	2	1	27	0	3	5033
2	1011	2	1	28	0	3	5213
2	1011	2	1	29	0	2	2218
2	1011	2	1	30	0	2	2325
2	1012	1	1	1	39	3	982
2	1012	1	1	2	29	3	300
2	1012	1	1	3	34	2	358
2	1012	1	1	4	21	2	630
2	1012	1	1	5	14	2	329
2	1012	1	1	6	8	1	1286
2	1012	1	1	7	1	1	690
2	1012	1	1	8	43	2	329
2	1012	1	2	1	12	3	457
2	1012	1	2	2	6	3	503
2	1012	1	2	3	19	2	585
2	1012	1	2	4	38	2	278
2	1012	1	2	5	44	3	280
2	1012	1	2	6	32	2	354
2	1012	1	2	7	28	1	500
2	1012	1	2	8	18	1	253
2	1012	1	3	1	3	3	320
2	1012	1	3	2	42	1	269
2	1012	1	3	3	16	2	367
2	1012	1	3	4	48	2	307
2	1012	1	3	5	20	2	245
2	1012	1	3	6	11	2	270
2	1012	1	3	7	36	3	655
2	1012	1	3	8	25	2	247
2	1012	1	4	1	24	2	299
2	1012	1	4	2	40	2	296
2	1012	1	4	3	15	3	265
2	1012	1	4	4	35	2	290
2	1012	1	4	5	27	1	307
2	1012	1	4	6	45	2	296
2	1012	1	4	7	7	1	271
2	1012	1	4	8	4	2	319
2	1012	1	5	1	17	2	450
2	1012	1	5	2	26	3	249
2	1012	1	5	3	2	2	217
2	1012	1	5	4	31	1	312
2	1012	1	5	5	41	1	382
2	1012	1	5	6	10	3	319
2	1012	1	5	7	22	2	318
2	1012	1	5	8	47	1	284
2	1012	1	6	1	30	2	323
2	1012	1	6	2	33	2	424
2	1012	1	6	3	13	3	354
2	1012	1	6	4	5	1	263
2	1012	1	6	5	9	2	239
2	1012	1	6	6	23	2	249
2	1012	1	6	7	37	3	298
2	1012	1	6	8	46	2	488
2	1012	1	7	1	3	3	315
2	1012	1	7	2	29	3	353
2	1012	1	7	3	19	1	336
2	1012	1	7	4	17	1	334
2	1012	1	7	5	42	1	260
2	1012	1	7	6	35	2	294
2	1012	1	7	7	7	1	345
2	1012	1	7	8	47	3	407
2	1012	1	8	1	41	1	274
2	1012	1	8	2	1	3	372
2	1012	1	8	3	21	2	259
2	1012	1	8	4	18	1	279
2	1012	1	8	5	45	1	284
2	1012	1	8	6	34	3	256
2	1012	1	8	7	9	2	271
2	1012	1	8	8	26	1	255
2	1012	1	9	1	22	3	207
2	1012	1	9	2	4	2	237
2	1012	1	9	3	32	2	808
2	1012	1	9	4	30	2	333
2	1012	1	9	5	14	2	319
2	1012	1	9	6	43	2	265
2	1012	1	9	7	11	2	228
2	1012	1	9	8	38	2	433
2	1012	1	10	1	48	2	513
2	1012	1	10	2	36	3	961
2	1012	1	10	3	23	2	291
2	1012	1	10	4	37	3	365
2	1012	1	10	5	12	3	423
2	1012	1	10	6	13	3	229
2	1012	1	10	7	25	2	365
2	1012	1	10	8	6	1	685
2	1012	1	11	1	15	3	223
2	1012	1	11	2	46	2	293
2	1012	1	11	3	28	1	168
2	1012	1	11	4	31	1	265
2	1012	1	11	5	24	3	294
2	1012	1	11	6	5	1	915
2	1012	1	11	7	10	3	296
2	1012	1	11	8	39	3	402
2	1012	1	12	1	44	2	393
2	1012	1	12	2	20	1	316
2	1012	1	12	3	16	2	403
2	1012	1	12	4	2	2	312
2	1012	1	12	5	40	2	280
2	1012	1	12	6	27	1	269
2	1012	1	12	7	8	1	237
2	1012	1	12	8	33	2	289
2	1012	2	1	1	0	3	7163
2	1012	2	1	2	0	1	8122
2	1012	2	1	3	0	2	7891
2	1012	2	1	4	0	1	6701
2	1012	2	1	5	0	3	5791
2	1012	2	1	6	0	1	5308
2	1012	2	1	7	0	4	6252
2	1012	2	1	8	0	3	3728
2	1012	2	1	9	0	2	3192
2	1012	2	1	10	0	3	3460
2	1012	2	1	11	0	4	5326
2	1012	2	1	12	0	3	6670
2	1012	2	1	13	0	4	4137
2	1012	2	1	14	0	2	2745
2	1012	2	1	15	0	3	3439
2	1012	2	1	16	0	1	2523
2	1012	2	1	17	0	2	3394
2	1012	2	1	18	0	2	5095
2	1012	2	1	19	0	2	1880
2	1012	2	1	20	0	3	2745
2	1012	2	1	21	0	1	3680
2	1012	2	1	22	0	3	4161
2	1012	2	1	23	0	2	6663
2	1012	2	1	24	0	2	5945
2	1012	2	1	25	0	4	7873
2	1012	2	1	26	0	3	4645
2	1012	2	1	27	0	1	4063
2	1012	2	1	28	0	4	2625
2	1012	2	1	29	0	4	1516
2	1012	2	1	30	0	4	1460
2	1013	1	1	1	35	3	9571
2	1013	1	1	2	11	3	932
2	1013	1	1	3	5	3	912
2	1013	1	1	4	41	1	677
2	1013	1	1	5	28	1	958
2	1013	1	1	6	22	3	1680
2	1013	1	1	7	14	3	983
2	1013	1	1	8	45	1	469
2	1013	1	2	1	42	1	431
2	1013	1	2	2	44	3	416
2	1013	1	2	3	9	1	437
2	1013	1	2	4	21	2	1217
2	1013	1	2	5	25	2	548
2	1013	1	2	6	3	2	1036
2	1013	1	2	7	13	2	268
2	1013	1	2	8	36	3	556
2	1013	1	3	1	16	2	850
2	1013	1	3	2	2	2	1745
2	1013	1	3	3	30	2	333
2	1013	1	3	4	43	2	733
2	1013	1	3	5	40	2	228
2	1013	1	3	6	19	2	352
2	1013	1	3	7	8	3	2261
2	1013	1	3	8	32	1	385
2	1013	1	4	1	39	3	391
2	1013	1	4	2	27	1	317
2	1013	1	4	3	20	3	688
2	1013	1	4	4	4	2	668
2	1013	1	4	5	7	3	787
2	1013	1	4	6	31	1	286
2	1013	1	4	7	48	2	282
2	1013	1	4	8	15	3	772
2	1013	1	5	1	47	3	274
2	1013	1	5	2	34	3	389
2	1013	1	5	3	26	3	259
2	1013	1	5	4	37	3	317
2	1013	1	5	5	17	3	320
2	1013	1	5	6	10	3	541
2	1013	1	5	7	23	3	380
2	1013	1	5	8	6	3	297
2	1013	1	6	1	38	2	284
2	1013	1	6	2	33	2	339
2	1013	1	6	3	18	2	302
2	1013	1	6	4	24	2	446
2	1013	1	6	5	12	3	269
2	1013	1	6	6	46	1	403
2	1013	1	6	7	29	3	753
2	1013	1	6	8	1	1	264
2	1013	1	7	1	36	3	313
2	1013	1	7	2	39	3	378
2	1013	1	7	3	17	1	1343
2	1013	1	7	4	26	3	271
2	1013	1	7	5	20	1	535
2	1013	1	7	6	4	1	779
2	1013	1	7	7	45	1	324
2	1013	1	7	8	7	1	414
2	1013	1	8	1	23	3	334
2	1013	1	8	2	10	1	392
2	1013	1	8	3	38	2	317
2	1013	1	8	4	44	3	278
2	1013	1	8	5	33	2	270
2	1013	1	8	6	16	2	925
2	1013	1	8	7	28	1	390
2	1013	1	8	8	3	2	295
2	1013	1	9	1	18	3	765
2	1013	1	9	2	46	1	375
2	1013	1	9	3	27	1	263
2	1013	1	9	4	35	2	671
2	1013	1	9	5	8	1	716
2	1013	1	9	6	6	3	353
2	1013	1	9	7	24	2	278
2	1013	1	9	8	42	1	310
2	1013	1	10	1	11	2	335
2	1013	1	10	2	21	2	2313
2	1013	1	10	3	32	1	354
2	1013	1	10	4	13	3	1601
2	1013	1	10	5	30	2	290
2	1013	1	10	6	47	3	280
2	1013	1	10	7	5	2	295
2	1013	1	10	8	40	2	313
2	1013	1	11	1	29	3	329
2	1013	1	11	2	31	1	291
2	1013	1	11	3	37	3	784
2	1013	1	11	4	48	2	443
2	1013	1	11	5	22	1	636
2	1013	1	11	6	2	2	543
2	1013	1	11	7	9	2	243
2	1013	1	11	8	15	1	371
2	1013	1	12	1	34	3	344
2	1013	1	12	2	43	2	251
2	1013	1	12	3	25	2	203
2	1013	1	12	4	14	3	661
2	1013	1	12	5	41	1	260
2	1013	1	12	6	1	2	796
2	1013	1	12	7	19	2	394
2	1013	1	12	8	12	3	358
2	1013	2	1	1	0	4	12458
2	1013	2	1	2	0	2	7303
2	1013	2	1	3	0	2	5952
2	1013	2	1	4	0	1	9408
2	1013	2	1	5	0	2	4382
2	1013	2	1	6	0	2	7444
2	1013	2	1	7	0	3	5832
2	1013	2	1	8	0	2	9252
2	1013	2	1	9	0	2	5689
2	1013	2	1	10	0	3	4211
2	1013	2	1	11	0	2	5566
2	1013	2	1	12	0	3	6045
2	1013	2	1	13	0	3	7129
2	1013	2	1	14	0	2	2481
2	1013	2	1	15	0	2	4034
2	1013	2	1	16	0	1	4734
2	1013	2	1	17	0	2	12062
2	1013	2	1	18	0	3	6539
2	1013	2	1	19	0	2	2979
2	1013	2	1	20	0	3	3888
2	1013	2	1	21	0	2	3738
2	1013	2	1	22	0	3	4504
2	1013	2	1	23	0	2	6793
2	1013	2	1	24	0	2	4455
2	1013	2	1	25	0	1	6010
2	1013	2	1	26	0	3	5799
2	1013	2	1	27	0	3	4381
2	1013	2	1	28	0	3	3970
2	1013	2	1	29	0	2	5545
2	1013	2	1	30	0	3	4984
2	1014	1	1	1	17	3	743
2	1014	1	1	2	47	3	998
2	1014	1	1	3	4	2	987
2	1014	1	1	4	29	3	416
2	1014	1	1	5	36	3	981
2	1014	1	1	6	11	3	745
2	1014	1	1	7	40	2	997
2	1014	1	1	8	23	3	1302
2	1014	1	2	1	25	2	573
2	1014	1	2	2	13	1	2509
2	1014	1	2	3	48	3	398
2	1014	1	2	4	20	1	342
2	1014	1	2	5	31	3	526
2	1014	1	2	6	6	1	500
2	1014	1	2	7	41	2	488
2	1014	1	2	8	12	3	1213
2	1014	1	3	1	3	3	384
2	1014	1	3	2	32	2	271
2	1014	1	3	3	38	2	621
2	1014	1	3	4	28	1	576
2	1014	1	3	5	22	3	349
2	1014	1	3	6	43	1	334
2	1014	1	3	7	7	3	531
2	1014	1	3	8	15	3	777
2	1014	1	4	1	27	1	383
2	1014	1	4	2	45	1	457
2	1014	1	4	3	9	2	523
2	1014	1	4	4	16	2	520
2	1014	1	4	5	39	3	15
2	1014	1	4	6	1	3	281
2	1014	1	4	7	35	2	342
2	1014	1	4	8	24	3	562
2	1014	1	5	1	10	3	515
2	1014	1	5	2	30	2	331
2	1014	1	5	3	46	2	560
2	1014	1	5	4	5	3	804
2	1014	1	5	5	37	3	399
2	1014	1	5	6	14	2	530
2	1014	1	5	7	33	2	875
2	1014	1	5	8	21	1	412
2	1014	1	6	1	18	1	347
2	1014	1	6	2	42	1	473
2	1014	1	6	3	8	3	691
2	1014	1	6	4	26	3	890
2	1014	1	6	5	2	3	667
2	1014	1	6	6	44	3	595
2	1014	1	6	7	34	3	241
2	1014	1	6	8	19	2	561
2	1014	1	7	1	29	3	264
2	1014	1	7	2	37	3	184
2	1014	1	7	3	16	2	344
2	1014	1	7	4	43	2	238
2	1014	1	7	5	9	2	440
2	1014	1	7	6	3	3	601
2	1014	1	7	7	36	3	661
2	1014	1	7	8	22	2	727
2	1014	1	8	1	25	3	834
2	1014	1	8	2	48	2	305
2	1014	1	8	3	18	2	359
2	1014	1	8	4	32	3	748
2	1014	1	8	5	11	1	561
2	1014	1	8	6	42	1	620
2	1014	1	8	7	2	3	479
2	1014	1	8	8	24	2	681
2	1014	1	9	1	39	3	264
2	1014	1	9	2	13	2	256
2	1014	1	9	3	20	1	857
2	1014	1	9	4	12	3	459
2	1014	1	9	5	27	1	735
2	1014	1	9	6	47	3	535
2	1014	1	9	7	6	1	17
2	1014	1	9	8	34	2	446
2	1014	1	10	1	8	1	592
2	1014	1	10	2	40	2	756
2	1014	1	10	3	1	3	430
2	1014	1	10	4	14	2	640
2	1014	1	10	5	46	1	570
2	1014	1	10	6	19	1	302
2	1014	1	10	7	31	3	709
2	1014	1	10	8	26	3	348
2	1014	1	11	1	38	2	1764
2	1014	1	11	2	10	3	974
2	1014	1	11	3	30	1	428
2	1014	1	11	4	45	2	279
2	1014	1	11	5	33	3	256
2	1014	1	11	6	15	1	56
2	1014	1	11	7	21	2	1294
2	1014	1	11	8	4	2	389
2	1014	1	12	1	41	3	628
2	1014	1	12	2	35	1	269
2	1014	1	12	3	7	3	134
2	1014	1	12	4	5	1	280
2	1014	1	12	5	23	2	376
2	1014	1	12	6	17	1	373
2	1014	1	12	7	28	1	561
2	1014	1	12	8	44	3	614
2	1014	2	1	1	0	3	6835
2	1014	2	1	2	0	2	4391
2	1014	2	1	3	0	2	2284
2	1014	2	1	4	0	1	2013
2	1014	2	1	5	0	2	2258
2	1014	2	1	6	0	2	1714
2	1014	2	1	7	0	3	1857
2	1014	2	1	8	0	4	3138
2	1014	2	1	9	0	3	2229
2	1014	2	1	10	0	3	6876
2	1014	2	1	11	0	2	4671
2	1014	2	1	12	0	3	2121
2	1014	2	1	13	0	3	5289
2	1014	2	1	14	0	1	2778
2	1014	2	1	15	0	3	2639
2	1014	2	1	16	0	1	2458
2	1014	2	1	17	0	2	2756
2	1014	2	1	18	0	2	4842
2	1014	2	1	19	0	2	2453
2	1014	2	1	20	0	3	1528
2	1014	2	1	21	0	2	2903
2	1014	2	1	22	0	1	3207
2	1014	2	1	23	0	4	3186
2	1014	2	1	24	0	2	7239
2	1014	2	1	25	0	2	5587
2	1014	2	1	26	0	3	5593
2	1014	2	1	27	0	2	5479
2	1014	2	1	28	0	2	6281
2	1014	2	1	29	0	4	1620
2	1014	2	1	30	0	3	1927
2	1015	1	1	1	34	3	9523
2	1015	1	1	2	29	2	9182
2	1015	1	1	3	22	2	4910
2	1015	1	1	4	44	1	6317
2	1015	1	1	5	2	2	4570
2	1015	1	1	6	10	2	9418
2	1015	1	1	7	41	1	3191
2	1015	1	1	8	18	1	1883
2	1015	1	2	1	6	1	1329
2	1015	1	2	2	27	1	2216
2	1015	1	2	3	32	1	2966
2	1015	1	2	4	21	2	2456
2	1015	1	2	5	42	3	3942
2	1015	1	2	6	7	1	2582
2	1015	1	2	7	15	3	2989
2	1015	1	2	8	48	2	2888
2	1015	1	3	1	12	3	5541
2	1015	1	3	2	31	1	2685
2	1015	1	3	3	40	2	10362
2	1015	1	3	4	1	3	1255
2	1015	1	3	5	45	3	2100
2	1015	1	3	6	28	3	4299
2	1015	1	3	7	17	1	3922
2	1015	1	3	8	23	2	1896
2	1015	1	4	1	37	3	1621
2	1015	1	4	2	47	1	1499
2	1015	1	4	3	4	3	3548
2	1015	1	4	4	24	1	3146
2	1015	1	4	5	8	1	1617
2	1015	1	4	6	33	2	1770
2	1015	1	4	7	25	1	3368
2	1015	1	4	8	13	3	4925
2	1015	1	5	1	26	1	1315
2	1015	1	5	2	14	2	2151
2	1015	1	5	3	3	2	2304
2	1015	1	5	4	19	1	1218
2	1015	1	5	5	38	2	1484
2	1015	1	5	6	43	3	1790
2	1015	1	5	7	9	2	2403
2	1015	1	5	8	36	3	3574
2	1015	1	6	1	30	3	853
2	1015	1	6	2	35	2	1398
2	1015	1	6	3	5	1	1589
2	1015	1	6	4	11	2	2443
2	1015	1	6	5	39	3	3126
2	1015	1	6	6	20	1	4836
2	1015	1	6	7	46	2	1310
2	1015	1	6	8	16	3	1982
2	1015	1	7	1	6	3	1579
2	1015	1	7	2	47	1	507
2	1015	1	7	3	29	3	2828
2	1015	1	7	4	31	1	1843
2	1015	1	7	5	24	1	2692
2	1015	1	7	6	9	2	942
2	1015	1	7	7	40	2	2181
2	1015	1	7	8	18	1	2157
2	1015	1	8	1	33	2	938
2	1015	1	8	2	23	2	1385
2	1015	1	8	3	45	3	1380
2	1015	1	8	4	8	1	1040
2	1015	1	8	5	14	2	1032
2	1015	1	8	6	39	2	3590
2	1015	1	8	7	4	2	1109
2	1015	1	8	8	27	1	2158
2	1015	1	9	1	17	1	495
2	1015	1	9	2	37	3	851
2	1015	1	9	3	5	1	890
2	1015	1	9	4	32	1	534
2	1015	1	9	5	25	2	304
2	1015	1	9	6	12	3	352
2	1015	1	9	7	19	3	2490
2	1015	1	9	8	44	2	2260
2	1015	1	10	1	42	1	589
2	1015	1	10	2	26	3	1550
2	1015	1	10	3	43	2	1479
2	1015	1	10	4	21	2	1071
2	1015	1	10	5	13	3	1307
2	1015	1	10	6	34	3	802
2	1015	1	10	7	3	3	549
2	1015	1	10	8	10	3	869
2	1015	1	11	1	20	1	919
2	1015	1	11	2	48	2	5613
2	1015	1	11	3	36	3	980
2	1015	1	11	4	15	3	674
2	1015	1	11	5	11	2	816
2	1015	1	11	6	38	2	1629
2	1015	1	11	7	2	2	839
2	1015	1	11	8	28	3	1007
2	1015	1	12	1	22	3	1298
2	1015	1	12	2	16	2	453
2	1015	1	12	3	41	1	1597
2	1015	1	12	4	30	3	3572
2	1015	1	12	5	1	3	1880
2	1015	1	12	6	35	2	801
2	1015	1	12	7	7	1	574
2	1015	1	12	8	46	1	2576
2	1015	2	1	1	0	3	10262
2	1015	2	1	2	0	2	14154
2	1015	2	1	3	0	2	5108
2	1015	2	1	4	0	2	9716
2	1015	2	1	5	0	1	3942
2	1015	2	1	6	0	1	4237
2	1015	2	1	7	0	3	8577
2	1015	2	1	8	0	4	6584
2	1015	2	1	9	0	3	4478
2	1015	2	1	10	0	3	8248
2	1015	2	1	11	0	1	6284
2	1015	2	1	12	0	3	2775
2	1015	2	1	13	0	3	4460
2	1015	2	1	14	0	1	5437
2	1015	2	1	15	0	1	5241
2	1015	2	1	16	0	1	2268
2	1015	2	1	17	0	2	3151
2	1015	2	1	18	0	1	3613
2	1015	2	1	19	0	1	3033
2	1015	2	1	20	0	3	2868
2	1015	2	1	21	0	1	2358
2	1015	2	1	22	0	2	7411
2	1015	2	1	23	0	2	5801
2	1015	2	1	24	0	1	5542
2	1015	2	1	25	0	1	6166
2	1015	2	1	26	0	1	2213
2	1015	2	1	27	0	3	6456
2	1015	2	1	28	0	2	4051
2	1015	2	1	29	0	2	3438
2	1015	2	1	30	0	2	5137
2	1021	1	1	1	41	1	4701
2	1021	1	1	2	13	3	2399
2	1021	1	1	3	4	3	1683
2	1021	1	1	4	30	2	693
2	1021	1	1	5	10	3	1074
2	1021	1	1	6	45	3	1088
2	1021	1	1	7	32	1	516
2	1021	1	1	8	24	3	1247
2	1021	1	2	1	42	1	967
2	1021	1	2	2	14	2	1396
2	1021	1	2	3	44	1	963
2	1021	1	2	4	11	2	1092
2	1021	1	2	5	1	1	1006
2	1021	1	2	6	21	2	1280
2	1021	1	2	7	28	3	578
2	1021	1	2	8	34	3	849
2	1021	1	3	1	47	1	417
2	1021	1	3	2	40	3	1180
2	1021	1	3	3	16	2	497
2	1021	1	3	4	7	1	859
2	1021	1	3	5	22	3	883
2	1021	1	3	6	35	2	1082
2	1021	1	3	7	26	1	896
2	1021	1	3	8	2	2	1106
2	1021	1	4	1	46	2	902
2	1021	1	4	2	38	2	906
2	1021	1	4	3	31	1	535
2	1021	1	4	4	9	2	857
2	1021	1	4	5	25	1	1164
2	1021	1	4	6	6	1	1027
2	1021	1	4	7	17	1	896
2	1021	1	4	8	23	2	850
2	1021	1	5	1	39	3	1435
2	1021	1	5	2	5	3	1213
2	1021	1	5	3	15	3	429
2	1021	1	5	4	27	2	829
2	1021	1	5	5	20	2	777
2	1021	1	5	6	33	2	809
2	1021	1	5	7	12	3	472
2	1021	1	5	8	43	3	780
2	1021	1	6	1	29	2	505
2	1021	1	6	2	37	3	828
2	1021	1	6	3	18	1	1059
2	1021	1	6	4	8	1	893
2	1021	1	6	5	19	1	997
2	1021	1	6	6	48	1	844
2	1021	1	6	7	3	3	1074
2	1021	1	6	8	36	3	1049
2	1021	1	7	1	11	2	592
2	1021	1	7	2	13	3	1110
2	1021	1	7	3	28	3	896
2	1021	1	7	4	40	2	845
2	1021	1	7	5	34	3	1032
2	1021	1	7	6	20	1	613
2	1021	1	7	7	5	1	1008
2	1021	1	7	8	47	1	829
2	1021	1	8	1	22	3	567
2	1021	1	8	2	18	1	805
2	1021	1	8	3	26	3	1064
2	1021	1	8	4	4	3	947
2	1021	1	8	5	41	3	706
2	1021	1	8	6	44	3	1595
2	1021	1	8	7	10	3	753
2	1021	1	8	8	33	2	366
2	1021	1	9	1	24	3	331
2	1021	1	9	2	36	3	803
2	1021	1	9	3	12	3	743
2	1021	1	9	4	17	1	1044
2	1021	1	9	5	38	1	1260
2	1021	1	9	6	29	2	1258
2	1021	1	9	7	3	2	1048
2	1021	1	9	8	45	3	838
2	1021	1	10	1	25	1	952
2	1021	1	10	2	19	1	849
2	1021	1	10	3	7	1	1024
2	1021	1	10	4	42	1	2280
2	1021	1	10	5	43	3	977
2	1021	1	10	6	14	2	1826
2	1021	1	10	7	6	1	1519
2	1021	1	10	8	31	1	1231
2	1021	1	11	1	1	1	870
2	1021	1	11	2	9	2	867
2	1021	1	11	3	27	2	883
2	1021	1	11	4	23	2	848
2	1021	1	11	5	15	3	1832
2	1021	1	11	6	46	2	1040
2	1021	1	11	7	39	3	868
2	1021	1	11	8	32	1	522
2	1021	1	12	1	30	3	994
2	1021	1	12	2	16	2	790
2	1021	1	12	3	48	1	984
2	1021	1	12	4	2	2	1697
2	1021	1	12	5	8	1	949
2	1021	1	12	6	37	3	1771
2	1021	1	12	7	35	2	1639
2	1021	1	12	8	21	2	1100
2	1021	2	1	1	0	3	6463
2	1021	2	1	2	0	2	4426
2	1021	2	1	3	0	2	6734
2	1021	2	1	4	0	2	3559
2	1021	2	1	5	0	1	4373
2	1021	2	1	6	0	2	2266
2	1021	2	1	7	0	3	3420
2	1021	2	1	8	0	3	3088
2	1021	2	1	9	0	3	2305
2	1021	2	1	10	0	3	2402
2	1021	2	1	11	0	1	6542
2	1021	2	1	12	0	3	2438
2	1021	2	1	13	0	3	2609
2	1021	2	1	14	0	1	2388
2	1021	2	1	15	0	2	2425
2	1021	2	1	16	0	1	2323
2	1021	2	1	17	0	2	2266
2	1021	2	1	18	0	2	3796
2	1021	2	1	19	0	2	2265
2	1021	2	1	20	0	3	1947
2	1021	2	1	21	0	1	3937
2	1021	2	1	22	0	2	2912
2	1021	2	1	23	0	1	4056
2	1021	2	1	24	0	2	2562
2	1021	2	1	25	0	1	5136
2	1021	2	1	26	0	2	4176
2	1021	2	1	27	0	3	4622
2	1021	2	1	28	0	4	4634
2	1021	2	1	29	0	1	3606
2	1021	2	1	30	0	2	4266
2	1022	1	1	1	44	1	52658
2	1022	1	1	2	16	3	4642
2	1022	1	1	3	32	3	1376
2	1022	1	1	4	1	1	4389
2	1022	1	1	5	39	3	2167
2	1022	1	1	6	25	2	5420
2	1022	1	1	7	19	3	1498
2	1022	1	1	8	8	1	4696
2	1022	1	2	1	26	2	1520
2	1022	1	2	2	36	1	1464
2	1022	1	2	3	3	1	2108
2	1022	1	2	4	38	1	1354
2	1022	1	2	5	9	1	917
2	1022	1	2	6	46	3	1813
2	1022	1	2	7	13	2	1306
2	1022	1	2	8	23	3	2574
2	1022	1	3	1	15	1	1217
2	1022	1	3	2	34	2	1885
2	1022	1	3	3	30	1	1356
2	1022	1	3	4	21	2	3114
2	1022	1	3	5	45	1	2202
2	1022	1	3	6	5	3	1413
2	1022	1	3	7	40	3	2864
2	1022	1	3	8	7	2	1469
2	1022	1	4	1	47	2	1204
2	1022	1	4	2	41	2	2380
2	1022	1	4	3	12	2	1263
2	1022	1	4	4	31	3	1374
2	1022	1	4	5	20	2	3504
2	1022	1	4	6	4	3	3256
2	1022	1	4	7	17	3	1253
2	1022	1	4	8	29	1	1606
2	1022	1	5	1	10	1	1216
2	1022	1	5	2	42	3	2200
2	1022	1	5	3	2	2	1265
2	1022	1	5	4	35	1	1192
2	1022	1	5	5	14	3	1107
2	1022	1	5	6	22	1	1046
2	1022	1	5	7	43	2	3885
2	1022	1	5	8	27	3	1489
2	1022	1	6	1	24	2	1029
2	1022	1	6	2	48	3	4296
2	1022	1	6	3	11	3	1274
2	1022	1	6	4	28	2	1175
2	1022	1	6	5	18	2	1134
2	1022	1	6	6	37	1	1049
2	1022	1	6	7	33	3	1186
2	1022	1	6	8	6	2	1063
2	1022	1	7	1	34	2	935
2	1022	1	7	2	25	3	655
2	1022	1	7	3	17	3	897
2	1022	1	7	4	45	2	1007
2	1022	1	7	5	42	3	3457
2	1022	1	7	6	5	3	1668
2	1022	1	7	7	9	1	1103
2	1022	1	7	8	22	1	1063
2	1022	1	8	1	16	1	1055
2	1022	1	8	2	19	2	1254
2	1022	1	8	3	36	1	999
2	1022	1	8	4	47	2	1050
2	1022	1	8	5	37	1	1003
2	1022	1	8	6	8	3	3888
2	1022	1	8	7	27	3	1372
2	1022	1	8	8	1	3	1395
2	1022	1	9	1	24	2	795
2	1022	1	9	2	2	3	1580
2	1022	1	9	3	11	3	876
2	1022	1	9	4	33	3	2955
2	1022	1	9	5	43	1	2253
2	1022	1	9	6	18	2	1064
2	1022	1	9	7	40	3	1025
2	1022	1	9	8	30	1	1186
2	1022	1	10	1	20	3	1820
2	1022	1	10	2	46	3	902
2	1022	1	10	3	31	3	1478
2	1022	1	10	4	38	1	1120
2	1022	1	10	5	14	3	1033
2	1022	1	10	6	28	2	1025
2	1022	1	10	7	10	1	1165
2	1022	1	10	8	4	1	1057
2	1022	1	11	1	13	2	824
2	1022	1	11	2	35	1	1051
2	1022	1	11	3	48	3	1282
2	1022	1	11	4	3	2	1296
2	1022	1	11	5	29	1	1304
2	1022	1	11	6	12	2	1074
2	1022	1	11	7	23	3	1301
2	1022	1	11	8	41	2	1185
2	1022	1	12	1	21	1	966
2	1022	1	12	2	39	2	881
2	1022	1	12	3	32	2	1015
2	1022	1	12	4	6	2	968
2	1022	1	12	5	26	2	692
2	1022	1	12	6	44	1	1159
2	1022	1	12	7	7	2	717
2	1022	1	12	8	15	1	1277
2	1022	2	1	1	0	2	7758
2	1022	2	1	2	0	2	7485
2	1022	2	1	3	0	1	6183
2	1022	2	1	4	0	2	6949
2	1022	2	1	5	0	1	6885
2	1022	2	1	6	0	1	3791
2	1022	2	1	7	0	3	4164
2	1022	2	1	8	0	2	6627
2	1022	2	1	9	0	4	4799
2	1022	2	1	10	0	2	7412
2	1022	2	1	11	0	2	4866
2	1022	2	1	12	0	2	3796
2	1022	2	1	13	0	1	5241
2	1022	2	1	14	0	2	6196
2	1022	2	1	15	0	2	3298
2	1022	2	1	16	0	1	3681
2	1022	2	1	17	0	3	4131
2	1022	2	1	18	0	2	6274
2	1022	2	1	19	0	3	5133
2	1022	2	1	20	0	2	3813
2	1022	2	1	21	0	1	2993
2	1022	2	1	22	0	4	2597
2	1022	2	1	23	0	1	5170
2	1022	2	1	24	0	1	6384
2	1022	2	1	25	0	1	5623
2	1022	2	1	26	0	3	5995
2	1022	2	1	27	0	4	5640
2	1022	2	1	28	0	1	5356
2	1022	2	1	29	0	2	2988
2	1022	2	1	30	0	2	4320
2	1023	1	1	1	33	2	2813
2	1023	1	1	2	18	1	2508
2	1023	1	1	3	28	1	2279
2	1023	1	1	4	41	2	2185
2	1023	1	1	5	24	3	2128
2	1023	1	1	6	47	3	1901
2	1023	1	1	7	11	2	1463
2	1023	1	1	8	3	3	1560
2	1023	1	2	1	27	1	1930
2	1023	1	2	2	1	3	1701
2	1023	1	2	3	46	2	1816
2	1023	1	2	4	14	2	1838
2	1023	1	2	5	21	2	1604
2	1023	1	2	6	39	3	1239
2	1023	1	2	7	31	1	1149
2	1023	1	2	8	10	3	1360
2	1023	1	3	1	42	1	1612
2	1023	1	3	2	36	3	1548
2	1023	1	3	3	19	1	1672
2	1023	1	3	4	17	1	1837
2	1023	1	3	5	7	2	1503
2	1023	1	3	6	5	1	1222
2	1023	1	3	7	43	1	1269
2	1023	1	3	8	29	2	1386
2	1023	1	4	1	20	1	1687
2	1023	1	4	2	26	2	1116
2	1023	1	4	3	2	2	1186
2	1023	1	4	4	15	3	1347
2	1023	1	4	5	35	2	2369
2	1023	1	4	6	40	3	903
2	1023	1	4	7	44	1	2284
2	1023	1	4	8	12	3	2238
2	1023	1	5	1	34	2	1624
2	1023	1	5	2	25	3	1689
2	1023	1	5	3	38	1	2191
2	1023	1	5	4	4	2	2401
2	1023	1	5	5	23	2	1065
2	1023	1	5	6	8	1	2282
2	1023	1	5	7	13	3	1917
2	1023	1	5	8	45	3	2135
2	1023	1	6	1	37	1	2009
2	1023	1	6	2	16	2	1905
2	1023	1	6	3	22	1	1186
2	1023	1	6	4	9	1	839
2	1023	1	6	5	30	3	2680
2	1023	1	6	6	6	1	1329
2	1023	1	6	7	32	2	1822
2	1023	1	6	8	48	3	2523
2	1023	1	7	1	36	3	1568
2	1023	1	7	2	41	2	2612
2	1023	1	7	3	47	2	1385
2	1023	1	7	4	4	2	1647
2	1023	1	7	5	20	1	2383
2	1023	1	7	6	7	2	1084
2	1023	1	7	7	14	3	843
2	1023	1	7	8	29	1	847
2	1023	1	8	1	9	2	889
2	1023	1	8	2	19	1	1150
2	1023	1	8	3	6	1	1429
2	1023	1	8	4	37	1	1322
2	1023	1	8	5	26	2	3198
2	1023	1	8	6	34	2	1245
2	1023	1	8	7	15	1	1971
2	1023	1	8	8	44	1	2692
2	1023	1	9	1	8	1	1556
2	1023	1	9	2	22	3	1786
2	1023	1	9	3	42	3	1113
2	1023	1	9	4	25	3	2093
2	1023	1	9	5	17	1	2530
2	1023	1	9	6	32	2	3478
2	1023	1	9	7	3	1	2176
2	1023	1	9	8	45	2	1540
2	1023	1	10	1	23	3	1042
2	1023	1	10	2	39	2	939
2	1023	1	10	3	16	2	1024
2	1023	1	10	4	46	3	2216
2	1023	1	10	5	10	3	1072
2	1023	1	10	6	33	3	1457
2	1023	1	10	7	1	2	1186
2	1023	1	10	8	28	2	1271
2	1023	1	11	1	48	3	1722
2	1023	1	11	2	27	3	1132
2	1023	1	11	3	31	3	1695
2	1023	1	11	4	18	2	1051
2	1023	1	11	5	12	2	765
2	1023	1	11	6	5	3	1052
2	1023	1	11	7	40	3	928
2	1023	1	11	8	21	2	1267
2	1023	1	12	1	11	2	1297
2	1023	1	12	2	13	2	862
2	1023	1	12	3	24	2	1073
2	1023	1	12	4	43	1	1500
2	1023	1	12	5	38	1	2628
2	1023	1	12	6	35	1	1124
2	1023	1	12	7	2	2	1310
2	1023	1	12	8	30	3	1915
2	1023	2	1	1	0	1	10015
2	1023	2	1	2	0	3	9229
2	1023	2	1	3	0	2	14666
2	1023	2	1	4	0	3	7512
2	1023	2	1	5	0	3	6418
2	1023	2	1	6	0	1	4927
2	1023	2	1	7	0	1	2727
2	1023	2	1	8	0	2	7341
2	1023	2	1	9	0	1	4182
2	1023	2	1	10	0	1	2754
2	1023	2	1	11	0	3	10969
2	1023	2	1	12	0	1	4306
2	1023	2	1	13	0	1	3762
2	1023	2	1	14	0	2	3568
2	1023	2	1	15	0	2	4934
2	1023	2	1	16	0	1	6990
2	1023	2	1	17	0	3	5636
2	1023	2	1	18	0	3	4920
2	1023	2	1	19	0	2	4376
2	1023	2	1	20	0	2	5733
2	1023	2	1	21	0	1	4613
2	1023	2	1	22	0	2	6290
2	1023	2	1	23	0	3	3908
2	1023	2	1	24	0	3	4228
2	1023	2	1	25	0	2	4303
2	1023	2	1	26	0	3	4744
2	1023	2	1	27	0	4	4584
2	1023	2	1	28	0	3	6341
2	1023	2	1	29	0	1	2613
2	1023	2	1	30	0	1	1809
2	1024	1	1	1	19	2	2851
2	1024	1	1	2	16	1	1173
2	1024	1	1	3	39	3	2428
2	1024	1	1	4	3	3	1581
2	1024	1	1	5	25	2	1712
2	1024	1	1	6	32	3	1470
2	1024	1	1	7	43	1	1454
2	1024	1	1	8	10	1	697
2	1024	1	2	1	45	1	725
2	1024	1	2	2	13	2	555
2	1024	1	2	3	41	1	602
2	1024	1	2	4	8	3	589
2	1024	1	2	5	6	2	1069
2	1024	1	2	6	33	2	1270
2	1024	1	2	7	21	1	674
2	1024	1	2	8	30	2	540
2	1024	1	3	1	2	3	784
2	1024	1	3	2	40	2	610
2	1024	1	3	3	48	2	1064
2	1024	1	3	4	15	1	1224
2	1024	1	3	5	22	1	3228
2	1024	1	3	6	27	1	1037
2	1024	1	3	7	31	1	1740
2	1024	1	3	8	7	2	718
2	1024	1	4	1	47	3	1767
2	1024	1	4	2	20	3	756
2	1024	1	4	3	4	1	788
2	1024	1	4	4	12	2	685
2	1024	1	4	5	35	2	861
2	1024	1	4	6	28	1	688
2	1024	1	4	7	37	2	804
2	1024	1	4	8	14	3	599
2	1024	1	5	1	46	2	1310
2	1024	1	5	2	38	1	908
2	1024	1	5	3	9	1	513
2	1024	1	5	4	34	3	949
2	1024	1	5	5	23	3	618
2	1024	1	5	6	18	2	701
2	1024	1	5	7	29	1	675
2	1024	1	5	8	5	3	622
2	1024	1	6	1	44	3	3515
2	1024	1	6	2	36	1	931
2	1024	1	6	3	17	3	560
2	1024	1	6	4	1	2	1192
2	1024	1	6	5	11	3	672
2	1024	1	6	6	24	2	664
2	1024	1	6	7	42	1	821
2	1024	1	6	8	26	1	876
2	1024	1	7	1	40	3	680
2	1024	1	7	2	21	1	778
2	1024	1	7	3	15	3	1634
2	1024	1	7	4	9	1	667
2	1024	1	7	5	4	1	879
2	1024	1	7	6	43	1	702
2	1024	1	7	7	25	3	625
2	1024	1	7	8	32	2	611
2	1024	1	8	1	42	3	3988
2	1024	1	8	2	28	3	2042
2	1024	1	8	3	17	3	711
2	1024	1	8	4	47	3	680
2	1024	1	8	5	11	3	547
2	1024	1	8	6	33	3	566
2	1024	1	8	7	23	3	551
2	1024	1	8	8	5	3	893
2	1024	1	9	1	44	2	952
2	1024	1	9	2	18	2	733
2	1024	1	9	3	2	3	703
2	1024	1	9	4	34	2	644
2	1024	1	9	5	24	2	603
2	1024	1	9	6	12	2	559
2	1024	1	9	7	26	2	663
2	1024	1	9	8	39	2	546
2	1024	1	10	1	19	2	543
2	1024	1	10	2	8	3	795
2	1024	1	10	3	30	2	2610
2	1024	1	10	4	14	3	799
2	1024	1	10	5	38	1	669
2	1024	1	10	6	6	2	633
2	1024	1	10	7	45	2	1036
2	1024	1	10	8	36	3	511
2	1024	1	11	1	7	2	465
2	1024	1	11	2	35	2	1986
2	1024	1	11	3	1	2	1060
2	1024	1	11	4	48	3	532
2	1024	1	11	5	22	1	1199
2	1024	1	11	6	37	1	816
2	1024	1	11	7	16	1	685
2	1024	1	11	8	29	1	701
2	1024	1	12	1	20	3	1154
2	1024	1	12	2	31	3	600
2	1024	1	12	3	3	1	752
2	1024	1	12	4	13	2	522
2	1024	1	12	5	46	3	514
2	1024	1	12	6	41	2	419
2	1024	1	12	7	27	3	355
2	1024	1	12	8	10	1	433
2	1024	2	1	1	0	2	7240
2	1024	2	1	2	0	3	4524
2	1024	2	1	3	0	1	8099
2	1024	2	1	4	0	4	4286
2	1024	2	1	5	0	2	3271
2	1024	2	1	6	0	3	5001
2	1024	2	1	7	0	1	4136
2	1024	2	1	8	0	2	3726
2	1024	2	1	9	0	1	2606
2	1024	2	1	10	0	2	3025
2	1024	2	1	11	0	3	5700
2	1024	2	1	12	0	3	2214
2	1024	2	1	13	0	3	5057
2	1024	2	1	14	0	3	3612
2	1024	2	1	15	0	3	2621
2	1024	2	1	16	0	1	1860
2	1024	2	1	17	0	2	2397
2	1024	2	1	18	0	2	3690
2	1024	2	1	19	0	2	2066
2	1024	2	1	20	0	2	2100
2	1024	2	1	21	0	1	2892
2	1024	2	1	22	0	2	3725
2	1024	2	1	23	0	1	3940
2	1024	2	1	24	0	3	2307
2	1024	2	1	25	0	1	8039
2	1024	2	1	26	0	3	3154
2	1024	2	1	27	0	2	5413
2	1024	2	1	28	0	3	4521
2	1024	2	1	29	0	4	1858
2	1024	2	1	30	0	3	2088
2	1025	1	1	1	25	3	1837
2	1025	1	1	2	34	2	708
2	1025	1	1	3	45	2	339
2	1025	1	1	4	20	1	1664
2	1025	1	1	5	2	2	1193
2	1025	1	1	6	39	2	242
2	1025	1	1	7	10	1	835
2	1025	1	1	8	18	2	366
2	1025	1	2	1	38	1	417
2	1025	1	2	2	15	1	288
2	1025	1	2	3	27	3	1314
2	1025	1	2	4	36	3	299
2	1025	1	2	5	48	3	265
2	1025	1	2	6	11	3	256
2	1025	1	2	7	23	3	266
2	1025	1	2	8	4	1	372
2	1025	1	3	1	33	3	314
2	1025	1	3	2	46	3	342
2	1025	1	3	3	26	2	266
2	1025	1	3	4	41	2	897
2	1025	1	3	5	13	2	430
2	1025	1	3	6	8	3	1576
2	1025	1	3	7	21	1	823
2	1025	1	3	8	3	1	462
2	1025	1	4	1	32	2	272
2	1025	1	4	2	47	2	2952
2	1025	1	4	3	29	1	374
2	1025	1	4	4	1	2	398
2	1025	1	4	5	40	3	976
2	1025	1	4	6	16	1	330
2	1025	1	4	7	24	2	1566
2	1025	1	4	8	12	2	744
2	1025	1	5	1	30	1	113
2	1025	1	5	2	42	3	444
2	1025	1	5	3	22	1	584
2	1025	1	5	4	14	3	289
2	1025	1	5	5	6	2	288
2	1025	1	5	6	9	1	296
2	1025	1	5	7	44	1	374
2	1025	1	5	8	35	1	478
2	1025	1	6	1	19	2	241
2	1025	1	6	2	7	2	369
2	1025	1	6	3	37	1	282
2	1025	1	6	4	31	3	200
2	1025	1	6	5	43	1	1498
2	1025	1	6	6	5	3	262
2	1025	1	6	7	17	3	982
2	1025	1	6	8	28	2	269
2	1025	1	7	1	44	1	728
2	1025	1	7	2	39	2	271
2	1025	1	7	3	18	2	382
2	1025	1	7	4	29	1	432
2	1025	1	7	5	10	1	534
2	1025	1	7	6	3	1	257
2	1025	1	7	7	33	3	472
2	1025	1	7	8	21	1	481
2	1025	1	8	1	38	1	403
2	1025	1	8	2	8	3	278
2	1025	1	8	3	14	3	309
2	1025	1	8	4	36	1	331
2	1025	1	8	5	5	2	814
2	1025	1	8	6	27	3	342
2	1025	1	8	7	43	1	211
2	1025	1	8	8	19	2	765
2	1025	1	9	1	42	3	516
2	1025	1	9	2	26	2	333
2	1025	1	9	3	15	1	1234
2	1025	1	9	4	11	3	562
2	1025	1	9	5	20	3	564
2	1025	1	9	6	34	2	933
2	1025	1	9	7	2	3	929
2	1025	1	9	8	47	2	581
2	1025	1	10	1	22	1	480
2	1025	1	10	2	1	2	542
2	1025	1	10	3	7	2	650
2	1025	1	10	4	35	1	681
2	1025	1	10	5	25	3	1470
2	1025	1	10	6	40	3	508
2	1025	1	10	7	48	3	617
2	1025	1	10	8	13	2	610
2	1025	1	11	1	6	2	391
2	1025	1	11	2	45	2	424
2	1025	1	11	3	41	2	1674
2	1025	1	11	4	24	2	352
2	1025	1	11	5	30	1	387
2	1025	1	11	6	31	3	685
2	1025	1	11	7	12	2	970
2	1025	1	11	8	17	3	765
2	1025	1	12	1	9	1	394
2	1025	1	12	2	28	2	480
2	1025	1	12	3	4	1	535
2	1025	1	12	4	37	1	517
2	1025	1	12	5	16	1	564
2	1025	1	12	6	32	2	491
2	1025	1	12	7	23	3	714
2	1025	1	12	8	46	3	469
2	1025	2	1	1	0	2	11358
2	1025	2	1	2	0	3	4119
2	1025	2	1	3	0	1	3495
2	1025	2	1	4	0	2	3080
2	1025	2	1	5	0	3	2112
2	1025	2	1	6	0	4	1416
2	1025	2	1	7	0	2	3619
2	1025	2	1	8	0	2	1399
2	1025	2	1	9	0	1	1611
2	1025	2	1	10	0	1	1630
2	1025	2	1	11	0	2	3673
2	1025	2	1	12	0	2	1978
2	1025	2	1	13	0	2	3311
2	1025	2	1	14	0	3	2039
2	1025	2	1	15	0	1	2106
2	1025	2	1	16	0	1	1546
2	1025	2	1	17	0	3	1656
2	1025	2	1	18	0	3	2931
2	1025	2	1	19	0	2	1466
2	1025	2	1	20	0	2	1507
2	1025	2	1	21	0	1	2002
2	1025	2	1	22	0	3	1743
2	1025	2	1	23	0	2	3253
2	1025	2	1	24	0	2	1639
2	1025	2	1	25	0	4	3474
2	1025	2	1	26	0	2	2355
2	1025	2	1	27	0	3	3866
2	1025	2	1	28	0	4	3620
2	1025	2	1	29	0	3	1768
2	1025	2	1	30	0	2	1453
1	1036	1	1	1	26	1	1559
1	1036	1	1	2	42	1	1228
1	1036	1	1	3	45	3	1949
1	1036	1	1	4	22	1	897
1	1036	1	1	5	33	2	1111
1	1036	1	1	6	3	1	621
1	1036	1	1	7	16	1	918
1	1036	1	1	8	11	3	622
1	1036	1	2	1	35	2	972
1	1036	1	2	2	21	2	519
1	1036	1	2	3	5	3	829
1	1036	1	2	4	43	2	536
1	1036	1	2	5	29	3	1632
1	1036	1	2	6	12	2	693
1	1036	1	2	7	38	2	615
1	1036	1	2	8	15	2	398
1	1036	1	3	1	39	1	1357
1	1036	1	3	2	31	1	843
1	1036	1	3	3	28	3	584
1	1036	1	3	4	19	2	535
1	1036	1	3	5	8	3	561
1	1036	1	3	6	44	1	1291
1	1036	1	3	7	2	3	638
1	1036	1	3	8	14	3	717
1	1036	1	4	1	48	2	616
1	1036	1	4	2	25	2	376
1	1036	1	4	3	40	2	538
1	1036	1	4	4	6	2	718
1	1036	1	4	5	32	1	971
1	1036	1	4	6	10	1	755
1	1036	1	4	7	13	2	702
1	1036	1	4	8	23	2	365
1	1036	1	5	1	47	3	805
1	1036	1	5	2	27	1	1389
1	1036	1	5	3	36	3	863
1	1036	1	5	4	18	2	529
1	1036	1	5	5	37	3	1055
1	1036	1	5	6	1	2	327
1	1036	1	5	7	9	1	718
1	1036	1	5	8	24	2	675
1	1036	1	6	1	7	2	475
1	1036	1	6	2	20	3	422
1	1036	1	6	3	34	3	504
1	1036	1	6	4	30	2	1255
1	1036	1	6	5	17	3	627
1	1036	1	6	6	41	1	1172
1	1036	1	6	7	4	1	815
1	1036	1	6	8	46	1	404
1	1036	1	7	1	37	2	678
1	1036	1	7	2	33	2	42
1	1036	1	7	3	8	3	857
1	1036	1	7	4	48	3	824
1	1036	1	7	5	13	3	651
1	1036	1	7	6	2	3	395
1	1036	1	7	7	26	2	974
1	1036	1	7	8	24	2	796
1	1036	1	8	1	11	3	696
1	1036	1	8	2	14	3	375
1	1036	1	8	3	30	2	575
1	1036	1	8	4	4	1	987
1	1036	1	8	5	47	3	654
1	1036	1	8	6	23	3	655
1	1036	1	8	7	40	2	952
1	1036	1	8	8	36	3	773
1	1036	1	9	1	42	3	628
1	1036	1	9	2	9	1	583
1	1036	1	9	3	16	1	728
1	1036	1	9	4	21	1	1336
1	1036	1	9	5	6	2	655
1	1036	1	9	6	45	1	738
1	1036	1	9	7	35	2	672
1	1036	1	9	8	27	1	483
1	1036	1	10	1	34	3	358
1	1036	1	10	2	5	3	566
1	1036	1	10	3	44	3	595
1	1036	1	10	4	41	1	932
1	1036	1	10	5	18	2	449
1	1036	1	10	6	20	3	765
1	1036	1	10	7	29	3	410
1	1036	1	10	8	7	2	677
1	1036	1	11	1	31	1	859
1	1036	1	11	2	28	3	678
1	1036	1	11	3	3	1	282
1	1036	1	11	4	19	2	481
1	1036	1	11	5	12	2	682
1	1036	1	11	6	46	1	318
1	1036	1	11	7	38	2	214
1	1036	1	11	8	15	1	688
1	1036	1	12	1	39	1	428
1	1036	1	12	2	25	2	1278
1	1036	1	12	3	22	1	779
1	1036	1	12	4	17	3	568
1	1036	1	12	5	32	1	444
1	1036	1	12	6	1	2	1167
1	1036	1	12	7	10	1	745
1	1036	1	12	8	43	2	383
1	1036	2	1	1	0	2	8981
1	1036	2	1	2	0	2	7141
1	1036	2	1	3	0	4	5269
1	1036	2	1	4	0	2	5886
1	1036	2	1	5	0	3	8201
1	1036	2	1	6	0	2	3991
1	1036	2	1	7	0	2	3924
1	1036	2	1	8	0	2	5956
1	1036	2	1	9	0	3	5194
1	1036	2	1	10	0	1	3008
1	1036	2	1	11	0	3	5588
1	1036	2	1	12	0	2	2881
1	1036	2	1	13	0	3	2602
1	1036	2	1	14	0	4	2702
1	1036	2	1	15	0	3	3311
1	1036	2	1	16	0	1	2975
1	1036	2	1	17	0	3	2684
1	1036	2	1	18	0	2	4541
1	1036	2	1	19	0	3	2980
1	1036	2	1	20	0	2	3242
1	1036	2	1	21	0	1	2588
1	1036	2	1	22	0	3	3649
1	1036	2	1	23	0	4	4108
1	1036	2	1	24	0	1	2715
1	1036	2	1	25	0	4	3179
1	1036	2	1	26	0	2	3721
1	1036	2	1	27	0	2	4273
1	1036	2	1	28	0	3	2834
1	1036	2	1	29	0	4	1486
1	1036	2	1	30	0	4	1806
1	1038	1	1	1	11	2	4162
1	1038	1	1	2	45	1	1394
1	1038	1	1	3	41	1	1231
1	1038	1	1	4	1	3	1188
1	1038	1	1	5	21	2	1072
1	1038	1	1	6	17	1	1066
1	1038	1	1	7	35	2	810
1	1038	1	1	8	26	3	1027
1	1038	1	2	1	48	2	915
1	1038	1	2	2	10	3	1231
1	1038	1	2	3	28	1	910
1	1038	1	2	4	38	2	911
1	1038	1	2	5	31	1	590
1	1038	1	2	6	24	3	1141
1	1038	1	2	7	15	3	1119
1	1038	1	2	8	3	3	821
1	1038	1	3	1	32	1	556
1	1038	1	3	2	43	2	1001
1	1038	1	3	3	37	3	740
1	1038	1	3	4	14	2	1470
1	1038	1	3	5	22	3	1188
1	1038	1	3	6	2	2	921
1	1038	1	3	7	9	2	705
1	1038	1	3	8	25	2	1266
1	1038	1	4	1	40	2	851
1	1038	1	4	2	16	2	665
1	1038	1	4	3	29	3	732
1	1038	1	4	4	23	2	504
1	1038	1	4	5	33	2	516
1	1038	1	4	6	46	1	647
1	1038	1	4	7	7	1	1171
1	1038	1	4	8	6	1	1014
1	1038	1	5	1	13	3	1047
1	1038	1	5	2	12	3	863
1	1038	1	5	3	30	2	792
1	1038	1	5	4	34	3	606
1	1038	1	5	5	47	3	808
1	1038	1	5	6	19	1	1448
1	1038	1	5	7	39	3	837
1	1038	1	5	8	5	1	615
1	1038	1	6	1	36	3	604
1	1038	1	6	2	20	1	607
1	1038	1	6	3	4	2	699
1	1038	1	6	4	42	1	749
1	1038	1	6	5	8	1	497
1	1038	1	6	6	44	3	448
1	1038	1	6	7	27	1	582
1	1038	1	6	8	18	1	816
1	1038	1	7	1	19	1	516
1	1038	1	7	2	6	1	453
1	1038	1	7	3	10	3	627
1	1038	1	7	4	30	2	816
1	1038	1	7	5	14	2	473
1	1038	1	7	6	33	2	485
1	1038	1	7	7	41	1	451
1	1038	1	7	8	46	1	586
1	1038	1	8	1	5	1	455
1	1038	1	8	2	11	2	801
1	1038	1	8	3	34	3	742
1	1038	1	8	4	25	2	492
1	1038	1	8	5	38	2	615
1	1038	1	8	6	18	3	1111
1	1038	1	8	7	48	2	572
1	1038	1	8	8	22	3	974
1	1038	1	9	1	44	3	11
1	1038	1	9	2	1	3	492
1	1038	1	9	3	24	3	512
1	1038	1	9	4	42	1	383
1	1038	1	9	5	16	2	499
1	1038	1	9	6	31	1	353
1	1038	1	9	7	9	2	297
1	1038	1	9	8	26	3	389
1	1038	1	10	1	32	1	379
1	1038	1	10	2	40	2	530
1	1038	1	10	3	20	1	531
1	1038	1	10	4	15	3	514
1	1038	1	10	5	45	1	529
1	1038	1	10	6	7	1	404
1	1038	1	10	7	3	3	522
1	1038	1	10	8	29	3	466
1	1038	1	11	1	37	3	519
1	1038	1	11	2	23	2	401
1	1038	1	11	3	36	3	425
1	1038	1	11	4	27	1	455
1	1038	1	11	5	12	3	580
1	1038	1	11	6	43	2	428
1	1038	1	11	7	17	1	594
1	1038	1	11	8	2	2	599
1	1038	1	12	1	8	1	600
1	1038	1	12	2	47	3	508
1	1038	1	12	3	28	1	328
1	1038	1	12	4	35	2	439
1	1038	1	12	5	21	2	986
1	1038	1	12	6	4	2	425
1	1038	1	12	7	13	3	793
1	1038	1	12	8	39	3	429
1	1038	2	1	1	0	3	18012
1	1038	2	1	2	0	1	9670
1	1038	2	1	3	0	2	6090
1	1038	2	1	4	0	2	6258
1	1038	2	1	5	0	1	6701
1	1038	2	1	6	0	2	6327
1	1038	2	1	7	0	3	5991
1	1038	2	1	8	0	4	5005
1	1038	2	1	9	0	3	3058
1	1038	2	1	10	0	4	5995
1	1038	2	1	11	0	2	6961
1	1038	2	1	12	0	3	3912
1	1038	2	1	13	0	2	6064
1	1038	2	1	14	0	1	4499
1	1038	2	1	15	0	2	4740
1	1038	2	1	16	0	1	5187
1	1038	2	1	17	0	2	7088
1	1038	2	1	18	0	2	7674
1	1038	2	1	19	0	3	8077
1	1038	2	1	20	0	3	4288
1	1038	2	1	21	0	1	4634
1	1038	2	1	22	0	2	3518
1	1038	2	1	23	0	2	4254
1	1038	2	1	24	0	1	3217
1	1038	2	1	25	0	2	6077
1	1038	2	1	26	0	3	6455
1	1038	2	1	27	0	2	10586
1	1038	2	1	28	0	2	6873
1	1038	2	1	29	0	2	9979
1	1038	2	1	30	0	2	5939
1	1039	1	1	1	28	3	2521
1	1039	1	1	2	6	2	2132
1	1039	1	1	3	10	3	1570
1	1039	1	1	4	34	3	977
1	1039	1	1	5	22	2	1519
1	1039	1	1	6	44	1	861
1	1039	1	1	7	38	2	1728
1	1039	1	1	8	17	1	601
1	1039	1	2	1	8	2	677
1	1039	1	2	2	3	3	768
1	1039	1	2	3	31	1	554
1	1039	1	2	4	26	3	227
1	1039	1	2	5	42	1	815
1	1039	1	2	6	43	3	644
1	1039	1	2	7	13	3	3116
1	1039	1	2	8	21	2	847
1	1039	1	3	1	12	3	1449
1	1039	1	3	2	39	2	270
1	1039	1	3	3	20	2	2808
1	1039	1	3	4	16	3	754
1	1039	1	3	5	36	3	249
1	1039	1	3	6	27	2	1089
1	1039	1	3	7	1	2	910
1	1039	1	3	8	45	1	669
1	1039	1	4	1	40	2	887
1	1039	1	4	2	4	2	2044
1	1039	1	4	3	11	2	1026
1	1039	1	4	4	15	1	643
1	1039	1	4	5	25	3	1244
1	1039	1	4	6	46	3	1688
1	1039	1	4	7	35	2	1071
1	1039	1	4	8	24	3	495
1	1039	1	5	1	2	1	2065
1	1039	1	5	2	37	1	1436
1	1039	1	5	3	9	2	929
1	1039	1	5	4	33	3	1948
1	1039	1	5	5	30	1	1221
1	1039	1	5	6	47	2	315
1	1039	1	5	7	23	3	1929
1	1039	1	5	8	14	2	762
1	1039	1	6	1	5	2	649
1	1039	1	6	2	18	3	1793
1	1039	1	6	3	32	1	1087
1	1039	1	6	4	48	1	1241
1	1039	1	6	5	7	1	1562
1	1039	1	6	6	29	3	1960
1	1039	1	6	7	19	3	2174
1	1039	1	6	8	41	2	1200
1	1039	1	7	1	8	3	142
1	1039	1	7	2	45	2	724
1	1039	1	7	3	26	2	1097
1	1039	1	7	4	35	3	1253
1	1039	1	7	5	3	1	830
1	1039	1	7	6	16	2	2062
1	1039	1	7	7	38	3	2280
1	1039	1	7	8	23	2	1419
1	1039	1	8	1	29	3	1286
1	1039	1	8	2	10	1	59
1	1039	1	8	3	41	3	1951
1	1039	1	8	4	15	2	1151
1	1039	1	8	5	2	3	459
1	1039	1	8	6	34	3	1939
1	1039	1	8	7	24	2	1455
1	1039	1	8	8	44	2	1687
1	1039	1	9	1	19	2	753
1	1039	1	9	2	9	2	1317
1	1039	1	9	3	13	3	923
1	1039	1	9	4	6	1	1195
1	1039	1	9	5	36	3	602
1	1039	1	9	6	40	3	395
1	1039	1	9	7	25	3	1047
1	1039	1	9	8	48	2	1328
1	1039	1	10	1	18	2	6324
1	1039	1	10	2	27	2	173
1	1039	1	10	3	1	2	512
1	1039	1	10	4	20	3	606
1	1039	1	10	5	43	2	1771
1	1039	1	10	6	33	3	848
1	1039	1	10	7	12	3	1400
1	1039	1	10	8	37	1	927
1	1039	1	11	1	22	3	1304
1	1039	1	11	2	32	1	1009
1	1039	1	11	3	42	3	1454
1	1039	1	11	4	30	2	2052
1	1039	1	11	5	7	2	986
1	1039	1	11	6	17	3	1248
1	1039	1	11	7	47	3	793
1	1039	1	11	8	4	1	779
1	1039	1	12	1	46	1	530
1	1039	1	12	2	31	1	668
1	1039	1	12	3	5	1	1052
1	1039	1	12	4	21	2	738
1	1039	1	12	5	39	3	936
1	1039	1	12	6	14	3	531
1	1039	1	12	7	11	3	1699
1	1039	1	12	8	28	3	2936
1	1039	2	1	1	0	3	8171
1	1039	2	1	2	0	2	8466
1	1039	2	1	3	0	2	8982
1	1039	2	1	4	0	4	3141
1	1039	2	1	5	0	1	3916
1	1039	2	1	6	0	1	4108
1	1039	2	1	7	0	3	3491
1	1039	2	1	8	0	3	3780
1	1039	2	1	9	0	3	3129
1	1039	2	1	10	0	3	4568
1	1039	2	1	11	0	1	3799
1	1039	2	1	12	0	4	5252
1	1039	2	1	13	0	3	3383
1	1039	2	1	14	0	1	2692
1	1039	2	1	15	0	3	4191
1	1039	2	1	16	0	1	2586
1	1039	2	1	17	0	2	2799
1	1039	2	1	18	0	2	3955
1	1039	2	1	19	0	3	2810
1	1039	2	1	20	0	3	4102
1	1039	2	1	21	0	1	2991
1	1039	2	1	22	0	3	3083
1	1039	2	1	23	0	1	4236
1	1039	2	1	24	0	2	2696
1	1039	2	1	25	0	2	7480
1	1039	2	1	26	0	2	5483
1	1039	2	1	27	0	2	4573
1	1039	2	1	28	0	1	2603
1	1039	2	1	29	0	2	2495
1	1039	2	1	30	0	3	2608
1	1040	1	1	1	3	3	2150
1	1040	1	1	2	14	2	247
1	1040	1	1	3	38	2	315
1	1040	1	1	4	35	2	1152
1	1040	1	1	5	12	3	2486
1	1040	1	1	6	44	3	2628
1	1040	1	1	7	20	3	1931
1	1040	1	1	8	30	2	1301
1	1040	1	2	1	41	1	1124
1	1040	1	2	2	34	3	364
1	1040	1	2	3	22	1	763
1	1040	1	2	4	17	1	283
1	1040	1	2	5	4	2	880
1	1040	1	2	6	47	3	396
1	1040	1	2	7	10	3	669
1	1040	1	2	8	28	1	526
1	1040	1	3	1	24	2	1413
1	1040	1	3	2	33	2	422
1	1040	1	3	3	5	2	803
1	1040	1	3	4	27	1	492
1	1040	1	3	5	16	2	1821
1	1040	1	3	6	48	2	445
1	1040	1	3	7	11	2	1082
1	1040	1	3	8	40	2	384
1	1040	1	4	1	29	3	85
1	1040	1	4	2	21	2	1167
1	1040	1	4	3	15	1	1129
1	1040	1	4	4	43	2	362
1	1040	1	4	5	7	1	2820
1	1040	1	4	6	37	3	613
1	1040	1	4	7	6	1	3251
1	1040	1	4	8	32	1	692
1	1040	1	5	1	18	1	1012
1	1040	1	5	2	23	2	481
1	1040	1	5	3	1	3	1539
1	1040	1	5	4	46	2	2540
1	1040	1	5	5	8	1	326
1	1040	1	5	6	25	2	95
1	1040	1	5	7	36	3	445
1	1040	1	5	8	42	1	265
1	1040	1	6	1	13	3	1051
1	1040	1	6	2	19	1	1129
1	1040	1	6	3	2	2	896
1	1040	1	6	4	31	1	360
1	1040	1	6	5	45	3	994
1	1040	1	6	6	26	3	407
1	1040	1	6	7	39	3	649
1	1040	1	6	8	9	2	594
1	1040	1	7	1	17	1	3421
1	1040	1	7	2	8	1	582
1	1040	1	7	3	5	1	302
1	1040	1	7	4	32	1	815
1	1040	1	7	5	29	3	351
1	1040	1	7	6	23	2	1648
1	1040	1	7	7	43	2	271
1	1040	1	7	8	42	1	309
1	1040	1	8	1	16	3	2008
1	1040	1	8	2	26	3	520
1	1040	1	8	3	10	3	385
1	1040	1	8	4	31	1	296
1	1040	1	8	5	44	3	329
1	1040	1	8	6	20	1	746
1	1040	1	8	7	3	3	1651
1	1040	1	8	8	40	2	444
1	1040	1	9	1	15	3	926
1	1040	1	9	2	48	2	230
1	1040	1	9	3	35	2	242
1	1040	1	9	4	4	2	829
1	1040	1	9	5	11	2	1276
1	1040	1	9	6	38	2	537
1	1040	1	9	7	24	2	1495
1	1040	1	9	8	30	2	311
1	1040	1	10	1	1	3	1608
1	1040	1	10	2	9	2	287
1	1040	1	10	3	14	2	472
1	1040	1	10	4	34	3	435
1	1040	1	10	5	39	3	295
1	1040	1	10	6	22	3	253
1	1040	1	10	7	25	2	264
1	1040	1	10	8	46	1	1059
1	1040	1	11	1	33	2	313
1	1040	1	11	2	2	2	631
1	1040	1	11	3	13	3	950
1	1040	1	11	4	19	1	1296
1	1040	1	11	5	27	1	265
1	1040	1	11	6	37	3	292
1	1040	1	11	7	12	3	396
1	1040	1	11	8	47	3	348
1	1040	1	12	1	41	1	552
1	1040	1	12	2	7	1	535
1	1040	1	12	3	21	2	1683
1	1040	1	12	4	18	3	650
1	1040	1	12	5	45	1	544
1	1040	1	12	6	36	3	382
1	1040	1	12	7	28	1	1899
1	1040	1	12	8	6	3	2041
1	1040	2	1	1	0	2	15790
1	1040	2	1	2	0	2	6358
1	1040	2	1	3	0	2	5909
1	1040	2	1	4	0	2	5038
1	1040	2	1	5	0	2	4505
1	1040	2	1	6	0	3	6002
1	1040	2	1	7	0	2	4488
1	1040	2	1	8	0	2	4993
1	1040	2	1	9	0	2	2823
1	1040	2	1	10	0	2	5865
1	1040	2	1	11	0	3	4772
1	1040	2	1	12	0	3	3434
1	1040	2	1	13	0	2	6485
1	1040	2	1	14	0	4	3559
1	1040	2	1	15	0	3	4861
1	1040	2	1	16	0	3	4120
1	1040	2	1	17	0	2	4376
1	1040	2	1	18	0	3	4750
1	1040	2	1	19	0	2	2668
1	1040	2	1	20	0	2	2166
1	1040	2	1	21	0	1	5084
1	1040	2	1	22	0	2	3310
1	1040	2	1	23	0	2	5054
1	1040	2	1	24	0	2	3977
1	1040	2	1	25	0	3	4286
1	1040	2	1	26	0	3	3528
1	1040	2	1	27	0	2	5384
1	1040	2	1	28	0	2	9565
1	1040	2	1	29	0	2	2381
1	1040	2	1	30	0	2	2602
1	1047	1	1	1	1	2	1904
1	1047	1	1	2	8	3	4465
1	1047	1	1	3	17	2	1317
1	1047	1	1	4	19	2	537
1	1047	1	1	5	48	2	1508
1	1047	1	1	6	25	2	1779
1	1047	1	1	7	32	1	1416
1	1047	1	1	8	42	3	2152
1	1047	1	2	1	18	2	1498
1	1047	1	2	2	2	3	1285
1	1047	1	2	3	36	1	3349
1	1047	1	2	4	47	2	568
1	1047	1	2	5	27	3	1511
1	1047	1	2	6	21	1	729
1	1047	1	2	7	37	2	2253
1	1047	1	2	8	12	1	2692
1	1047	1	3	1	29	3	1240
1	1047	1	3	2	10	2	3396
1	1047	1	3	3	45	2	1843
1	1047	1	3	4	20	2	1869
1	1047	1	3	5	33	3	585
1	1047	1	3	6	4	2	1061
1	1047	1	3	7	15	1	2019
1	1047	1	3	8	38	1	322
1	1047	1	4	1	46	3	4103
1	1047	1	4	2	6	3	3255
1	1047	1	4	3	35	2	737
1	1047	1	4	4	28	1	863
1	1047	1	4	5	40	3	344
1	1047	1	4	6	13	2	492
1	1047	1	4	7	11	3	556
1	1047	1	4	8	24	2	707
1	1047	1	5	1	30	3	1271
1	1047	1	5	2	22	1	457
1	1047	1	5	3	31	1	603
1	1047	1	5	4	3	1	1349
1	1047	1	5	5	14	3	703
1	1047	1	5	6	39	3	832
1	1047	1	5	7	44	1	1377
1	1047	1	5	8	7	2	830
1	1047	1	6	1	41	1	586
1	1047	1	6	2	5	3	640
1	1047	1	6	3	23	3	876
1	1047	1	6	4	43	1	1406
1	1047	1	6	5	26	1	2456
1	1047	1	6	6	9	2	1750
1	1047	1	6	7	34	3	694
1	1047	1	6	8	16	1	767
1	1047	1	7	1	8	3	548
1	1047	1	7	2	27	3	1767
1	1047	1	7	3	17	3	1071
1	1047	1	7	4	47	3	1109
1	1047	1	7	5	39	2	985
1	1047	1	7	6	6	2	826
1	1047	1	7	7	20	3	800
1	1047	1	7	8	32	1	924
1	1047	1	8	1	21	1	359
1	1047	1	8	2	34	3	798
1	1047	1	8	3	42	3	2095
1	1047	1	8	4	28	2	726
1	1047	1	8	5	10	2	994
1	1047	1	8	6	13	2	353
1	1047	1	8	7	1	1	434
1	1047	1	8	8	43	2	784
1	1047	1	9	1	36	3	1116
1	1047	1	9	2	38	2	363
1	1047	1	9	3	29	1	1020
1	1047	1	9	4	14	3	842
1	1047	1	9	5	24	2	849
1	1047	1	9	6	46	3	3848
1	1047	1	9	7	2	3	613
1	1047	1	9	8	7	1	649
1	1047	1	10	1	33	3	692
1	1047	1	10	2	23	2	702
1	1047	1	10	3	12	3	2058
1	1047	1	10	4	16	1	428
1	1047	1	10	5	25	2	834
1	1047	1	10	6	40	3	516
1	1047	1	10	7	48	3	300
1	1047	1	10	8	5	2	982
1	1047	1	11	1	37	3	1619
1	1047	1	11	2	45	2	1462
1	1047	1	11	3	26	2	412
1	1047	1	11	4	11	2	492
1	1047	1	11	5	35	3	1159
1	1047	1	11	6	22	1	1104
1	1047	1	11	7	4	1	723
1	1047	1	11	8	18	3	808
1	1047	1	12	1	3	1	423
1	1047	1	12	2	41	1	321
1	1047	1	12	3	44	3	1892
1	1047	1	12	4	31	3	2182
1	1047	1	12	5	15	1	629
1	1047	1	12	6	9	1	653
1	1047	1	12	7	19	2	808
1	1047	1	12	8	30	3	826
1	1047	2	1	1	0	2	14572
1	1047	2	1	2	0	3	6652
1	1047	2	1	3	0	2	2923
1	1047	2	1	4	0	2	3718
1	1047	2	1	5	0	2	3326
1	1047	2	1	6	0	2	3245
1	1047	2	1	7	0	3	2960
1	1047	2	1	8	0	3	1870
1	1047	2	1	9	0	3	2711
1	1047	2	1	10	0	3	3503
1	1047	2	1	11	0	1	3736
1	1047	2	1	12	0	4	2423
1	1047	2	1	13	0	2	2994
1	1047	2	1	14	0	3	2479
1	1047	2	1	15	0	3	3288
1	1047	2	1	16	0	1	1969
1	1047	2	1	17	0	3	1575
1	1047	2	1	18	0	2	3763
1	1047	2	1	19	0	3	2634
1	1047	2	1	20	0	2	2973
1	1047	2	1	21	0	1	2794
1	1047	2	1	22	0	3	1718
1	1047	2	1	23	0	1	4045
1	1047	2	1	24	0	1	1904
1	1047	2	1	25	0	1	3007
1	1047	2	1	26	0	4	4707
1	1047	2	1	27	0	4	3736
1	1047	2	1	28	0	1	1374
1	1047	2	1	29	0	3	1729
1	1047	2	1	30	0	2	1622
1	1048	1	1	1	19	1	793
1	1048	1	1	2	33	2	131
1	1048	1	1	3	9	2	797
1	1048	1	1	4	14	2	382
1	1048	1	1	5	5	1	308
1	1048	1	1	6	39	3	439
1	1048	1	1	7	28	1	511
1	1048	1	1	8	47	3	400
1	1048	1	2	1	6	3	1849
1	1048	1	2	2	18	1	318
1	1048	1	2	3	11	2	752
1	1048	1	2	4	20	1	1084
1	1048	1	2	5	38	2	291
1	1048	1	2	6	31	2	240
1	1048	1	2	7	44	3	438
1	1048	1	2	8	25	2	239
1	1048	1	3	1	10	3	298
1	1048	1	3	2	2	3	733
1	1048	1	3	3	21	2	486
1	1048	1	3	4	16	2	537
1	1048	1	3	5	42	1	333
1	1048	1	3	6	29	3	236
1	1048	1	3	7	34	3	241
1	1048	1	3	8	45	1	277
1	1048	1	4	1	7	3	696
1	1048	1	4	2	24	2	278
1	1048	1	4	3	13	2	341
1	1048	1	4	4	3	3	646
1	1048	1	4	5	48	2	319
1	1048	1	4	6	36	3	265
1	1048	1	4	7	37	3	220
1	1048	1	4	8	30	2	237
1	1048	1	5	1	17	2	240
1	1048	1	5	2	1	1	408
1	1048	1	5	3	12	3	659
1	1048	1	5	4	40	2	885
1	1048	1	5	5	46	1	330
1	1048	1	5	6	32	3	416
1	1048	1	5	7	27	1	327
1	1048	1	5	8	22	1	465
1	1048	1	6	1	15	3	377
1	1048	1	6	2	35	2	665
1	1048	1	6	3	23	3	588
1	1048	1	6	4	41	1	467
1	1048	1	6	5	8	1	301
1	1048	1	6	6	43	2	341
1	1048	1	6	7	26	3	240
1	1048	1	6	8	4	1	628
1	1048	1	7	1	21	1	293
1	1048	1	7	2	1	2	579
1	1048	1	7	3	17	3	301
1	1048	1	7	4	40	2	225
1	1048	1	7	5	25	2	613
1	1048	1	7	6	36	3	270
1	1048	1	7	7	47	3	297
1	1048	1	7	8	12	1	762
1	1048	1	8	1	13	3	308
1	1048	1	8	2	26	3	210
1	1048	1	8	3	9	2	302
1	1048	1	8	4	2	2	226
1	1048	1	8	5	33	2	272
1	1048	1	8	6	45	1	263
1	1048	1	8	7	42	1	301
1	1048	1	8	8	19	3	252
1	1048	1	9	1	11	3	471
1	1048	1	9	2	22	1	734
1	1048	1	9	3	4	2	283
1	1048	1	9	4	29	3	234
1	1048	1	9	5	16	2	518
1	1048	1	9	6	48	2	197
1	1048	1	9	7	31	1	1601
1	1048	1	9	8	39	3	294
1	1048	1	10	1	14	3	775
1	1048	1	10	2	37	3	791
1	1048	1	10	3	35	3	377
1	1048	1	10	4	46	2	246
1	1048	1	10	5	20	3	477
1	1048	1	10	6	5	1	303
1	1048	1	10	7	7	2	486
1	1048	1	10	8	30	2	318
1	1048	1	11	1	10	1	376
1	1048	1	11	2	41	1	239
1	1048	1	11	3	18	2	263
1	1048	1	11	4	27	1	270
1	1048	1	11	5	32	1	288
1	1048	1	11	6	23	3	278
1	1048	1	11	7	6	2	411
1	1048	1	11	8	44	3	320
1	1048	1	12	1	38	2	282
1	1048	1	12	2	34	3	339
1	1048	1	12	3	24	3	520
1	1048	1	12	4	28	1	295
1	1048	1	12	5	8	2	271
1	1048	1	12	6	3	3	552
1	1048	1	12	7	15	3	548
1	1048	1	12	8	43	2	588
1	1048	2	1	1	0	2	9340
1	1048	2	1	2	0	3	4388
1	1048	2	1	3	0	1	4489
1	1048	2	1	4	0	1	7386
1	1048	2	1	5	0	2	6319
1	1048	2	1	6	0	4	3296
1	1048	2	1	7	0	3	4129
1	1048	2	1	8	0	2	2777
1	1048	2	1	9	0	2	3022
1	1048	2	1	10	0	1	2577
1	1048	2	1	11	0	2	4494
1	1048	2	1	12	0	3	3527
1	1048	2	1	13	0	1	2975
1	1048	2	1	14	0	4	3228
1	1048	2	1	15	0	2	2559
1	1048	2	1	16	0	1	2461
1	1048	2	1	17	0	3	3382
1	1048	2	1	18	0	3	2116
1	1048	2	1	19	0	3	1995
1	1048	2	1	20	0	2	1672
1	1048	2	1	21	0	1	4153
1	1048	2	1	22	0	3	2384
1	1048	2	1	23	0	2	2917
1	1048	2	1	24	0	1	3021
1	1048	2	1	25	0	3	5104
1	1048	2	1	26	0	4	5209
1	1048	2	1	27	0	2	2901
1	1048	2	1	28	0	1	3414
1	1048	2	1	29	0	3	3458
1	1048	2	1	30	0	2	2660
1	1049	1	1	1	23	2	923
1	1049	1	1	2	27	1	799
1	1049	1	1	3	7	2	1088
1	1049	1	1	4	33	3	547
1	1049	1	1	5	17	1	643
1	1049	1	1	6	38	1	495
1	1049	1	1	7	48	3	605
1	1049	1	1	8	1	3	1279
1	1049	1	2	1	46	3	640
1	1049	1	2	2	32	2	830
1	1049	1	2	3	6	1	829
1	1049	1	2	4	9	2	1624
1	1049	1	2	5	21	3	1447
1	1049	1	2	6	29	1	608
1	1049	1	2	7	40	3	523
1	1049	1	2	8	16	2	1845
1	1049	1	3	1	45	2	627
1	1049	1	3	2	35	1	584
1	1049	1	3	3	11	2	1485
1	1049	1	3	4	25	3	652
1	1049	1	3	5	42	3	911
1	1049	1	3	6	14	1	1542
1	1049	1	3	7	3	3	1959
1	1049	1	3	8	22	2	2134
1	1049	1	4	1	2	2	759
1	1049	1	4	2	12	3	1100
1	1049	1	4	3	18	1	995
1	1049	1	4	4	37	1	794
1	1049	1	4	5	36	1	599
1	1049	1	4	6	47	2	990
1	1049	1	4	7	24	3	1102
1	1049	1	4	8	26	2	848
1	1049	1	5	1	44	1	556
1	1049	1	5	2	5	1	2126
1	1049	1	5	3	10	3	1074
1	1049	1	5	4	28	2	1501
1	1049	1	5	5	31	3	711
1	1049	1	5	6	15	3	1009
1	1049	1	5	7	39	2	762
1	1049	1	5	8	19	1	939
1	1049	1	6	1	8	3	1071
1	1049	1	6	2	4	2	523
1	1049	1	6	3	30	1	632
1	1049	1	6	4	34	2	633
1	1049	1	6	5	20	2	823
1	1049	1	6	6	13	3	535
1	1049	1	6	7	41	2	880
1	1049	1	6	8	43	1	753
1	1049	1	7	1	14	2	645
1	1049	1	7	2	2	2	1904
1	1049	1	7	3	48	3	562
1	1049	1	7	4	25	2	1130
1	1049	1	7	5	37	3	1701
1	1049	1	7	6	23	2	1294
1	1049	1	7	7	11	1	731
1	1049	1	7	8	33	3	532
1	1049	1	8	1	17	2	114
1	1049	1	8	2	10	3	763
1	1049	1	8	3	46	3	553
1	1049	1	8	4	19	1	308
1	1049	1	8	5	4	2	468
1	1049	1	8	6	42	3	850
1	1049	1	8	7	34	2	1281
1	1049	1	8	8	28	2	529
1	1049	1	9	1	1	3	619
1	1049	1	9	2	9	2	624
1	1049	1	9	3	22	2	543
1	1049	1	9	4	32	2	353
1	1049	1	9	5	47	2	1383
1	1049	1	9	6	27	2	1016
1	1049	1	9	7	41	2	304
1	1049	1	9	8	15	2	876
1	1049	1	10	1	6	1	1325
1	1049	1	10	2	31	3	666
1	1049	1	10	3	40	3	1494
1	1049	1	10	4	8	1	800
1	1049	1	10	5	21	2	555
1	1049	1	10	6	18	3	1284
1	1049	1	10	7	30	1	648
1	1049	1	10	8	44	1	753
1	1049	1	11	1	20	1	826
1	1049	1	11	2	3	3	616
1	1049	1	11	3	29	1	916
1	1049	1	11	4	12	3	661
1	1049	1	11	5	39	2	594
1	1049	1	11	6	43	1	673
1	1049	1	11	7	36	3	863
1	1049	1	11	8	16	2	1798
1	1049	1	12	1	5	1	938
1	1049	1	12	2	26	3	655
1	1049	1	12	3	24	3	225
1	1049	1	12	4	45	3	937
1	1049	1	12	5	13	1	498
1	1049	1	12	6	7	1	558
1	1049	1	12	7	38	1	665
1	1049	1	12	8	35	1	796
1	1049	2	1	1	0	3	10828
1	1049	2	1	2	0	2	4506
1	1049	2	1	3	0	2	7226
1	1049	2	1	4	0	4	20046
1	1049	2	1	5	0	2	2575
1	1049	2	1	6	0	3	3388
1	1049	2	1	7	0	2	2849
1	1049	2	1	8	0	3	8212
1	1049	2	1	9	0	1	2433
1	1049	2	1	10	0	3	8756
1	1049	2	1	11	0	4	4732
1	1049	2	1	12	0	3	4180
1	1049	2	1	13	0	4	3537
1	1049	2	1	14	0	2	3825
1	1049	2	1	15	0	2	4259
1	1049	2	1	16	0	1	2198
1	1049	2	1	17	0	2	3634
1	1049	2	1	18	0	1	7693
1	1049	2	1	19	0	2	5423
1	1049	2	1	20	0	2	2987
1	1049	2	1	21	0	1	3337
1	1049	2	1	22	0	1	6560
1	1049	2	1	23	0	2	5175
1	1049	2	1	24	0	1	2677
1	1049	2	1	25	0	1	9006
1	1049	2	1	26	0	3	5044
1	1049	2	1	27	0	1	9919
1	1049	2	1	28	0	4	4361
1	1049	2	1	29	0	2	6504
1	1049	2	1	30	0	4	2721
1	1050	1	1	1	25	2	1378
1	1050	1	1	2	10	3	538
1	1050	1	1	3	35	2	471
1	1050	1	1	4	47	3	467
1	1050	1	1	5	37	3	364
1	1050	1	1	6	1	3	332
1	1050	1	1	7	20	1	494
1	1050	1	1	8	16	2	434
1	1050	1	2	1	41	1	475
1	1050	1	2	2	13	3	350
1	1050	1	2	3	26	3	269
1	1050	1	2	4	45	1	384
1	1050	1	2	5	5	1	525
1	1050	1	2	6	19	1	552
1	1050	1	2	7	12	3	1100
1	1050	1	2	8	36	3	517
1	1050	1	3	1	28	1	440
1	1050	1	3	2	15	3	270
1	1050	1	3	3	22	3	367
1	1050	1	3	4	6	1	282
1	1050	1	3	5	38	2	268
1	1050	1	3	6	48	2	522
1	1050	1	3	7	33	1	776
1	1050	1	3	8	8	1	381
1	1050	1	4	1	43	2	401
1	1050	1	4	2	39	3	889
1	1050	1	4	3	11	2	543
1	1050	1	4	4	14	2	693
1	1050	1	4	5	2	2	302
1	1050	1	4	6	30	2	536
1	1050	1	4	7	23	2	451
1	1050	1	4	8	32	1	281
1	1050	1	5	1	29	3	320
1	1050	1	5	2	34	3	547
1	1050	1	5	3	9	2	406
1	1050	1	5	4	44	3	574
1	1050	1	5	5	24	3	796
1	1050	1	5	6	3	3	1191
1	1050	1	5	7	18	1	1496
1	1050	1	5	8	42	1	483
1	1050	1	6	1	46	1	697
1	1050	1	6	2	4	2	640
1	1050	1	6	3	31	1	859
1	1050	1	6	4	27	1	379
1	1050	1	6	5	21	2	521
1	1050	1	6	6	17	1	330
1	1050	1	6	7	7	1	300
1	1050	1	6	8	40	2	265
1	1050	1	7	1	12	3	507
1	1050	1	7	2	15	2	304
1	1050	1	7	3	2	1	303
1	1050	1	7	4	30	2	260
1	1050	1	7	5	45	1	412
1	1050	1	7	6	19	1	597
1	1050	1	7	7	39	3	269
1	1050	1	7	8	34	3	494
1	1050	1	8	1	25	2	355
1	1050	1	8	2	36	3	677
1	1050	1	8	3	10	3	629
1	1050	1	8	4	3	3	318
1	1050	1	8	5	20	1	264
1	1050	1	8	6	47	3	504
1	1050	1	8	7	14	2	534
1	1050	1	8	8	38	2	919
1	1050	1	9	1	27	1	308
1	1050	1	9	2	5	1	357
1	1050	1	9	3	37	3	477
1	1050	1	9	4	35	2	332
1	1050	1	9	5	24	1	740
1	1050	1	9	6	43	2	617
1	1050	1	9	7	9	2	955
1	1050	1	9	8	16	2	431
1	1050	1	10	1	41	1	290
1	1050	1	10	2	31	1	346
1	1050	1	10	3	4	2	627
1	1050	1	10	4	48	2	694
1	1050	1	10	5	29	3	364
1	1050	1	10	6	11	2	422
1	1050	1	10	7	21	2	518
1	1050	1	10	8	17	1	1565
1	1050	1	11	1	23	2	295
1	1050	1	11	2	40	2	338
1	1050	1	11	3	46	1	278
1	1050	1	11	4	8	1	744
1	1050	1	11	5	28	1	2623
1	1050	1	11	6	1	3	1467
1	1050	1	11	7	18	1	750
1	1050	1	11	8	32	1	788
1	1050	1	12	1	6	1	492
1	1050	1	12	2	33	2	659
1	1050	1	12	3	26	3	459
1	1050	1	12	4	22	3	1348
1	1050	1	12	5	7	1	417
1	1050	1	12	6	42	1	488
1	1050	1	12	7	44	3	725
1	1050	1	12	8	13	3	587
1	1050	2	1	1	0	2	5589
1	1050	2	1	2	0	3	10083
1	1050	2	1	3	0	3	3253
1	1050	2	1	4	0	4	4455
1	1050	2	1	5	0	2	4601
1	1050	2	1	6	0	2	3766
1	1050	2	1	7	0	3	3988
1	1050	2	1	8	0	1	3395
1	1050	2	1	9	0	2	13205
1	1050	2	1	10	0	1	2375
1	1050	2	1	11	0	2	3498
1	1050	2	1	12	0	2	3338
1	1050	2	1	13	0	1	5298
1	1050	2	1	14	0	2	2269
1	1050	2	1	15	0	1	2005
1	1050	2	1	16	0	1	2649
1	1050	2	1	17	0	3	1931
1	1050	2	1	18	0	3	4050
1	1050	2	1	19	0	3	1605
1	1050	2	1	20	0	2	2897
1	1050	2	1	21	0	1	2202
1	1050	2	1	22	0	4	1638
1	1050	2	1	23	0	3	5329
1	1050	2	1	24	0	1	2466
1	1050	2	1	25	0	3	7713
1	1050	2	1	26	0	2	3587
1	1050	2	1	27	0	1	3154
1	1050	2	1	28	0	2	3807
1	1050	2	1	29	0	1	1371
1	1050	2	1	30	0	3	3977
1	1057	1	1	1	2	2	1036
1	1057	1	1	2	23	2	1209
1	1057	1	1	3	42	1	1296
1	1057	1	1	4	44	3	1075
1	1057	1	1	5	25	2	1085
1	1057	1	1	6	14	2	543
1	1057	1	1	7	36	3	724
1	1057	1	1	8	11	2	453
1	1057	1	2	1	6	1	859
1	1057	1	2	2	26	3	657
1	1057	1	2	3	17	1	611
1	1057	1	2	4	41	1	494
1	1057	1	2	5	31	1	464
1	1057	1	2	6	20	1	711
1	1057	1	2	7	8	1	591
1	1057	1	2	8	45	3	936
1	1057	1	3	1	35	2	222
1	1057	1	3	2	7	1	482
1	1057	1	3	3	5	1	448
1	1057	1	3	4	21	2	479
1	1057	1	3	5	38	2	428
1	1057	1	3	6	13	3	494
1	1057	1	3	7	30	2	733
1	1057	1	3	8	46	1	1520
1	1057	1	4	1	37	3	761
1	1057	1	4	2	12	3	3941
1	1057	1	4	3	28	1	564
1	1057	1	4	4	33	2	516
1	1057	1	4	5	24	3	65
1	1057	1	4	6	16	2	749
1	1057	1	4	7	3	3	1136
1	1057	1	4	8	48	1	714
1	1057	1	5	1	1	3	773
1	1057	1	5	2	22	3	412
1	1057	1	5	3	27	1	446
1	1057	1	5	4	47	1	1131
1	1057	1	5	5	39	3	486
1	1057	1	5	6	10	3	626
1	1057	1	5	7	15	3	474
1	1057	1	5	8	34	3	409
1	1057	1	6	1	29	3	298
1	1057	1	6	2	19	1	491
1	1057	1	6	3	4	2	1694
1	1057	1	6	4	43	3	585
1	1057	1	6	5	40	2	437
1	1057	1	6	6	32	1	503
