"","cond","subj","phase","block","trial","stim","resp","rt"
"1","noload",10,"prac",0,1,0,"A",4794
"2","noload",10,"prac",0,2,0,"A",1101
"3","noload",10,"prac",0,3,0,"B",561
"4","noload",10,"prac",0,4,0,"A",473
"5","noload",10,"prac",0,5,0,"A",515
"6","noload",10,"prac",0,6,0,"B",716
"7","noload",10,"prac",0,7,0,"B",542
"8","noload",10,"prac",0,8,0,"B",422
"9","noload",10,"prac",0,9,0,"A",466
"10","noload",10,"prac",0,10,0,"B",413
"11","noload",10,"exp",1,1,10,"B",1218
"12","noload",10,"exp",1,2,4,"B",834
"13","noload",10,"exp",1,3,2,"A",783
"14","noload",10,"exp",1,4,8,"B",542
"15","noload",10,"exp",1,5,6,"B",677
"16","noload",10,"exp",1,6,3,"A",680
"17","noload",10,"exp",1,7,7,"B",714
"18","noload",10,"exp",1,8,1,"A",619
"19","noload",10,"exp",1,9,9,"A",448
"20","noload",10,"exp",1,10,5,"A",523
"21","noload",10,"exp",2,1,2,"A",1006
"22","noload",10,"exp",2,2,5,"A",566
"23","noload",10,"exp",2,3,9,"A",445
"24","noload",10,"exp",2,4,8,"B",441
"25","noload",10,"exp",2,5,6,"B",469
"26","noload",10,"exp",2,6,3,"A",479
"27","noload",10,"exp",2,7,1,"A",554
"28","noload",10,"exp",2,8,4,"B",385
"29","noload",10,"exp",2,9,10,"B",558
"30","noload",10,"exp",2,10,7,"B",437
"31","noload",10,"exp",3,1,4,"B",641
"32","noload",10,"exp",3,2,2,"A",454
"33","noload",10,"exp",3,3,3,"A",481
"34","noload",10,"exp",3,4,5,"A",443
"35","noload",10,"exp",3,5,8,"B",470
"36","noload",10,"exp",3,6,10,"B",545
"37","noload",10,"exp",3,7,6,"B",473
"38","noload",10,"exp",3,8,1,"A",564
"39","noload",10,"exp",3,9,9,"A",411
"40","noload",10,"exp",3,10,7,"B",440
"41","noload",10,"exp",4,1,4,"B",547
"42","noload",10,"exp",4,2,8,"B",539
"43","noload",10,"exp",4,3,10,"B",499
"44","noload",10,"exp",4,4,5,"A",508
"45","noload",10,"exp",4,5,7,"B",406
"46","noload",10,"exp",4,6,2,"A",355
"47","noload",10,"exp",4,7,1,"A",369
"48","noload",10,"exp",4,8,6,"B",415
"49","noload",10,"exp",4,9,9,"A",396
"50","noload",10,"exp",4,10,3,"A",473
"51","noload",10,"exp",5,1,6,"B",946
"52","noload",10,"exp",5,2,3,"A",620
"53","noload",10,"exp",5,3,7,"B",609
"54","noload",10,"exp",5,4,1,"A",631
"55","noload",10,"exp",5,5,10,"B",428
"56","noload",10,"exp",5,6,2,"A",519
"57","noload",10,"exp",5,7,5,"A",512
"58","noload",10,"exp",5,8,8,"B",474
"59","noload",10,"exp",5,9,9,"A",676
"60","noload",10,"exp",5,10,4,"B",536
"61","noload",10,"exp",6,1,5,"A",623
"62","noload",10,"exp",6,2,7,"B",644
"63","noload",10,"exp",6,3,8,"B",553
"64","noload",10,"exp",6,4,6,"B",481
"65","noload",10,"exp",6,5,2,"A",586
"66","noload",10,"exp",6,6,4,"B",625
"67","noload",10,"exp",6,7,1,"A",486
"68","noload",10,"exp",6,8,3,"A",688
"69","noload",10,"exp",6,9,10,"B",723
"70","noload",10,"exp",6,10,9,"A",565
"71","noload",10,"exp",7,1,5,"A",668
"72","noload",10,"exp",7,2,4,"B",607
"73","noload",10,"exp",7,3,6,"B",517
"74","noload",10,"exp",7,4,8,"B",782
"75","noload",10,"exp",7,5,2,"A",477
"76","noload",10,"exp",7,6,7,"B",424
"77","noload",10,"exp",7,7,1,"A",580
"78","noload",10,"exp",7,8,9,"A",587
"79","noload",10,"exp",7,9,3,"A",530
"80","noload",10,"exp",7,10,10,"B",730
"81","noload",10,"exp",8,1,8,"B",566
"82","noload",10,"exp",8,2,6,"B",525
"83","noload",10,"exp",8,3,5,"A",438
"84","noload",10,"exp",8,4,1,"A",449
"85","noload",10,"exp",8,5,10,"B",493
"86","noload",10,"exp",8,6,9,"A",518
"87","noload",10,"exp",8,7,2,"A",575
"88","noload",10,"exp",8,8,7,"B",598
"89","noload",10,"exp",8,9,4,"B",604
"90","noload",10,"exp",8,10,3,"A",529
"91","noload",10,"exp",9,1,8,"B",570
"92","noload",10,"exp",9,2,2,"A",577
"93","noload",10,"exp",9,3,6,"B",456
"94","noload",10,"exp",9,4,4,"B",467
"95","noload",10,"exp",9,5,9,"A",430
"96","noload",10,"exp",9,6,3,"A",474
"97","noload",10,"exp",9,7,10,"B",453
"98","noload",10,"exp",9,8,7,"B",544
"99","noload",10,"exp",9,9,1,"A",552
"100","noload",10,"exp",9,10,5,"A",495
"101","noload",10,"exp",10,1,9,"A",571
"102","noload",10,"exp",10,2,7,"B",530
"103","noload",10,"exp",10,3,8,"B",699
"104","noload",10,"exp",10,4,10,"B",461
"105","noload",10,"exp",10,5,4,"B",408
"106","noload",10,"exp",10,6,6,"B",405
"107","noload",10,"exp",10,7,2,"A",482
"108","noload",10,"exp",10,8,1,"A",476
"109","noload",10,"exp",10,9,5,"A",438
"110","noload",10,"exp",10,10,3,"A",498
"111","noload",10,"exp",11,1,1,"A",700
"112","noload",10,"exp",11,2,6,"B",686
"113","noload",10,"exp",11,3,3,"A",513
"114","noload",10,"exp",11,4,5,"A",539
"115","noload",10,"exp",11,5,9,"A",515
"116","noload",10,"exp",11,6,4,"B",444
"117","noload",10,"exp",11,7,2,"A",471
"118","noload",10,"exp",11,8,8,"B",418
"119","noload",10,"exp",11,9,7,"B",478
"120","noload",10,"exp",11,10,10,"B",505
"121","noload",10,"exp",12,1,3,"A",888
"122","noload",10,"exp",12,2,2,"A",1060
"123","noload",10,"exp",12,3,7,"B",474
"124","noload",10,"exp",12,4,8,"B",660
"125","noload",10,"exp",12,5,9,"A",520
"126","noload",10,"exp",12,6,10,"B",449
"127","noload",10,"exp",12,7,4,"B",460
"128","noload",10,"exp",12,8,6,"B",551
"129","noload",10,"exp",12,9,1,"A",686
"130","noload",10,"exp",12,10,5,"A",704
"131","noload",12,"prac",0,1,0,"A",10718
"132","noload",12,"prac",0,2,0,"A",7538
"133","noload",12,"prac",0,3,0,"A",5334
"134","noload",12,"prac",0,4,0,"B",6087
"135","noload",12,"prac",0,5,0,"B",1804
"136","noload",12,"prac",0,6,0,"B",969
"137","noload",12,"prac",0,7,0,"B",1138
"138","noload",12,"prac",0,8,0,"A",885
"139","noload",12,"prac",0,9,0,"B",897
"140","noload",12,"prac",0,10,0,"A",701
"141","noload",12,"exp",1,1,3,"A",2475
"142","noload",12,"exp",1,2,6,"B",1025
"143","noload",12,"exp",1,3,4,"B",936
"144","noload",12,"exp",1,4,9,"A",851
"145","noload",12,"exp",1,5,10,"B",768
"146","noload",12,"exp",1,6,8,"B",784
"147","noload",12,"exp",1,7,5,"A",847
"148","noload",12,"exp",1,8,2,"A",1309
"149","noload",12,"exp",1,9,7,"B",890
"150","noload",12,"exp",1,10,1,"A",710
"151","noload",12,"exp",2,1,1,"A",1136
"152","noload",12,"exp",2,2,6,"B",1108
"153","noload",12,"exp",2,3,9,"B",1080
"154","noload",12,"exp",2,4,2,"A",1485
"155","noload",12,"exp",2,5,8,"B",1301
"156","noload",12,"exp",2,6,5,"A",1185
"157","noload",12,"exp",2,7,4,"B",1107
"158","noload",12,"exp",2,8,10,"B",1079
"159","noload",12,"exp",2,9,3,"A",733
"160","noload",12,"exp",2,10,7,"B",798
"161","noload",12,"exp",3,1,10,"B",1048
"162","noload",12,"exp",3,2,8,"B",782
"163","noload",12,"exp",3,3,5,"A",1998
"164","noload",12,"exp",3,4,4,"B",1187
"165","noload",12,"exp",3,5,6,"B",1637
"166","noload",12,"exp",3,6,2,"A",1351
"167","noload",12,"exp",3,7,1,"A",851
"168","noload",12,"exp",3,8,7,"B",704
"169","noload",12,"exp",3,9,3,"A",690
"170","noload",12,"exp",3,10,9,"A",756
"171","noload",12,"exp",4,1,10,"B",1275
"172","noload",12,"exp",4,2,9,"A",906
"173","noload",12,"exp",4,3,3,"A",8101
"174","noload",12,"exp",4,4,6,"B",2389
"175","noload",12,"exp",4,5,8,"B",3180
"176","noload",12,"exp",4,6,4,"B",4696
"177","noload",12,"exp",4,7,5,"A",1583
"178","noload",12,"exp",4,8,7,"B",2018
"179","noload",12,"exp",4,9,2,"A",2342
"180","noload",12,"exp",4,10,1,"A",2176
"181","noload",12,"exp",5,1,7,"B",4350
"182","noload",12,"exp",5,2,9,"A",4209
"183","noload",12,"exp",5,3,2,"A",4521
"184","noload",12,"exp",5,4,4,"A",7191
"185","noload",12,"exp",5,5,8,"B",3607
"186","noload",12,"exp",5,6,1,"A",2180
"187","noload",12,"exp",5,7,3,"A",1955
"188","noload",12,"exp",5,8,10,"B",3194
"189","noload",12,"exp",5,9,5,"A",1397
"190","noload",12,"exp",5,10,6,"B",1839
"191","noload",12,"exp",6,1,10,"B",2078
"192","noload",12,"exp",6,2,1,"A",1553
"193","noload",12,"exp",6,3,3,"A",2022
"194","noload",12,"exp",6,4,7,"B",4058
"195","noload",12,"exp",6,5,8,"B",3223
"196","noload",12,"exp",6,6,6,"B",3937
"197","noload",12,"exp",6,7,4,"A",2835
"198","noload",12,"exp",6,8,2,"B",4395
"199","noload",12,"exp",6,9,9,"B",5228
"200","noload",12,"exp",6,10,5,"A",2352
"201","noload",12,"exp",7,1,5,"A",2407
"202","noload",12,"exp",7,2,3,"A",2541
"203","noload",12,"exp",7,3,8,"B",5247
"204","noload",12,"exp",7,4,2,"A",3778
"205","noload",12,"exp",7,5,9,"B",4331
"206","noload",12,"exp",7,6,6,"B",2654
"207","noload",12,"exp",7,7,10,"B",2076
"208","noload",12,"exp",7,8,4,"A",2239
"209","noload",12,"exp",7,9,1,"A",1355
"210","noload",12,"exp",7,10,7,"B",6118
"211","noload",12,"exp",8,1,10,"B",2475
"212","noload",12,"exp",8,2,3,"A",3729
"213","noload",12,"exp",8,3,6,"B",2730
"214","noload",12,"exp",8,4,7,"B",4918
"215","noload",12,"exp",8,5,8,"B",3269
"216","noload",12,"exp",8,6,1,"A",1678
"217","noload",12,"exp",8,7,2,"A",3262
"218","noload",12,"exp",8,8,4,"A",1687
"219","noload",12,"exp",8,9,9,"B",6424
"220","noload",12,"exp",8,10,5,"A",4722
"221","noload",12,"exp",9,1,7,"B",6671
"222","noload",12,"exp",9,2,8,"B",4513
"223","noload",12,"exp",9,3,10,"B",2381
"224","noload",12,"exp",9,4,4,"A",3765
"225","noload",12,"exp",9,5,5,"A",1964
"226","noload",12,"exp",9,6,9,"B",4195
"227","noload",12,"exp",9,7,2,"A",5179
"228","noload",12,"exp",9,8,3,"A",5521
"229","noload",12,"exp",9,9,1,"A",1403
"230","noload",12,"exp",9,10,6,"B",2597
"231","noload",12,"exp",10,1,5,"A",1381
"232","noload",12,"exp",10,2,8,"B",4768
"233","noload",12,"exp",10,3,3,"A",2469
"234","noload",12,"exp",10,4,10,"B",2010
"235","noload",12,"exp",10,5,7,"B",2606
"236","noload",12,"exp",10,6,4,"A",3870
"237","noload",12,"exp",10,7,6,"B",3186
"238","noload",12,"exp",10,8,9,"B",3150
"239","noload",12,"exp",10,9,1,"A",2298
"240","noload",12,"exp",10,10,2,"A",4853
"241","noload",12,"exp",11,1,2,"A",5843
"242","noload",12,"exp",11,2,3,"A",3458
"243","noload",12,"exp",11,3,6,"B",2132
"244","noload",12,"exp",11,4,8,"B",3269
"245","noload",12,"exp",11,5,4,"A",4830
"246","noload",12,"exp",11,6,5,"A",1824
"247","noload",12,"exp",11,7,7,"B",3515
"248","noload",12,"exp",11,8,9,"B",4939
"249","noload",12,"exp",11,9,10,"B",1482
"250","noload",12,"exp",11,10,1,"A",1296
"251","noload",12,"exp",12,1,3,"A",3936
"252","noload",12,"exp",12,2,1,"A",1362
"253","noload",12,"exp",12,3,5,"A",1725
"254","noload",12,"exp",12,4,6,"B",1772
"255","noload",12,"exp",12,5,4,"A",1176
"256","noload",12,"exp",12,6,8,"B",1210
"257","noload",12,"exp",12,7,10,"B",1307
"258","noload",12,"exp",12,8,2,"B",2136
"259","noload",12,"exp",12,9,7,"B",5737
"260","noload",12,"exp",12,10,9,"B",3739
"261","noload",14,"prac",0,1,0,"A",1779
"262","noload",14,"prac",0,2,0,"A",3392
"263","noload",14,"prac",0,3,0,"B",645
"264","noload",14,"prac",0,4,0,"B",505
"265","noload",14,"prac",0,5,0,"B",547
"266","noload",14,"prac",0,6,0,"B",443
"267","noload",14,"prac",0,7,0,"A",711
"268","noload",14,"prac",0,8,0,"B",585
"269","noload",14,"prac",0,9,0,"A",432
"270","noload",14,"prac",0,10,0,"A",475
"271","noload",14,"exp",1,1,5,"A",1389
"272","noload",14,"exp",1,2,2,"A",1015
"273","noload",14,"exp",1,3,1,"A",607
"274","noload",14,"exp",1,4,7,"A",485
"275","noload",14,"exp",1,5,9,"A",798
"276","noload",14,"exp",1,6,4,"B",717
"277","noload",14,"exp",1,7,3,"A",687
"278","noload",14,"exp",1,8,8,"B",834
"279","noload",14,"exp",1,9,6,"B",688
"280","noload",14,"exp",1,10,10,"B",611
"281","noload",14,"exp",2,1,8,"B",866
"282","noload",14,"exp",2,2,4,"B",751
"283","noload",14,"exp",2,3,10,"B",511
"284","noload",14,"exp",2,4,9,"A",601
"285","noload",14,"exp",2,5,5,"A",703
"286","noload",14,"exp",2,6,2,"A",513
"287","noload",14,"exp",2,7,6,"B",506
"288","noload",14,"exp",2,8,7,"B",692
"289","noload",14,"exp",2,9,3,"A",823
"290","noload",14,"exp",2,10,1,"A",837
"291","noload",14,"exp",3,1,1,"A",665
"292","noload",14,"exp",3,2,8,"B",621
"293","noload",14,"exp",3,3,4,"B",690
"294","noload",14,"exp",3,4,7,"B",677
"295","noload",14,"exp",3,5,3,"A",585
"296","noload",14,"exp",3,6,10,"B",542
"297","noload",14,"exp",3,7,2,"A",678
"298","noload",14,"exp",3,8,5,"A",954
"299","noload",14,"exp",3,9,9,"A",484
"300","noload",14,"exp",3,10,6,"B",493
"301","noload",14,"exp",4,1,5,"A",685
"302","noload",14,"exp",4,2,4,"B",576
"303","noload",14,"exp",4,3,3,"A",727
"304","noload",14,"exp",4,4,9,"A",617
"305","noload",14,"exp",4,5,8,"B",606
"306","noload",14,"exp",4,6,1,"A",564
"307","noload",14,"exp",4,7,10,"B",635
"308","noload",14,"exp",4,8,2,"A",496
"309","noload",14,"exp",4,9,7,"B",618
"310","noload",14,"exp",4,10,6,"B",527
"311","noload",14,"exp",5,1,3,"A",711
"312","noload",14,"exp",5,2,8,"B",537
"313","noload",14,"exp",5,3,5,"A",946
"314","noload",14,"exp",5,4,2,"B",764
"315","noload",14,"exp",5,5,7,"A",812
"316","noload",14,"exp",5,6,4,"A",8459
"317","noload",14,"exp",5,7,1,"A",1983
"318","noload",14,"exp",5,8,10,"B",1460
"319","noload",14,"exp",5,9,6,"B",1420
"320","noload",14,"exp",5,10,9,"B",5142
"321","noload",14,"exp",6,1,7,"B",2867
"322","noload",14,"exp",6,2,3,"A",3530
"323","noload",14,"exp",6,3,10,"B",2346
"324","noload",14,"exp",6,4,9,"B",3139
"325","noload",14,"exp",6,5,2,"A",4112
"326","noload",14,"exp",6,6,5,"A",1995
"327","noload",14,"exp",6,7,1,"A",2017
"328","noload",14,"exp",6,8,8,"B",2725
"329","noload",14,"exp",6,9,4,"A",2273
"330","noload",14,"exp",6,10,6,"B",2173
"331","noload",14,"exp",7,1,5,"A",2537
"332","noload",14,"exp",7,2,9,"B",2843
"333","noload",14,"exp",7,3,6,"B",2035
"334","noload",14,"exp",7,4,10,"B",1655
"335","noload",14,"exp",7,5,4,"A",2393
"336","noload",14,"exp",7,6,3,"A",2656
"337","noload",14,"exp",7,7,7,"B",3902
"338","noload",14,"exp",7,8,1,"A",2369
"339","noload",14,"exp",7,9,8,"B",3497
"340","noload",14,"exp",7,10,2,"A",4330
"341","noload",14,"exp",8,1,2,"A",2155
"342","noload",14,"exp",8,2,4,"A",1995
"343","noload",14,"exp",8,3,8,"B",4560
"344","noload",14,"exp",8,4,7,"B",2267
"345","noload",14,"exp",8,5,5,"A",11031
"346","noload",14,"exp",8,6,1,"A",3105
"347","noload",14,"exp",8,7,6,"B",5440
"348","noload",14,"exp",8,8,3,"A",4220
"349","noload",14,"exp",8,9,9,"B",4580
"350","noload",14,"exp",8,10,10,"B",7823
"351","noload",14,"exp",9,1,7,"B",6536
"352","noload",14,"exp",9,2,9,"B",6222
"353","noload",14,"exp",9,3,3,"A",2608
"354","noload",14,"exp",9,4,5,"A",6288
"355","noload",14,"exp",9,5,10,"B",6111
"356","noload",14,"exp",9,6,1,"A",1909
"357","noload",14,"exp",9,7,6,"B",2413
"358","noload",14,"exp",9,8,2,"A",3348
"359","noload",14,"exp",9,9,8,"B",4314
"360","noload",14,"exp",9,10,4,"A",3118
"361","noload",14,"exp",10,1,7,"B",3666
"362","noload",14,"exp",10,2,8,"B",4748
"363","noload",14,"exp",10,3,6,"B",3506
"364","noload",14,"exp",10,4,5,"A",4785
"365","noload",14,"exp",10,5,4,"A",3509
"366","noload",14,"exp",10,6,10,"B",2582
"367","noload",14,"exp",10,7,9,"B",2823
"368","noload",14,"exp",10,8,3,"A",5055
"369","noload",14,"exp",10,9,1,"A",3994
"370","noload",14,"exp",10,10,2,"A",6314
"371","noload",14,"exp",11,1,9,"B",3791
"372","noload",14,"exp",11,2,7,"B",5654
"373","noload",14,"exp",11,3,10,"B",1947
"374","noload",14,"exp",11,4,5,"A",4370
"375","noload",14,"exp",11,5,6,"B",2725
"376","noload",14,"exp",11,6,4,"A",3551
"377","noload",14,"exp",11,7,3,"A",9102
"378","noload",14,"exp",11,8,2,"A",3899
"379","noload",14,"exp",11,9,8,"A",3038
"380","noload",14,"exp",11,10,1,"A",5311
"381","noload",14,"exp",12,1,2,"A",6862
"382","noload",14,"exp",12,2,1,"A",3178
"383","noload",14,"exp",12,3,10,"B",3430
"384","noload",14,"exp",12,4,4,"A",4025
"385","noload",14,"exp",12,5,6,"B",3224
"386","noload",14,"exp",12,6,3,"A",6882
"387","noload",14,"exp",12,7,8,"B",4141
"388","noload",14,"exp",12,8,9,"B",3222
"389","noload",14,"exp",12,9,7,"B",5297
"390","noload",14,"exp",12,10,5,"A",2019
"391","noload",16,"prac",0,1,0,"A",9586
"392","noload",16,"prac",0,2,0,"A",11774
"393","noload",16,"prac",0,3,0,"B",3229
"394","noload",16,"prac",0,4,0,"B",3352
"395","noload",16,"prac",0,5,0,"B",3982
"396","noload",16,"prac",0,6,0,"A",1662
"397","noload",16,"prac",0,7,0,"B",19965
"398","noload",16,"prac",0,8,0,"A",7327
"399","noload",16,"prac",0,9,0,"A",2747
"400","noload",16,"prac",0,10,0,"A",8326
"401","noload",16,"exp",1,1,3,"A",6055
"402","noload",16,"exp",1,2,8,"B",3373
"403","noload",16,"exp",1,3,4,"B",2898
"404","noload",16,"exp",1,4,2,"A",2039
"405","noload",16,"exp",1,5,9,"A",1850
"406","noload",16,"exp",1,6,10,"B",4132
"407","noload",16,"exp",1,7,6,"B",2734
"408","noload",16,"exp",1,8,5,"A",2184
"409","noload",16,"exp",1,9,1,"A",3062
"410","noload",16,"exp",1,10,7,"B",5269
"411","noload",16,"exp",2,1,2,"B",7216
"412","noload",16,"exp",2,2,8,"B",3183
"413","noload",16,"exp",2,3,9,"B",4123
"414","noload",16,"exp",2,4,5,"A",1558
"415","noload",16,"exp",2,5,1,"A",1675
"416","noload",16,"exp",2,6,6,"B",2220
"417","noload",16,"exp",2,7,4,"B",6119
"418","noload",16,"exp",2,8,7,"B",1182
"419","noload",16,"exp",2,9,10,"B",719
"420","noload",16,"exp",2,10,3,"A",1169
"421","noload",16,"exp",3,1,3,"A",2404
"422","noload",16,"exp",3,2,2,"A",1355
"423","noload",16,"exp",3,3,7,"B",1223
"424","noload",16,"exp",3,4,4,"B",791
"425","noload",16,"exp",3,5,5,"A",935
"426","noload",16,"exp",3,6,8,"B",737
"427","noload",16,"exp",3,7,9,"A",1010
"428","noload",16,"exp",3,8,1,"A",698
"429","noload",16,"exp",3,9,10,"B",669
"430","noload",16,"exp",3,10,6,"B",881
"431","noload",16,"exp",4,1,3,"A",1693
"432","noload",16,"exp",4,2,7,"B",1499
"433","noload",16,"exp",4,3,9,"A",1682
"434","noload",16,"exp",4,4,1,"A",1650
"435","noload",16,"exp",4,5,8,"B",1380
"436","noload",16,"exp",4,6,4,"B",959
"437","noload",16,"exp",4,7,6,"B",968
"438","noload",16,"exp",4,8,5,"A",1010
"439","noload",16,"exp",4,9,2,"A",986
"440","noload",16,"exp",4,10,10,"B",850
"441","noload",16,"exp",5,1,1,"A",2224
"442","noload",16,"exp",5,2,4,"B",989
"443","noload",16,"exp",5,3,8,"B",1317
"444","noload",16,"exp",5,4,6,"B",1074
"445","noload",16,"exp",5,5,5,"A",1543
"446","noload",16,"exp",5,6,3,"B",860
"447","noload",16,"exp",5,7,10,"B",1465
"448","noload",16,"exp",5,8,2,"A",1073
"449","noload",16,"exp",5,9,7,"B",1767
"450","noload",16,"exp",5,10,9,"A",1892
"451","noload",16,"exp",6,1,3,"A",1102
"452","noload",16,"exp",6,2,2,"A",963
"453","noload",16,"exp",6,3,10,"B",1180
"454","noload",16,"exp",6,4,6,"B",1342
"455","noload",16,"exp",6,5,4,"B",1082
"456","noload",16,"exp",6,6,5,"A",1007
"457","noload",16,"exp",6,7,9,"B",1015
"458","noload",16,"exp",6,8,7,"B",2239
"459","noload",16,"exp",6,9,1,"A",795
"460","noload",16,"exp",6,10,8,"B",906
"461","noload",16,"exp",7,1,9,"A",1970
"462","noload",16,"exp",7,2,4,"B",1000
"463","noload",16,"exp",7,3,3,"A",560
"464","noload",16,"exp",7,4,5,"A",1720
"465","noload",16,"exp",7,5,6,"B",1191
"466","noload",16,"exp",7,6,8,"B",1289
"467","noload",16,"exp",7,7,7,"B",822
"468","noload",16,"exp",7,8,2,"A",1573
"469","noload",16,"exp",7,9,10,"B",1450
"470","noload",16,"exp",7,10,1,"A",706
"471","noload",16,"exp",8,1,4,"B",1908
"472","noload",16,"exp",8,2,5,"A",988
"473","noload",16,"exp",8,3,8,"B",981
"474","noload",16,"exp",8,4,2,"A",990
"475","noload",16,"exp",8,5,3,"A",868
"476","noload",16,"exp",8,6,9,"A",818
"477","noload",16,"exp",8,7,6,"B",864
"478","noload",16,"exp",8,8,7,"B",1149
"479","noload",16,"exp",8,9,1,"A",1104
"480","noload",16,"exp",8,10,10,"B",852
"481","noload",16,"exp",9,1,4,"B",1407
"482","noload",16,"exp",9,2,3,"A",714
"483","noload",16,"exp",9,3,1,"A",939
"484","noload",16,"exp",9,4,5,"A",710
"485","noload",16,"exp",9,5,2,"A",1080
"486","noload",16,"exp",9,6,6,"B",1181
"487","noload",16,"exp",9,7,10,"B",959
"488","noload",16,"exp",9,8,9,"A",1433
"489","noload",16,"exp",9,9,7,"B",1106
"490","noload",16,"exp",9,10,8,"B",966
"491","noload",16,"exp",10,1,1,"A",974
"492","noload",16,"exp",10,2,8,"B",727
"493","noload",16,"exp",10,3,6,"B",1017
"494","noload",16,"exp",10,4,4,"B",768
"495","noload",16,"exp",10,5,3,"A",817
"496","noload",16,"exp",10,6,9,"A",3199
"497","noload",16,"exp",10,7,5,"A",619
"498","noload",16,"exp",10,8,2,"A",992
"499","noload",16,"exp",10,9,7,"B",937
"500","noload",16,"exp",10,10,10,"B",531
"501","noload",16,"exp",11,1,6,"B",2411
"502","noload",16,"exp",11,2,10,"B",834
"503","noload",16,"exp",11,3,4,"B",959
"504","noload",16,"exp",11,4,2,"B",2344
"505","noload",16,"exp",11,5,5,"A",994
"506","noload",16,"exp",11,6,8,"B",4074
"507","noload",16,"exp",11,7,1,"A",3575
"508","noload",16,"exp",11,8,3,"A",981
"509","noload",16,"exp",11,9,7,"B",1246
"510","noload",16,"exp",11,10,9,"A",685
"511","noload",16,"exp",12,1,10,"B",1377
"512","noload",16,"exp",12,2,2,"A",699
"513","noload",16,"exp",12,3,4,"B",622
"514","noload",16,"exp",12,4,5,"A",435
"515","noload",16,"exp",12,5,6,"B",735
"516","noload",16,"exp",12,6,9,"A",752
"517","noload",16,"exp",12,7,3,"A",1425
"518","noload",16,"exp",12,8,7,"B",763
"519","noload",16,"exp",12,9,8,"B",651
"520","noload",16,"exp",12,10,1,"B",591
"521","noload",18,"prac",0,1,0,"A",4456
"522","noload",18,"prac",0,2,0,"B",1480
"523","noload",18,"prac",0,3,0,"B",799
"524","noload",18,"prac",0,4,0,"A",846
"525","noload",18,"prac",0,5,0,"A",571
"526","noload",18,"prac",0,6,0,"B",434
"527","noload",18,"prac",0,7,0,"B",542
"528","noload",18,"prac",0,8,0,"A",870
"529","noload",18,"prac",0,9,0,"B",531
"530","noload",18,"prac",0,10,0,"A",475
"531","noload",18,"exp",1,1,3,"A",5895
"532","noload",18,"exp",1,2,5,"A",1460
"533","noload",18,"exp",1,3,6,"B",956
"534","noload",18,"exp",1,4,2,"A",821
"535","noload",18,"exp",1,5,1,"A",1492
"536","noload",18,"exp",1,6,4,"B",939
"537","noload",18,"exp",1,7,10,"B",917
"538","noload",18,"exp",1,8,9,"A",1007
"539","noload",18,"exp",1,9,7,"B",759
"540","noload",18,"exp",1,10,8,"B",1112
"541","noload",18,"exp",2,1,5,"A",2670
"542","noload",18,"exp",2,2,10,"B",1372
"543","noload",18,"exp",2,3,4,"B",727
"544","noload",18,"exp",2,4,6,"B",777
"545","noload",18,"exp",2,5,1,"A",793
"546","noload",18,"exp",2,6,8,"B",680
"547","noload",18,"exp",2,7,3,"A",1051
"548","noload",18,"exp",2,8,2,"A",1138
"549","noload",18,"exp",2,9,7,"B",1301
"550","noload",18,"exp",2,10,9,"A",963
"551","noload",18,"exp",3,1,5,"A",2205
"552","noload",18,"exp",3,2,7,"B",699
"553","noload",18,"exp",3,3,2,"A",829
"554","noload",18,"exp",3,4,9,"A",859
"555","noload",18,"exp",3,5,4,"B",760
"556","noload",18,"exp",3,6,8,"B",888
"557","noload",18,"exp",3,7,6,"B",837
"558","noload",18,"exp",3,8,1,"A",849
"559","noload",18,"exp",3,9,3,"A",862
"560","noload",18,"exp",3,10,10,"B",667
"561","noload",18,"exp",4,1,6,"B",742
"562","noload",18,"exp",4,2,1,"A",599
"563","noload",18,"exp",4,3,9,"A",749
"564","noload",18,"exp",4,4,10,"B",797
"565","noload",18,"exp",4,5,3,"A",812
"566","noload",18,"exp",4,6,7,"B",1531
"567","noload",18,"exp",4,7,4,"B",7840
"568","noload",18,"exp",4,8,2,"B",2426
"569","noload",18,"exp",4,9,5,"A",1152
"570","noload",18,"exp",4,10,8,"B",2978
"571","noload",18,"exp",5,1,1,"A",1994
"572","noload",18,"exp",5,2,7,"B",1280
"573","noload",18,"exp",5,3,9,"B",2638
"574","noload",18,"exp",5,4,8,"B",893
"575","noload",18,"exp",5,5,6,"B",1049
"576","noload",18,"exp",5,6,2,"B",559
"577","noload",18,"exp",5,7,3,"A",855
"578","noload",18,"exp",5,8,4,"A",756
"579","noload",18,"exp",5,9,10,"B",821
"580","noload",18,"exp",5,10,5,"A",1075
"581","noload",18,"exp",6,1,2,"B",1309
"582","noload",18,"exp",6,2,7,"A",810
"583","noload",18,"exp",6,3,5,"A",665
"584","noload",18,"exp",6,4,6,"B",684
"585","noload",18,"exp",6,5,8,"B",799
"586","noload",18,"exp",6,6,1,"A",798
"587","noload",18,"exp",6,7,3,"A",829
"588","noload",18,"exp",6,8,4,"A",875
"589","noload",18,"exp",6,9,10,"B",791
"590","noload",18,"exp",6,10,9,"B",1287
"591","noload",18,"exp",7,1,9,"B",1582
"592","noload",18,"exp",7,2,10,"B",626
"593","noload",18,"exp",7,3,7,"A",822
"594","noload",18,"exp",7,4,2,"B",917
"595","noload",18,"exp",7,5,3,"A",768
"596","noload",18,"exp",7,6,6,"B",960
"597","noload",18,"exp",7,7,8,"B",714
"598","noload",18,"exp",7,8,1,"A",811
"599","noload",18,"exp",7,9,5,"A",3610
"600","noload",18,"exp",7,10,4,"A",824
"601","noload",18,"exp",8,1,10,"B",858
"602","noload",18,"exp",8,2,2,"B",648
"603","noload",18,"exp",8,3,5,"A",572
"604","noload",18,"exp",8,4,7,"A",755
"605","noload",18,"exp",8,5,1,"A",756
"606","noload",18,"exp",8,6,8,"B",1125
"607","noload",18,"exp",8,7,4,"A",761
"608","noload",18,"exp",8,8,3,"A",601
"609","noload",18,"exp",8,9,6,"B",703
"610","noload",18,"exp",8,10,9,"B",1633
"611","noload",18,"exp",9,1,9,"B",1969
"612","noload",18,"exp",9,2,4,"A",919
"613","noload",18,"exp",9,3,1,"A",2738
"614","noload",18,"exp",9,4,2,"B",2270
"615","noload",18,"exp",9,5,5,"A",666
"616","noload",18,"exp",9,6,10,"B",589
"617","noload",18,"exp",9,7,3,"A",868
"618","noload",18,"exp",9,8,8,"B",1695
"619","noload",18,"exp",9,9,6,"B",719
"620","noload",18,"exp",9,10,7,"A",545
"621","noload",18,"exp",10,1,4,"A",2088
"622","noload",18,"exp",10,2,3,"A",907
"623","noload",18,"exp",10,3,1,"A",934
"624","noload",18,"exp",10,4,2,"B",976
"625","noload",18,"exp",10,5,9,"B",794
"626","noload",18,"exp",10,6,10,"B",521
"627","noload",18,"exp",10,7,7,"A",1522
"628","noload",18,"exp",10,8,5,"A",1847
"629","noload",18,"exp",10,9,6,"B",1843
"630","noload",18,"exp",10,10,8,"B",1741
"631","noload",18,"exp",11,1,2,"B",1056
"632","noload",18,"exp",11,2,7,"A",1223
"633","noload",18,"exp",11,3,10,"B",1062
"634","noload",18,"exp",11,4,1,"A",1340
"635","noload",18,"exp",11,5,9,"B",872
"636","noload",18,"exp",11,6,3,"A",1013
"637","noload",18,"exp",11,7,8,"B",988
"638","noload",18,"exp",11,8,4,"A",789
"639","noload",18,"exp",11,9,5,"A",757
"640","noload",18,"exp",11,10,6,"B",805
"641","noload",18,"exp",12,1,7,"A",2028
"642","noload",18,"exp",12,2,6,"B",928
"643","noload",18,"exp",12,3,2,"B",682
"644","noload",18,"exp",12,4,3,"A",717
"645","noload",18,"exp",12,5,9,"B",783
"646","noload",18,"exp",12,6,8,"B",607
"647","noload",18,"exp",12,7,4,"A",661
"648","noload",18,"exp",12,8,1,"A",601
"649","noload",18,"exp",12,9,5,"A",527
"650","noload",18,"exp",12,10,10,"B",712
"651","noload",2,"prac",0,1,0,"A",3128
"652","noload",2,"prac",0,2,0,"A",2326
"653","noload",2,"prac",0,3,0,"B",3392
"654","noload",2,"prac",0,4,0,"B",1045
"655","noload",2,"prac",0,5,0,"A",1179
"656","noload",2,"prac",0,6,0,"A",941
"657","noload",2,"prac",0,7,0,"B",1255
"658","noload",2,"prac",0,8,0,"B",1270
"659","noload",2,"prac",0,9,0,"B",1013
"660","noload",2,"prac",0,10,0,"A",605
"661","noload",2,"exp",1,1,2,"A",1840
"662","noload",2,"exp",1,2,4,"B",1963
"663","noload",2,"exp",1,3,10,"B",914
"664","noload",2,"exp",1,4,9,"A",1116
"665","noload",2,"exp",1,5,5,"A",1184
"666","noload",2,"exp",1,6,6,"B",834
"667","noload",2,"exp",1,7,8,"B",768
"668","noload",2,"exp",1,8,7,"B",768
"669","noload",2,"exp",1,9,3,"A",784
"670","noload",2,"exp",1,10,1,"A",880
"671","noload",2,"exp",2,1,5,"A",1409
"672","noload",2,"exp",2,2,7,"B",683
"673","noload",2,"exp",2,3,8,"B",622
"674","noload",2,"exp",2,4,2,"A",803
"675","noload",2,"exp",2,5,6,"B",706
"676","noload",2,"exp",2,6,3,"A",757
"677","noload",2,"exp",2,7,4,"B",533
"678","noload",2,"exp",2,8,1,"B",558
"679","noload",2,"exp",2,9,9,"A",1461
"680","noload",2,"exp",2,10,10,"B",797
"681","noload",2,"exp",3,1,2,"A",874
"682","noload",2,"exp",3,2,4,"B",807
"683","noload",2,"exp",3,3,1,"A",678
"684","noload",2,"exp",3,4,5,"A",1194
"685","noload",2,"exp",3,5,10,"B",939
"686","noload",2,"exp",3,6,7,"B",694
"687","noload",2,"exp",3,7,8,"B",569
"688","noload",2,"exp",3,8,3,"A",848
"689","noload",2,"exp",3,9,6,"B",700
"690","noload",2,"exp",3,10,9,"A",846
"691","noload",2,"exp",4,1,9,"A",926
"692","noload",2,"exp",4,2,10,"B",713
"693","noload",2,"exp",4,3,6,"B",683
"694","noload",2,"exp",4,4,7,"B",605
"695","noload",2,"exp",4,5,5,"A",852
"696","noload",2,"exp",4,6,3,"A",817
"697","noload",2,"exp",4,7,2,"A",831
"698","noload",2,"exp",4,8,8,"B",765
"699","noload",2,"exp",4,9,4,"B",621
"700","noload",2,"exp",4,10,1,"A",658
"701","noload",2,"exp",5,1,7,"B",772
"702","noload",2,"exp",5,2,8,"B",708
"703","noload",2,"exp",5,3,2,"A",806
"704","noload",2,"exp",5,4,9,"A",821
"705","noload",2,"exp",5,5,6,"B",739
"706","noload",2,"exp",5,6,4,"B",884
"707","noload",2,"exp",5,7,10,"B",608
"708","noload",2,"exp",5,8,3,"A",838
"709","noload",2,"exp",5,9,1,"A",756
"710","noload",2,"exp",5,10,5,"A",805
"711","noload",2,"exp",6,1,10,"B",695
"712","noload",2,"exp",6,2,1,"A",618
"713","noload",2,"exp",6,3,5,"A",879
"714","noload",2,"exp",6,4,2,"A",1115
"715","noload",2,"exp",6,5,3,"A",799
"716","noload",2,"exp",6,6,9,"A",750
"717","noload",2,"exp",6,7,7,"B",767
"718","noload",2,"exp",6,8,6,"B",655
"719","noload",2,"exp",6,9,8,"B",691
"720","noload",2,"exp",6,10,4,"B",550
"721","noload",2,"exp",7,1,3,"A",838
"722","noload",2,"exp",7,2,10,"B",1011
"723","noload",2,"exp",7,3,2,"A",778
"724","noload",2,"exp",7,4,1,"A",1019
"725","noload",2,"exp",7,5,4,"B",658
"726","noload",2,"exp",7,6,7,"B",630
"727","noload",2,"exp",7,7,6,"B",555
"728","noload",2,"exp",7,8,9,"A",739
"729","noload",2,"exp",7,9,8,"B",756
"730","noload",2,"exp",7,10,5,"A",821
"731","noload",2,"exp",8,1,4,"B",834
"732","noload",2,"exp",8,2,6,"B",592
"733","noload",2,"exp",8,3,5,"A",790
"734","noload",2,"exp",8,4,1,"A",870
"735","noload",2,"exp",8,5,3,"A",658
"736","noload",2,"exp",8,6,8,"B",775
"737","noload",2,"exp",8,7,9,"A",871
"738","noload",2,"exp",8,8,2,"A",691
"739","noload",2,"exp",8,9,7,"B",694
"740","noload",2,"exp",8,10,10,"B",936
"741","noload",2,"exp",9,1,8,"B",835
"742","noload",2,"exp",9,2,2,"A",721
"743","noload",2,"exp",9,3,7,"B",674
"744","noload",2,"exp",9,4,10,"B",518
"745","noload",2,"exp",9,5,1,"A",495
"746","noload",2,"exp",9,6,5,"A",601
"747","noload",2,"exp",9,7,4,"B",638
"748","noload",2,"exp",9,8,9,"A",643
"749","noload",2,"exp",9,9,3,"A",472
"750","noload",2,"exp",9,10,6,"B",675
"751","noload",2,"exp",10,1,10,"B",683
"752","noload",2,"exp",10,2,8,"B",638
"753","noload",2,"exp",10,3,5,"A",851
"754","noload",2,"exp",10,4,3,"A",640
"755","noload",2,"exp",10,5,2,"A",613
"756","noload",2,"exp",10,6,1,"A",555
"757","noload",2,"exp",10,7,4,"B",770
"758","noload",2,"exp",10,8,6,"B",578
"759","noload",2,"exp",10,9,7,"B",888
"760","noload",2,"exp",10,10,9,"A",740
"761","noload",2,"exp",11,1,4,"B",812
"762","noload",2,"exp",11,2,8,"B",619
"763","noload",2,"exp",11,3,7,"B",608
"764","noload",2,"exp",11,4,2,"A",694
"765","noload",2,"exp",11,5,3,"A",633
"766","noload",2,"exp",11,6,10,"B",669
"767","noload",2,"exp",11,7,1,"A",673
"768","noload",2,"exp",11,8,5,"A",773
"769","noload",2,"exp",11,9,9,"A",469
"770","noload",2,"exp",11,10,6,"B",543
"771","noload",2,"exp",12,1,8,"B",720
"772","noload",2,"exp",12,2,3,"A",802
"773","noload",2,"exp",12,3,7,"B",593
"774","noload",2,"exp",12,4,10,"B",648
"775","noload",2,"exp",12,5,6,"B",492
"776","noload",2,"exp",12,6,1,"A",869
"777","noload",2,"exp",12,7,5,"A",1057
"778","noload",2,"exp",12,8,9,"A",456
"779","noload",2,"exp",12,9,2,"A",643
"780","noload",2,"exp",12,10,4,"B",744
"781","noload",20,"prac",0,1,0,"A",5718
"782","noload",20,"prac",0,2,0,"A",9064
"783","noload",20,"prac",0,3,0,"A",855
"784","noload",20,"prac",0,4,0,"A",6868
"785","noload",20,"prac",0,5,0,"A",13167
"786","noload",20,"prac",0,6,0,"A",734
"787","noload",20,"prac",0,7,0,"B",22399
"788","noload",20,"prac",0,8,0,"B",2076
"789","noload",20,"prac",0,9,0,"B",2814
"790","noload",20,"prac",0,10,0,"B",647
"791","noload",20,"exp",1,1,3,"A",15820
"792","noload",20,"exp",1,2,7,"A",2847
"793","noload",20,"exp",1,3,1,"A",4439
"794","noload",20,"exp",1,4,4,"A",5447
"795","noload",20,"exp",1,5,6,"B",6420
"796","noload",20,"exp",1,6,9,"B",3598
"797","noload",20,"exp",1,7,2,"A",7403
"798","noload",20,"exp",1,8,5,"A",4515
"799","noload",20,"exp",1,9,10,"B",4992
"800","noload",20,"exp",1,10,8,"B",3293
"801","noload",20,"exp",2,1,8,"B",4748
"802","noload",20,"exp",2,2,1,"A",1921
"803","noload",20,"exp",2,3,3,"A",1514
"804","noload",20,"exp",2,4,9,"B",4144
"805","noload",20,"exp",2,5,5,"A",3193
"806","noload",20,"exp",2,6,2,"A",4629
"807","noload",20,"exp",2,7,6,"B",2510
"808","noload",20,"exp",2,8,7,"B",2737
"809","noload",20,"exp",2,9,10,"B",1821
"810","noload",20,"exp",2,10,4,"A",2249
"811","noload",20,"exp",3,1,5,"A",1770
"812","noload",20,"exp",3,2,6,"B",2648
"813","noload",20,"exp",3,3,1,"A",1687
"814","noload",20,"exp",3,4,2,"A",6134
"815","noload",20,"exp",3,5,8,"A",2970
"816","noload",20,"exp",3,6,4,"A",1582
"817","noload",20,"exp",3,7,3,"A",3937
"818","noload",20,"exp",3,8,10,"B",2835
"819","noload",20,"exp",3,9,9,"B",5659
"820","noload",20,"exp",3,10,7,"B",4720
"821","noload",20,"exp",4,1,4,"A",9641
"822","noload",20,"exp",4,2,2,"A",2932
"823","noload",20,"exp",4,3,3,"A",3545
"824","noload",20,"exp",4,4,9,"B",5945
"825","noload",20,"exp",4,5,10,"B",5588
"826","noload",20,"exp",4,6,6,"B",1820
"827","noload",20,"exp",4,7,5,"A",2103
"828","noload",20,"exp",4,8,8,"B",5096
"829","noload",20,"exp",4,9,7,"B",4705
"830","noload",20,"exp",4,10,1,"A",2216
"831","noload",20,"exp",5,1,10,"B",1983
"832","noload",20,"exp",5,2,7,"B",4245
"833","noload",20,"exp",5,3,6,"B",2219
"834","noload",20,"exp",5,4,4,"A",3673
"835","noload",20,"exp",5,5,5,"A",2052
"836","noload",20,"exp",5,6,8,"A",2535
"837","noload",20,"exp",5,7,1,"A",2762
"838","noload",20,"exp",5,8,2,"A",2900
"839","noload",20,"exp",5,9,9,"B",7162
"840","noload",20,"exp",5,10,3,"A",6859
"841","noload",20,"exp",6,1,5,"A",3803
"842","noload",20,"exp",6,2,2,"A",2641
"843","noload",20,"exp",6,3,6,"B",2224
"844","noload",20,"exp",6,4,10,"B",2013
"845","noload",20,"exp",6,5,7,"B",3712
"846","noload",20,"exp",6,6,3,"A",2474
"847","noload",20,"exp",6,7,9,"B",1919
"848","noload",20,"exp",6,8,8,"B",4727
"849","noload",20,"exp",6,9,4,"A",3389
"850","noload",20,"exp",6,10,1,"A",1777
"851","noload",20,"exp",7,1,6,"B",2184
"852","noload",20,"exp",7,2,10,"B",2422
"853","noload",20,"exp",7,3,7,"B",3709
"854","noload",20,"exp",7,4,5,"A",1925
"855","noload",20,"exp",7,5,1,"A",1325
"856","noload",20,"exp",7,6,9,"B",4986
"857","noload",20,"exp",7,7,3,"A",3767
"858","noload",20,"exp",7,8,2,"A",5518
"859","noload",20,"exp",7,9,4,"A",2505
"860","noload",20,"exp",7,10,8,"B",1868
"861","noload",20,"exp",8,1,2,"A",2448
"862","noload",20,"exp",8,2,5,"A",1797
"863","noload",20,"exp",8,3,8,"B",4353
"864","noload",20,"exp",8,4,10,"B",2852
"865","noload",20,"exp",8,5,3,"A",3323
"866","noload",20,"exp",8,6,6,"B",3330
"867","noload",20,"exp",8,7,4,"A",2665
"868","noload",20,"exp",8,8,1,"A",3015
"869","noload",20,"exp",8,9,9,"B",4201
"870","noload",20,"exp",8,10,7,"B",2977
"871","noload",20,"exp",9,1,3,"A",2159
"872","noload",20,"exp",9,2,7,"B",2383
"873","noload",20,"exp",9,3,6,"B",1991
"874","noload",20,"exp",9,4,5,"A",1532
"875","noload",20,"exp",9,5,9,"B",4690
"876","noload",20,"exp",9,6,10,"B",2489
"877","noload",20,"exp",9,7,1,"A",2092
"878","noload",20,"exp",9,8,2,"A",3213
"879","noload",20,"exp",9,9,4,"A",3000
"880","noload",20,"exp",9,10,8,"B",3227
"881","noload",20,"exp",10,1,4,"A",3665
"882","noload",20,"exp",10,2,2,"A",4091
"883","noload",20,"exp",10,3,3,"A",4055
"884","noload",20,"exp",10,4,10,"B",4597
"885","noload",20,"exp",10,5,1,"A",1583
"886","noload",20,"exp",10,6,7,"B",2499
"887","noload",20,"exp",10,7,6,"B",1895
"888","noload",20,"exp",10,8,9,"B",5008
"889","noload",20,"exp",10,9,8,"B",4268
"890","noload",20,"exp",10,10,5,"A",1538
"891","noload",20,"exp",11,1,9,"B",2958
"892","noload",20,"exp",11,2,6,"B",3441
"893","noload",20,"exp",11,3,8,"B",2164
"894","noload",20,"exp",11,4,2,"A",3412
"895","noload",20,"exp",11,5,1,"A",2088
"896","noload",20,"exp",11,6,3,"A",2730
"897","noload",20,"exp",11,7,4,"A",3350
"898","noload",20,"exp",11,8,7,"B",8059
"899","noload",20,"exp",11,9,10,"B",3180
"900","noload",20,"exp",11,10,5,"A",2953
"901","noload",20,"exp",12,1,8,"B",2810
"902","noload",20,"exp",12,2,1,"A",2291
"903","noload",20,"exp",12,3,3,"A",2126
"904","noload",20,"exp",12,4,9,"B",3326
"905","noload",20,"exp",12,5,5,"A",1637
"906","noload",20,"exp",12,6,2,"A",2023
"907","noload",20,"exp",12,7,4,"A",3436
"908","noload",20,"exp",12,8,6,"B",1901
"909","noload",20,"exp",12,9,10,"B",1750
"910","noload",20,"exp",12,10,7,"B",1844
"911","noload",22,"prac",0,1,0,"B",2038
"912","noload",22,"prac",0,2,0,"B",1434
"913","noload",22,"prac",0,3,0,"A",691
"914","noload",22,"prac",0,4,0,"A",438
"915","noload",22,"prac",0,5,0,"B",418
"916","noload",22,"prac",0,6,0,"A",366
"917","noload",22,"prac",0,7,0,"B",380
"918","noload",22,"prac",0,8,0,"A",330
"919","noload",22,"prac",0,9,0,"A",378
"920","noload",22,"prac",0,10,0,"B",376
"921","noload",22,"exp",1,1,6,"B",1702
"922","noload",22,"exp",1,2,5,"A",694
"923","noload",22,"exp",1,3,4,"B",617
"924","noload",22,"exp",1,4,9,"A",430
"925","noload",22,"exp",1,5,8,"B",426
"926","noload",22,"exp",1,6,1,"A",359
"927","noload",22,"exp",1,7,10,"B",613
"928","noload",22,"exp",1,8,2,"A",443
"929","noload",22,"exp",1,9,7,"B",455
"930","noload",22,"exp",1,10,3,"A",338
"931","noload",22,"exp",2,1,7,"B",1475
"932","noload",22,"exp",2,2,3,"A",570
"933","noload",22,"exp",2,3,6,"B",545
"934","noload",22,"exp",2,4,5,"A",426
"935","noload",22,"exp",2,5,10,"B",485
"936","noload",22,"exp",2,6,2,"A",335
"937","noload",22,"exp",2,7,4,"B",430
"938","noload",22,"exp",2,8,1,"A",298
"939","noload",22,"exp",2,9,8,"B",475
"940","noload",22,"exp",2,10,9,"A",405
"941","noload",22,"exp",3,1,5,"A",857
"942","noload",22,"exp",3,2,1,"A",390
"943","noload",22,"exp",3,3,8,"A",467
"944","noload",22,"exp",3,4,6,"B",1118
"945","noload",22,"exp",3,5,9,"A",802
"946","noload",22,"exp",3,6,2,"A",609
"947","noload",22,"exp",3,7,7,"B",583
"948","noload",22,"exp",3,8,3,"A",477
"949","noload",22,"exp",3,9,4,"B",456
"950","noload",22,"exp",3,10,10,"B",419
"951","noload",22,"exp",4,1,10,"B",785
"952","noload",22,"exp",4,2,1,"A",416
"953","noload",22,"exp",4,3,6,"B",572
"954","noload",22,"exp",4,4,7,"B",466
"955","noload",22,"exp",4,5,8,"B",605
"956","noload",22,"exp",4,6,2,"A",483
"957","noload",22,"exp",4,7,3,"A",605
"958","noload",22,"exp",4,8,4,"B",467
"959","noload",22,"exp",4,9,9,"A",365
"960","noload",22,"exp",4,10,5,"A",459
"961","noload",22,"exp",5,1,7,"B",730
"962","noload",22,"exp",5,2,3,"A",491
"963","noload",22,"exp",5,3,5,"A",437
"964","noload",22,"exp",5,4,2,"A",337
"965","noload",22,"exp",5,5,1,"A",288
"966","noload",22,"exp",5,6,10,"B",417
"967","noload",22,"exp",5,7,9,"A",301
"968","noload",22,"exp",5,8,8,"B",382
"969","noload",22,"exp",5,9,6,"B",411
"970","noload",22,"exp",5,10,4,"B",408
"971","noload",22,"exp",6,1,6,"B",887
"972","noload",22,"exp",6,2,1,"A",420
"973","noload",22,"exp",6,3,10,"B",432
"974","noload",22,"exp",6,4,4,"B",395
"975","noload",22,"exp",6,5,8,"B",328
"976","noload",22,"exp",6,6,7,"B",344
"977","noload",22,"exp",6,7,9,"A",311
"978","noload",22,"exp",6,8,5,"A",535
"979","noload",22,"exp",6,9,3,"A",479
"980","noload",22,"exp",6,10,2,"A",378
"981","noload",22,"exp",7,1,3,"A",720
"982","noload",22,"exp",7,2,5,"A",466
"983","noload",22,"exp",7,3,8,"B",749
"984","noload",22,"exp",7,4,6,"B",541
"985","noload",22,"exp",7,5,1,"A",582
"986","noload",22,"exp",7,6,10,"B",556
"987","noload",22,"exp",7,7,9,"A",468
"988","noload",22,"exp",7,8,2,"A",446
"989","noload",22,"exp",7,9,7,"B",506
"990","noload",22,"exp",7,10,4,"B",499
"991","noload",22,"exp",8,1,2,"A",595
"992","noload",22,"exp",8,2,10,"B",521
"993","noload",22,"exp",8,3,5,"A",370
"994","noload",22,"exp",8,4,1,"A",464
"995","noload",22,"exp",8,5,4,"B",522
"996","noload",22,"exp",8,6,9,"A",515
"997","noload",22,"exp",8,7,3,"A",556
"998","noload",22,"exp",8,8,6,"B",483
"999","noload",22,"exp",8,9,7,"B",701
"1000","noload",22,"exp",8,10,8,"B",512
"1001","noload",22,"exp",9,1,8,"B",954
"1002","noload",22,"exp",9,2,7,"B",532
"1003","noload",22,"exp",9,3,1,"A",652
"1004","noload",22,"exp",9,4,9,"A",336
"1005","noload",22,"exp",9,5,3,"A",335
"1006","noload",22,"exp",9,6,5,"A",446
"1007","noload",22,"exp",9,7,10,"B",362
"1008","noload",22,"exp",9,8,6,"B",569
"1009","noload",22,"exp",9,9,2,"A",496
"1010","noload",22,"exp",9,10,4,"B",378
"1011","noload",22,"exp",10,1,7,"B",672
"1012","noload",22,"exp",10,2,8,"B",468
"1013","noload",22,"exp",10,3,2,"A",494
"1014","noload",22,"exp",10,4,1,"A",408
"1015","noload",22,"exp",10,5,9,"A",388
"1016","noload",22,"exp",10,6,3,"A",337
"1017","noload",22,"exp",10,7,4,"B",449
"1018","noload",22,"exp",10,8,10,"B",444
"1019","noload",22,"exp",10,9,5,"A",471
"1020","noload",22,"exp",10,10,6,"B",402
"1021","noload",22,"exp",11,1,2,"A",693
"1022","noload",22,"exp",11,2,1,"A",488
"1023","noload",22,"exp",11,3,3,"A",370
"1024","noload",22,"exp",11,4,10,"B",448
"1025","noload",22,"exp",11,5,6,"B",379
"1026","noload",22,"exp",11,6,9,"A",329
"1027","noload",22,"exp",11,7,4,"A",425
"1028","noload",22,"exp",11,8,7,"B",549
"1029","noload",22,"exp",11,9,8,"B",380
"1030","noload",22,"exp",11,10,5,"A",411
"1031","noload",22,"exp",12,1,5,"A",639
"1032","noload",22,"exp",12,2,2,"A",484
"1033","noload",22,"exp",12,3,7,"B",606
"1034","noload",22,"exp",12,4,1,"A",643
"1035","noload",22,"exp",12,5,10,"B",840
"1036","noload",22,"exp",12,6,9,"A",565
"1037","noload",22,"exp",12,7,3,"A",636
"1038","noload",22,"exp",12,8,6,"B",721
"1039","noload",22,"exp",12,9,4,"B",995
"1040","noload",22,"exp",12,10,8,"B",635
"1041","noload",24,"prac",0,1,0,"A",14019
"1042","noload",24,"prac",0,2,0,"B",52178
"1043","noload",24,"prac",0,3,0,"A",944
"1044","noload",24,"prac",0,4,0,"B",842
"1045","noload",24,"prac",0,5,0,"B",648
"1046","noload",24,"prac",0,6,0,"B",684
"1047","noload",24,"prac",0,7,0,"B",751
"1048","noload",24,"prac",0,8,0,"A",736
"1049","noload",24,"prac",0,9,0,"A",657
"1050","noload",24,"prac",0,10,0,"A",693
"1051","noload",24,"exp",1,1,5,"A",2863
"1052","noload",24,"exp",1,2,10,"B",1222
"1053","noload",24,"exp",1,3,9,"A",949
"1054","noload",24,"exp",1,4,4,"B",927
"1055","noload",24,"exp",1,5,1,"A",809
"1056","noload",24,"exp",1,6,3,"A",887
"1057","noload",24,"exp",1,7,8,"B",1074
"1058","noload",24,"exp",1,8,7,"B",1015
"1059","noload",24,"exp",1,9,2,"A",749
"1060","noload",24,"exp",1,10,6,"B",797
"1061","noload",24,"exp",2,1,1,"A",1251
"1062","noload",24,"exp",2,2,7,"B",738
"1063","noload",24,"exp",2,3,5,"A",916
"1064","noload",24,"exp",2,4,3,"A",622
"1065","noload",24,"exp",2,5,8,"B",676
"1066","noload",24,"exp",2,6,2,"A",647
"1067","noload",24,"exp",2,7,4,"B",924
"1068","noload",24,"exp",2,8,10,"B",775
"1069","noload",24,"exp",2,9,6,"B",679
"1070","noload",24,"exp",2,10,9,"A",602
"1071","noload",24,"exp",3,1,4,"B",1143
"1072","noload",24,"exp",3,2,5,"A",666
"1073","noload",24,"exp",3,3,6,"B",606
"1074","noload",24,"exp",3,4,7,"B",722
"1075","noload",24,"exp",3,5,9,"A",628
"1076","noload",24,"exp",3,6,10,"B",618
"1077","noload",24,"exp",3,7,3,"A",607
"1078","noload",24,"exp",3,8,2,"A",725
"1079","noload",24,"exp",3,9,8,"B",551
"1080","noload",24,"exp",3,10,1,"A",510
"1081","noload",24,"exp",4,1,7,"B",688
"1082","noload",24,"exp",4,2,5,"A",531
"1083","noload",24,"exp",4,3,3,"A",539
"1084","noload",24,"exp",4,4,1,"A",611
"1085","noload",24,"exp",4,5,4,"B",617
"1086","noload",24,"exp",4,6,9,"A",591
"1087","noload",24,"exp",4,7,6,"B",597
"1088","noload",24,"exp",4,8,10,"B",587
"1089","noload",24,"exp",4,9,2,"A",562
"1090","noload",24,"exp",4,10,8,"B",681
"1091","noload",24,"exp",5,1,7,"B",761
"1092","noload",24,"exp",5,2,1,"A",554
"1093","noload",24,"exp",5,3,8,"B",610
"1094","noload",24,"exp",5,4,9,"A",472
"1095","noload",24,"exp",5,5,3,"A",994
"1096","noload",24,"exp",5,6,6,"B",619
"1097","noload",24,"exp",5,7,5,"A",576
"1098","noload",24,"exp",5,8,4,"B",663
"1099","noload",24,"exp",5,9,10,"B",475
"1100","noload",24,"exp",5,10,2,"A",550
"1101","noload",24,"exp",6,1,6,"B",851
"1102","noload",24,"exp",6,2,3,"A",577
"1103","noload",24,"exp",6,3,5,"A",728
"1104","noload",24,"exp",6,4,9,"A",618
"1105","noload",24,"exp",6,5,1,"A",527
"1106","noload",24,"exp",6,6,2,"A",551
"1107","noload",24,"exp",6,7,10,"B",574
"1108","noload",24,"exp",6,8,4,"B",485
"1109","noload",24,"exp",6,9,7,"B",447
"1110","noload",24,"exp",6,10,8,"B",459
"1111","noload",24,"exp",7,1,2,"A",660
"1112","noload",24,"exp",7,2,1,"A",536
"1113","noload",24,"exp",7,3,6,"B",592
"1114","noload",24,"exp",7,4,5,"A",565
"1115","noload",24,"exp",7,5,9,"A",542
"1116","noload",24,"exp",7,6,7,"B",566
"1117","noload",24,"exp",7,7,4,"B",653
"1118","noload",24,"exp",7,8,10,"B",609
"1119","noload",24,"exp",7,9,8,"B",583
"1120","noload",24,"exp",7,10,3,"A",525
"1121","noload",24,"exp",8,1,2,"A",666
"1122","noload",24,"exp",8,2,1,"A",525
"1123","noload",24,"exp",8,3,7,"B",694
"1124","noload",24,"exp",8,4,10,"B",665
"1125","noload",24,"exp",8,5,3,"A",637
"1126","noload",24,"exp",8,6,9,"A",657
"1127","noload",24,"exp",8,7,5,"A",581
"1128","noload",24,"exp",8,8,6,"B",540
"1129","noload",24,"exp",8,9,4,"B",755
"1130","noload",24,"exp",8,10,8,"B",789
"1131","noload",24,"exp",9,1,4,"B",643
"1132","noload",24,"exp",9,2,5,"A",503
"1133","noload",24,"exp",9,3,6,"B",465
"1134","noload",24,"exp",9,4,3,"A",539
"1135","noload",24,"exp",9,5,9,"A",500
"1136","noload",24,"exp",9,6,2,"A",445
"1137","noload",24,"exp",9,7,1,"A",489
"1138","noload",24,"exp",9,8,10,"B",610
"1139","noload",24,"exp",9,9,7,"B",456
"1140","noload",24,"exp",9,10,8,"B",419
"1141","noload",24,"exp",10,1,1,"A",610
"1142","noload",24,"exp",10,2,6,"B",583
"1143","noload",24,"exp",10,3,2,"A",574
"1144","noload",24,"exp",10,4,10,"B",501
"1145","noload",24,"exp",10,5,4,"B",414
"1146","noload",24,"exp",10,6,8,"B",587
"1147","noload",24,"exp",10,7,3,"A",449
"1148","noload",24,"exp",10,8,5,"A",508
"1149","noload",24,"exp",10,9,9,"A",502
"1150","noload",24,"exp",10,10,7,"B",559
"1151","noload",24,"exp",11,1,5,"A",611
"1152","noload",24,"exp",11,2,8,"B",569
"1153","noload",24,"exp",11,3,1,"A",464
"1154","noload",24,"exp",11,4,6,"B",491
"1155","noload",24,"exp",11,5,9,"A",532
"1156","noload",24,"exp",11,6,7,"B",717
"1157","noload",24,"exp",11,7,4,"B",655
"1158","noload",24,"exp",11,8,3,"A",627
"1159","noload",24,"exp",11,9,2,"A",568
"1160","noload",24,"exp",11,10,10,"B",607
"1161","noload",24,"exp",12,1,2,"A",644
"1162","noload",24,"exp",12,2,3,"A",633
"1163","noload",24,"exp",12,3,5,"A",622
"1164","noload",24,"exp",12,4,1,"A",483
"1165","noload",24,"exp",12,5,8,"B",525
"1166","noload",24,"exp",12,6,10,"B",566
"1167","noload",24,"exp",12,7,6,"B",573
"1168","noload",24,"exp",12,8,4,"B",564
"1169","noload",24,"exp",12,9,7,"B",540
"1170","noload",24,"exp",12,10,9,"A",500
"1171","noload",26,"prac",0,1,0,"B",4427
"1172","noload",26,"prac",0,2,0,"A",3163
"1173","noload",26,"prac",0,3,0,"A",824
"1174","noload",26,"prac",0,4,0,"A",743
"1175","noload",26,"prac",0,5,0,"A",392
"1176","noload",26,"prac",0,6,0,"A",341
"1177","noload",26,"prac",0,7,0,"B",437
"1178","noload",26,"prac",0,8,0,"B",480
"1179","noload",26,"prac",0,9,0,"B",411
"1180","noload",26,"prac",0,10,0,"B",855
"1181","noload",26,"exp",1,1,7,"B",3290
"1182","noload",26,"exp",1,2,8,"B",2402
"1183","noload",26,"exp",1,3,2,"B",1752
"1184","noload",26,"exp",1,4,4,"A",2406
"1185","noload",26,"exp",1,5,6,"B",1773
"1186","noload",26,"exp",1,6,10,"B",1371
"1187","noload",26,"exp",1,7,5,"A",774
"1188","noload",26,"exp",1,8,9,"B",710
"1189","noload",26,"exp",1,9,1,"A",1321
"1190","noload",26,"exp",1,10,3,"A",870
"1191","noload",26,"exp",2,1,3,"A",1413
"1192","noload",26,"exp",2,2,10,"B",719
"1193","noload",26,"exp",2,3,6,"B",1217
"1194","noload",26,"exp",2,4,2,"B",1009
"1195","noload",26,"exp",2,5,8,"B",889
"1196","noload",26,"exp",2,6,5,"A",836
"1197","noload",26,"exp",2,7,9,"B",1138
"1198","noload",26,"exp",2,8,4,"A",1814
"1199","noload",26,"exp",2,9,7,"A",1233
"1200","noload",26,"exp",2,10,1,"A",1121
"1201","noload",26,"exp",3,1,8,"B",1146
"1202","noload",26,"exp",3,2,10,"B",621
"1203","noload",26,"exp",3,3,5,"A",1635
"1204","noload",26,"exp",3,4,1,"A",773
"1205","noload",26,"exp",3,5,4,"A",837
"1206","noload",26,"exp",3,6,2,"A",739
"1207","noload",26,"exp",3,7,9,"B",692
"1208","noload",26,"exp",3,8,3,"A",919
"1209","noload",26,"exp",3,9,6,"B",802
"1210","noload",26,"exp",3,10,7,"A",1056
"1211","noload",26,"exp",4,1,1,"A",759
"1212","noload",26,"exp",4,2,4,"A",631
"1213","noload",26,"exp",4,3,9,"B",508
"1214","noload",26,"exp",4,4,6,"B",597
"1215","noload",26,"exp",4,5,7,"A",1067
"1216","noload",26,"exp",4,6,3,"A",1601
"1217","noload",26,"exp",4,7,5,"A",788
"1218","noload",26,"exp",4,8,8,"B",852
"1219","noload",26,"exp",4,9,10,"B",945
"1220","noload",26,"exp",4,10,2,"B",939
"1221","noload",26,"exp",5,1,10,"B",1102
"1222","noload",26,"exp",5,2,9,"B",803
"1223","noload",26,"exp",5,3,3,"A",738
"1224","noload",26,"exp",5,4,6,"B",419
"1225","noload",26,"exp",5,5,2,"B",702
"1226","noload",26,"exp",5,6,7,"A",705
"1227","noload",26,"exp",5,7,5,"A",531
"1228","noload",26,"exp",5,8,4,"A",1227
"1229","noload",26,"exp",5,9,8,"B",395
"1230","noload",26,"exp",5,10,1,"A",1609
"1231","noload",26,"exp",6,1,6,"B",1465
"1232","noload",26,"exp",6,2,3,"A",1377
"1233","noload",26,"exp",6,3,7,"A",523
"1234","noload",26,"exp",6,4,4,"A",452
"1235","noload",26,"exp",6,5,1,"A",367
"1236","noload",26,"exp",6,6,10,"B",477
"1237","noload",26,"exp",6,7,5,"A",1032
"1238","noload",26,"exp",6,8,8,"B",671
"1239","noload",26,"exp",6,9,9,"B",546
"1240","noload",26,"exp",6,10,2,"B",441
"1241","noload",26,"exp",7,1,4,"A",749
"1242","noload",26,"exp",7,2,7,"A",781
"1243","noload",26,"exp",7,3,5,"A",733
"1244","noload",26,"exp",7,4,2,"B",910
"1245","noload",26,"exp",7,5,8,"B",1370
"1246","noload",26,"exp",7,6,9,"B",1925
"1247","noload",26,"exp",7,7,6,"B",1165
"1248","noload",26,"exp",7,8,1,"A",2959
"1249","noload",26,"exp",7,9,10,"B",4147
"1250","noload",26,"exp",7,10,3,"A",1725
"1251","noload",26,"exp",8,1,3,"A",1188
"1252","noload",26,"exp",8,2,2,"B",806
"1253","noload",26,"exp",8,3,7,"A",965
"1254","noload",26,"exp",8,4,10,"B",1806
"1255","noload",26,"exp",8,5,6,"B",2458
"1256","noload",26,"exp",8,6,5,"A",4239
"1257","noload",26,"exp",8,7,1,"A",3014
"1258","noload",26,"exp",8,8,9,"B",2936
"1259","noload",26,"exp",8,9,8,"B",1965
"1260","noload",26,"exp",8,10,4,"A",3027
"1261","noload",26,"exp",9,1,2,"B",1179
"1262","noload",26,"exp",9,2,5,"A",1293
"1263","noload",26,"exp",9,3,4,"A",1338
"1264","noload",26,"exp",9,4,10,"B",919
"1265","noload",26,"exp",9,5,8,"B",1618
"1266","noload",26,"exp",9,6,1,"A",1508
"1267","noload",26,"exp",9,7,9,"B",475
"1268","noload",26,"exp",9,8,6,"B",358
"1269","noload",26,"exp",9,9,3,"A",1460
"1270","noload",26,"exp",9,10,7,"A",892
"1271","noload",26,"exp",10,1,1,"A",851
"1272","noload",26,"exp",10,2,7,"A",672
"1273","noload",26,"exp",10,3,10,"B",1779
"1274","noload",26,"exp",10,4,3,"A",639
"1275","noload",26,"exp",10,5,9,"B",837
"1276","noload",26,"exp",10,6,5,"A",690
"1277","noload",26,"exp",10,7,4,"A",549
"1278","noload",26,"exp",10,8,8,"B",557
"1279","noload",26,"exp",10,9,2,"B",549
"1280","noload",26,"exp",10,10,6,"B",620
"1281","noload",26,"exp",11,1,10,"B",627
"1282","noload",26,"exp",11,2,2,"B",407
"1283","noload",26,"exp",11,3,3,"B",708
"1284","noload",26,"exp",11,4,1,"A",1303
"1285","noload",26,"exp",11,5,6,"B",1172
"1286","noload",26,"exp",11,6,7,"B",4886
"1287","noload",26,"exp",11,7,8,"B",2630
"1288","noload",26,"exp",11,8,5,"A",1589
"1289","noload",26,"exp",11,9,9,"B",3369
"1290","noload",26,"exp",11,10,4,"A",4862
"1291","noload",26,"exp",12,1,4,"A",6102
"1292","noload",26,"exp",12,2,7,"A",3244
"1293","noload",26,"exp",12,3,5,"A",1862
"1294","noload",26,"exp",12,4,10,"B",3919
"1295","noload",26,"exp",12,5,2,"B",3009
"1296","noload",26,"exp",12,6,6,"B",1907
"1297","noload",26,"exp",12,7,1,"A",1723
"1298","noload",26,"exp",12,8,3,"A",971
"1299","noload",26,"exp",12,9,8,"B",1444
"1300","noload",26,"exp",12,10,9,"B",2316
"1301","noload",28,"prac",0,1,0,"B",5783
"1302","noload",28,"prac",0,2,0,"A",1944
"1303","noload",28,"prac",0,3,0,"A",8879
"1304","noload",28,"prac",0,4,0,"A",2132
"1305","noload",28,"prac",0,5,0,"B",2628
"1306","noload",28,"prac",0,6,0,"B",1652
"1307","noload",28,"prac",0,7,0,"B",1541
"1308","noload",28,"prac",0,8,0,"A",5162
"1309","noload",28,"prac",0,9,0,"B",1169
"1310","noload",28,"prac",0,10,0,"A",1506
"1311","noload",28,"exp",1,1,3,"A",6159
"1312","noload",28,"exp",1,2,1,"A",2307
"1313","noload",28,"exp",1,3,2,"A",2382
"1314","noload",28,"exp",1,4,10,"B",2166
"1315","noload",28,"exp",1,5,4,"A",1845
"1316","noload",28,"exp",1,6,7,"B",5024
"1317","noload",28,"exp",1,7,9,"B",2619
"1318","noload",28,"exp",1,8,5,"A",3034
"1319","noload",28,"exp",1,9,6,"B",7643
"1320","noload",28,"exp",1,10,8,"A",12475
"1321","noload",28,"exp",2,1,3,"A",54751
"1322","noload",28,"exp",2,2,1,"A",2755
"1323","noload",28,"exp",2,3,7,"B",14542
"1324","noload",28,"exp",2,4,2,"A",9100
"1325","noload",28,"exp",2,5,4,"A",6426
"1326","noload",28,"exp",2,6,8,"B",8340
"1327","noload",28,"exp",2,7,6,"B",3628
"1328","noload",28,"exp",2,8,10,"B",3769
"1329","noload",28,"exp",2,9,5,"A",2832
"1330","noload",28,"exp",2,10,9,"B",3223
"1331","noload",28,"exp",3,1,7,"B",7311
"1332","noload",28,"exp",3,2,5,"A",8955
"1333","noload",28,"exp",3,3,6,"B",2493
"1334","noload",28,"exp",3,4,10,"B",2033
"1335","noload",28,"exp",3,5,9,"B",3092
"1336","noload",28,"exp",3,6,1,"A",6947
"1337","noload",28,"exp",3,7,3,"A",4444
"1338","noload",28,"exp",3,8,4,"A",5147
"1339","noload",28,"exp",3,9,2,"B",4387
"1340","noload",28,"exp",3,10,8,"B",2292
"1341","noload",28,"exp",4,1,3,"A",5853
"1342","noload",28,"exp",4,2,1,"A",3259
"1343","noload",28,"exp",4,3,9,"A",5429
"1344","noload",28,"exp",4,4,7,"B",2834
"1345","noload",28,"exp",4,5,10,"B",4923
"1346","noload",28,"exp",4,6,6,"B",3674
"1347","noload",28,"exp",4,7,5,"A",6388
"1348","noload",28,"exp",4,8,4,"B",6960
"1349","noload",28,"exp",4,9,8,"B",6552
"1350","noload",28,"exp",4,10,2,"B",7070
"1351","noload",28,"exp",5,1,1,"A",3139
"1352","noload",28,"exp",5,2,10,"B",3824
"1353","noload",28,"exp",5,3,6,"B",2357
"1354","noload",28,"exp",5,4,4,"A",3566
"1355","noload",28,"exp",5,5,5,"A",2380
"1356","noload",28,"exp",5,6,3,"A",2068
"1357","noload",28,"exp",5,7,7,"A",2855
"1358","noload",28,"exp",5,8,9,"B",3294
"1359","noload",28,"exp",5,9,2,"A",7574
"1360","noload",28,"exp",5,10,8,"B",7720
"1361","noload",28,"exp",6,1,5,"A",4062
"1362","noload",28,"exp",6,2,3,"A",14619
"1363","noload",28,"exp",6,3,1,"A",4407
"1364","noload",28,"exp",6,4,9,"B",4088
"1365","noload",28,"exp",6,5,7,"A",13493
"1366","noload",28,"exp",6,6,4,"A",2745
"1367","noload",28,"exp",6,7,10,"B",2452
"1368","noload",28,"exp",6,8,2,"B",3705
"1369","noload",28,"exp",6,9,8,"B",3267
"1370","noload",28,"exp",6,10,6,"B",3339
"1371","noload",28,"exp",7,1,7,"B",21674
"1372","noload",28,"exp",7,2,6,"B",3297
"1373","noload",28,"exp",7,3,4,"A",5689
"1374","noload",28,"exp",7,4,5,"A",3245
"1375","noload",28,"exp",7,5,10,"B",3511
"1376","noload",28,"exp",7,6,2,"A",8024
"1377","noload",28,"exp",7,7,1,"A",3226
"1378","noload",28,"exp",7,8,8,"B",3780
"1379","noload",28,"exp",7,9,9,"B",8059
"1380","noload",28,"exp",7,10,3,"A",3725
"1381","noload",28,"exp",8,1,9,"B",5834
"1382","noload",28,"exp",8,2,8,"B",4441
"1383","noload",28,"exp",8,3,7,"B",9065
"1384","noload",28,"exp",8,4,1,"A",2984
"1385","noload",28,"exp",8,5,10,"B",1899
"1386","noload",28,"exp",8,6,3,"A",6308
"1387","noload",28,"exp",8,7,2,"A",5266
"1388","noload",28,"exp",8,8,6,"B",2997
"1389","noload",28,"exp",8,9,4,"A",3159
"1390","noload",28,"exp",8,10,5,"A",2148
"1391","noload",28,"exp",9,1,10,"B",20011
"1392","noload",28,"exp",9,2,7,"B",3322
"1393","noload",28,"exp",9,3,6,"B",2097
"1394","noload",28,"exp",9,4,5,"A",3219
"1395","noload",28,"exp",9,5,9,"B",1854
"1396","noload",28,"exp",9,6,1,"A",2648
"1397","noload",28,"exp",9,7,3,"A",4231
"1398","noload",28,"exp",9,8,4,"A",3838
"1399","noload",28,"exp",9,9,8,"B",3858
"1400","noload",28,"exp",9,10,2,"B",3271
"1401","noload",28,"exp",10,1,9,"B",14638
"1402","noload",28,"exp",10,2,1,"A",26314
"1403","noload",28,"exp",10,3,6,"B",5630
"1404","noload",28,"exp",10,4,10,"B",1653
"1405","noload",28,"exp",10,5,8,"B",1862
"1406","noload",28,"exp",10,6,4,"B",3072
"1407","noload",28,"exp",10,7,2,"B",2736
"1408","noload",28,"exp",10,8,7,"B",2778
"1409","noload",28,"exp",10,9,5,"A",6212
"1410","noload",28,"exp",10,10,3,"A",2775
"1411","noload",28,"exp",11,1,2,"B",45177
"1412","noload",28,"exp",11,2,7,"B",6571
"1413","noload",28,"exp",11,3,9,"B",2607
"1414","noload",28,"exp",11,4,6,"B",6015
"1415","noload",28,"exp",11,5,1,"A",2985
"1416","noload",28,"exp",11,6,4,"A",3419
"1417","noload",28,"exp",11,7,5,"A",2543
"1418","noload",28,"exp",11,8,8,"B",3969
"1419","noload",28,"exp",11,9,10,"B",1889
"1420","noload",28,"exp",11,10,3,"A",4938
"1421","noload",28,"exp",12,1,3,"A",5091
"1422","noload",28,"exp",12,2,9,"B",3116
"1423","noload",28,"exp",12,3,1,"A",2362
"1424","noload",28,"exp",12,4,5,"A",1539
"1425","noload",28,"exp",12,5,6,"B",2088
"1426","noload",28,"exp",12,6,7,"B",5099
"1427","noload",28,"exp",12,7,10,"B",2467
"1428","noload",28,"exp",12,8,2,"A",4376
"1429","noload",28,"exp",12,9,4,"A",4666
"1430","noload",28,"exp",12,10,8,"B",3171
"1431","noload",30,"prac",0,1,0,"A",2205
"1432","noload",30,"prac",0,2,0,"A",3308
"1433","noload",30,"prac",0,3,0,"B",2899
"1434","noload",30,"prac",0,4,0,"B",3017
"1435","noload",30,"prac",0,5,0,"A",2827
"1436","noload",30,"prac",0,6,0,"B",579
"1437","noload",30,"prac",0,7,0,"A",410
"1438","noload",30,"prac",0,8,0,"B",551
"1439","noload",30,"prac",0,9,0,"B",479
"1440","noload",30,"prac",0,10,0,"A",328
"1441","noload",30,"exp",1,1,6,"B",2768
"1442","noload",30,"exp",1,2,7,"B",1690
"1443","noload",30,"exp",1,3,5,"A",1163
"1444","noload",30,"exp",1,4,4,"B",813
"1445","noload",30,"exp",1,5,2,"A",907
"1446","noload",30,"exp",1,6,1,"A",519
"1447","noload",30,"exp",1,7,9,"A",783
"1448","noload",30,"exp",1,8,10,"B",766
"1449","noload",30,"exp",1,9,8,"B",782
"1450","noload",30,"exp",1,10,3,"A",702
"1451","noload",30,"exp",2,1,10,"B",720
"1452","noload",30,"exp",2,2,8,"B",576
"1453","noload",30,"exp",2,3,9,"A",536
"1454","noload",30,"exp",2,4,4,"B",688
"1455","noload",30,"exp",2,5,2,"A",723
"1456","noload",30,"exp",2,6,6,"B",485
"1457","noload",30,"exp",2,7,3,"A",559
"1458","noload",30,"exp",2,8,1,"A",854
"1459","noload",30,"exp",2,9,7,"B",483
"1460","noload",30,"exp",2,10,5,"A",445
"1461","noload",30,"exp",3,1,7,"B",699
"1462","noload",30,"exp",3,2,1,"A",589
"1463","noload",30,"exp",3,3,9,"A",548
"1464","noload",30,"exp",3,4,10,"B",732
"1465","noload",30,"exp",3,5,5,"A",476
"1466","noload",30,"exp",3,6,3,"A",631
"1467","noload",30,"exp",3,7,2,"A",603
"1468","noload",30,"exp",3,8,8,"B",449
"1469","noload",30,"exp",3,9,6,"B",556
"1470","noload",30,"exp",3,10,4,"B",468
"1471","noload",30,"exp",4,1,5,"A",862
"1472","noload",30,"exp",4,2,3,"A",603
"1473","noload",30,"exp",4,3,4,"B",481
"1474","noload",30,"exp",4,4,7,"B",827
"1475","noload",30,"exp",4,5,1,"A",1018
"1476","noload",30,"exp",4,6,6,"B",737
"1477","noload",30,"exp",4,7,10,"B",626
"1478","noload",30,"exp",4,8,9,"A",615
"1479","noload",30,"exp",4,9,2,"A",621
"1480","noload",30,"exp",4,10,8,"B",690
"1481","noload",30,"exp",5,1,9,"A",710
"1482","noload",30,"exp",5,2,1,"A",568
"1483","noload",30,"exp",5,3,10,"B",607
"1484","noload",30,"exp",5,4,3,"A",437
"1485","noload",30,"exp",5,5,7,"B",273
"1486","noload",30,"exp",5,6,2,"A",419
"1487","noload",30,"exp",5,7,8,"B",239
"1488","noload",30,"exp",5,8,5,"A",273
"1489","noload",30,"exp",5,9,4,"B",307
"1490","noload",30,"exp",5,10,6,"A",307
"1491","noload",30,"exp",6,1,9,"A",1066
"1492","noload",30,"exp",6,2,1,"A",575
"1493","noload",30,"exp",6,3,10,"B",662
"1494","noload",30,"exp",6,4,2,"A",555
"1495","noload",30,"exp",6,5,3,"A",562
"1496","noload",30,"exp",6,6,7,"B",538
"1497","noload",30,"exp",6,7,8,"B",578
"1498","noload",30,"exp",6,8,5,"A",664
"1499","noload",30,"exp",6,9,6,"B",572
"1500","noload",30,"exp",6,10,4,"B",483
"1501","noload",30,"exp",7,1,2,"A",721
"1502","noload",30,"exp",7,2,4,"B",595
"1503","noload",30,"exp",7,3,8,"B",777
"1504","noload",30,"exp",7,4,1,"A",665
"1505","noload",30,"exp",7,5,3,"A",509
"1506","noload",30,"exp",7,6,9,"A",550
"1507","noload",30,"exp",7,7,10,"B",542
"1508","noload",30,"exp",7,8,5,"A",486
"1509","noload",30,"exp",7,9,7,"B",656
"1510","noload",30,"exp",7,10,6,"B",676
"1511","noload",30,"exp",8,1,1,"A",830
"1512","noload",30,"exp",8,2,5,"A",572
"1513","noload",30,"exp",8,3,8,"B",835
"1514","noload",30,"exp",8,4,2,"A",1360
"1515","noload",30,"exp",8,5,6,"B",587
"1516","noload",30,"exp",8,6,10,"B",642
"1517","noload",30,"exp",8,7,3,"A",646
"1518","noload",30,"exp",8,8,4,"B",587
"1519","noload",30,"exp",8,9,7,"A",530
"1520","noload",30,"exp",8,10,9,"A",634
"1521","noload",30,"exp",9,1,10,"B",925
"1522","noload",30,"exp",9,2,9,"A",568
"1523","noload",30,"exp",9,3,8,"B",511
"1524","noload",30,"exp",9,4,6,"B",632
"1525","noload",30,"exp",9,5,7,"B",605
"1526","noload",30,"exp",9,6,3,"A",707
"1527","noload",30,"exp",9,7,5,"A",694
"1528","noload",30,"exp",9,8,4,"B",537
"1529","noload",30,"exp",9,9,2,"A",464
"1530","noload",30,"exp",9,10,1,"A",458
"1531","noload",30,"exp",10,1,5,"A",711
"1532","noload",30,"exp",10,2,8,"B",505
"1533","noload",30,"exp",10,3,1,"A",563
"1534","noload",30,"exp",10,4,10,"B",426
"1535","noload",30,"exp",10,5,7,"B",599
"1536","noload",30,"exp",10,6,9,"A",493
"1537","noload",30,"exp",10,7,4,"B",567
"1538","noload",30,"exp",10,8,6,"B",526
"1539","noload",30,"exp",10,9,2,"A",598
"1540","noload",30,"exp",10,10,3,"A",444
"1541","noload",30,"exp",11,1,1,"A",575
"1542","noload",30,"exp",11,2,3,"A",630
"1543","noload",30,"exp",11,3,5,"A",507
"1544","noload",30,"exp",11,4,9,"A",404
"1545","noload",30,"exp",11,5,6,"B",641
"1546","noload",30,"exp",11,6,4,"B",997
"1547","noload",30,"exp",11,7,8,"B",429
"1548","noload",30,"exp",11,8,10,"B",585
"1549","noload",30,"exp",11,9,7,"B",432
"1550","noload",30,"exp",11,10,2,"A",572
"1551","noload",30,"exp",12,1,3,"A",618
"1552","noload",30,"exp",12,2,6,"B",2352
"1553","noload",30,"exp",12,3,4,"B",2905
"1554","noload",30,"exp",12,4,1,"A",2222
"1555","noload",30,"exp",12,5,8,"B",1212
"1556","noload",30,"exp",12,6,5,"A",860
"1557","noload",30,"exp",12,7,2,"A",1257
"1558","noload",30,"exp",12,8,9,"B",1497
"1559","noload",30,"exp",12,9,7,"B",1134
"1560","noload",30,"exp",12,10,10,"B",1810
"1561","noload",32,"prac",0,1,0,"B",9106
"1562","noload",32,"prac",0,2,0,"A",11759
"1563","noload",32,"prac",0,3,0,"B",10718
"1564","noload",32,"prac",0,4,0,"B",70433
"1565","noload",32,"prac",0,5,0,"B",849
"1566","noload",32,"prac",0,6,0,"B",1391
"1567","noload",32,"prac",0,7,0,"B",633
"1568","noload",32,"prac",0,8,0,"B",430
"1569","noload",32,"prac",0,9,0,"B",314
"1570","noload",32,"prac",0,10,0,"A",523
"1571","noload",32,"exp",1,1,8,"B",5545
"1572","noload",32,"exp",1,2,5,"A",1250
"1573","noload",32,"exp",1,3,9,"A",992
"1574","noload",32,"exp",1,4,10,"B",1081
"1575","noload",32,"exp",1,5,4,"B",876
"1576","noload",32,"exp",1,6,6,"B",712
"1577","noload",32,"exp",1,7,1,"A",697
"1578","noload",32,"exp",1,8,3,"A",731
"1579","noload",32,"exp",1,9,7,"B",667
"1580","noload",32,"exp",1,10,2,"A",782
"1581","noload",32,"exp",2,1,7,"B",868
"1582","noload",32,"exp",2,2,8,"B",673
"1583","noload",32,"exp",2,3,3,"A",965
"1584","noload",32,"exp",2,4,6,"B",622
"1585","noload",32,"exp",2,5,9,"A",1043
"1586","noload",32,"exp",2,6,1,"A",1562
"1587","noload",32,"exp",2,7,2,"A",654
"1588","noload",32,"exp",2,8,5,"A",691
"1589","noload",32,"exp",2,9,4,"B",853
"1590","noload",32,"exp",2,10,10,"B",578
"1591","noload",32,"exp",3,1,10,"B",968
"1592","noload",32,"exp",3,2,5,"A",1201
"1593","noload",32,"exp",3,3,9,"A",738
"1594","noload",32,"exp",3,4,7,"B",4772
"1595","noload",32,"exp",3,5,6,"B",2120
"1596","noload",32,"exp",3,6,8,"B",2522
"1597","noload",32,"exp",3,7,1,"A",2252
"1598","noload",32,"exp",3,8,2,"B",841
"1599","noload",32,"exp",3,9,3,"A",1189
"1600","noload",32,"exp",3,10,4,"A",5064
"1601","noload",32,"exp",4,1,5,"A",1504
"1602","noload",32,"exp",4,2,9,"A",2631
"1603","noload",32,"exp",4,3,4,"B",3574
"1604","noload",32,"exp",4,4,7,"A",2949
"1605","noload",32,"exp",4,5,10,"B",2361
"1606","noload",32,"exp",4,6,8,"B",1250
"1607","noload",32,"exp",4,7,2,"A",1296
"1608","noload",32,"exp",4,8,3,"A",2046
"1609","noload",32,"exp",4,9,1,"B",1713
"1610","noload",32,"exp",4,10,6,"B",2848
"1611","noload",32,"exp",5,1,10,"B",2175
"1612","noload",32,"exp",5,2,1,"A",1262
"1613","noload",32,"exp",5,3,7,"B",2108
"1614","noload",32,"exp",5,4,2,"A",2366
"1615","noload",32,"exp",5,5,5,"A",1686
"1616","noload",32,"exp",5,6,4,"A",3190
"1617","noload",32,"exp",5,7,8,"B",1329
"1618","noload",32,"exp",5,8,9,"B",4606
"1619","noload",32,"exp",5,9,3,"A",1432
"1620","noload",32,"exp",5,10,6,"B",1361
"1621","noload",32,"exp",6,1,1,"A",1290
"1622","noload",32,"exp",6,2,10,"B",1065
"1623","noload",32,"exp",6,3,9,"A",1230
"1624","noload",32,"exp",6,4,4,"A",1918
"1625","noload",32,"exp",6,5,7,"B",2806
"1626","noload",32,"exp",6,6,5,"A",2255
"1627","noload",32,"exp",6,7,8,"B",2971
"1628","noload",32,"exp",6,8,2,"A",4222
"1629","noload",32,"exp",6,9,3,"A",3734
"1630","noload",32,"exp",6,10,6,"B",3246
"1631","noload",32,"exp",7,1,4,"A",2868
"1632","noload",32,"exp",7,2,10,"B",2107
"1633","noload",32,"exp",7,3,8,"B",1756
"1634","noload",32,"exp",7,4,3,"A",2506
"1635","noload",32,"exp",7,5,1,"A",2621
"1636","noload",32,"exp",7,6,2,"A",2333
"1637","noload",32,"exp",7,7,9,"B",2070
"1638","noload",32,"exp",7,8,5,"A",6217
"1639","noload",32,"exp",7,9,7,"B",2219
"1640","noload",32,"exp",7,10,6,"B",2552
"1641","noload",32,"exp",8,1,3,"A",3348
"1642","noload",32,"exp",8,2,7,"B",2939
"1643","noload",32,"exp",8,3,8,"B",1647
"1644","noload",32,"exp",8,4,5,"A",1552
"1645","noload",32,"exp",8,5,10,"B",1205
"1646","noload",32,"exp",8,6,9,"B",2599
"1647","noload",32,"exp",8,7,1,"A",1718
"1648","noload",32,"exp",8,8,2,"A",2277
"1649","noload",32,"exp",8,9,4,"A",2497
"1650","noload",32,"exp",8,10,6,"B",1221
"1651","noload",32,"exp",9,1,4,"B",70
"1652","noload",32,"exp",9,2,6,"B",4191
"1653","noload",32,"exp",9,3,7,"B",2120
"1654","noload",32,"exp",9,4,8,"A",2137
"1655","noload",32,"exp",9,5,1,"A",1146
"1656","noload",32,"exp",9,6,3,"A",3243
"1657","noload",32,"exp",9,7,2,"A",4038
"1658","noload",32,"exp",9,8,9,"B",3492
"1659","noload",32,"exp",9,9,5,"A",1845
"1660","noload",32,"exp",9,10,10,"B",1519
"1661","noload",32,"exp",10,1,2,"A",3122
"1662","noload",32,"exp",10,2,7,"B",2960
"1663","noload",32,"exp",10,3,6,"B",2051
"1664","noload",32,"exp",10,4,3,"B",2327
"1665","noload",32,"exp",10,5,1,"A",3056
"1666","noload",32,"exp",10,6,10,"B",6129
"1667","noload",32,"exp",10,7,8,"B",4086
"1668","noload",32,"exp",10,8,5,"A",2226
"1669","noload",32,"exp",10,9,4,"A",1583
"1670","noload",32,"exp",10,10,9,"B",4931
"1671","noload",32,"exp",11,1,4,"A",3760
"1672","noload",32,"exp",11,2,9,"B",6328
"1673","noload",32,"exp",11,3,10,"B",1878
"1674","noload",32,"exp",11,4,5,"A",895
"1675","noload",32,"exp",11,5,8,"A",1467
"1676","noload",32,"exp",11,6,6,"B",1555
"1677","noload",32,"exp",11,7,1,"A",1239
"1678","noload",32,"exp",11,8,7,"B",5143
"1679","noload",32,"exp",11,9,2,"A",926
"1680","noload",32,"exp",11,10,3,"A",5785
"1681","noload",32,"exp",12,1,10,"B",2741
"1682","noload",32,"exp",12,2,9,"B",1792
"1683","noload",32,"exp",12,3,2,"A",3661
"1684","noload",32,"exp",12,4,4,"A",3143
"1685","noload",32,"exp",12,5,1,"A",1316
"1686","noload",32,"exp",12,6,6,"B",1586
"1687","noload",32,"exp",12,7,3,"A",2933
"1688","noload",32,"exp",12,8,7,"B",1866
"1689","noload",32,"exp",12,9,8,"B",2148
"1690","noload",32,"exp",12,10,5,"A",3060
"1691","noload",34,"prac",0,1,0,"B",3361
"1692","noload",34,"prac",0,2,0,"A",2839
"1693","noload",34,"prac",0,3,0,"A",1023
"1694","noload",34,"prac",0,4,0,"B",1686
"1695","noload",34,"prac",0,5,0,"B",1174
"1696","noload",34,"prac",0,6,0,"A",1128
"1697","noload",34,"prac",0,7,0,"A",762
"1698","noload",34,"prac",0,8,0,"A",684
"1699","noload",34,"prac",0,9,0,"B",911
"1700","noload",34,"prac",0,10,0,"B",1210
"1701","noload",34,"exp",1,1,10,"B",1536
"1702","noload",34,"exp",1,2,6,"B",1189
"1703","noload",34,"exp",1,3,3,"A",3622
"1704","noload",34,"exp",1,4,7,"B",2211
"1705","noload",34,"exp",1,5,2,"A",1968
"1706","noload",34,"exp",1,6,5,"A",1319
"1707","noload",34,"exp",1,7,9,"B",3812
"1708","noload",34,"exp",1,8,8,"B",3258
"1709","noload",34,"exp",1,9,4,"A",4308
"1710","noload",34,"exp",1,10,1,"A",2839
"1711","noload",34,"exp",2,1,2,"A",3426
"1712","noload",34,"exp",2,2,1,"A",2262
"1713","noload",34,"exp",2,3,9,"B",2994
"1714","noload",34,"exp",2,4,7,"B",3364
"1715","noload",34,"exp",2,5,4,"A",3450
"1716","noload",34,"exp",2,6,8,"B",3341
"1717","noload",34,"exp",2,7,10,"B",1682
"1718","noload",34,"exp",2,8,5,"A",1538
"1719","noload",34,"exp",2,9,6,"B",1736
"1720","noload",34,"exp",2,10,3,"A",3110
"1721","noload",34,"exp",3,1,9,"B",2352
"1722","noload",34,"exp",3,2,3,"A",2345
"1723","noload",34,"exp",3,3,10,"B",1954
"1724","noload",34,"exp",3,4,7,"B",3241
"1725","noload",34,"exp",3,5,8,"B",3442
"1726","noload",34,"exp",3,6,4,"A",2597
"1727","noload",34,"exp",3,7,2,"A",2773
"1728","noload",34,"exp",3,8,5,"A",1888
"1729","noload",34,"exp",3,9,6,"B",1753
"1730","noload",34,"exp",3,10,1,"A",1623
"1731","noload",34,"exp",4,1,5,"A",1945
"1732","noload",34,"exp",4,2,10,"B",2385
"1733","noload",34,"exp",4,3,1,"A",2248
"1734","noload",34,"exp",4,4,9,"B",1957
"1735","noload",34,"exp",4,5,7,"B",3148
"1736","noload",34,"exp",4,6,3,"A",2713
"1737","noload",34,"exp",4,7,6,"B",1669
"1738","noload",34,"exp",4,8,4,"A",2454
"1739","noload",34,"exp",4,9,8,"B",2667
"1740","noload",34,"exp",4,10,2,"A",2601
"1741","noload",34,"exp",5,1,9,"B",2983
"1742","noload",34,"exp",5,2,3,"A",3290
"1743","noload",34,"exp",5,3,5,"A",2387
"1744","noload",34,"exp",5,4,2,"A",3835
"1745","noload",34,"exp",5,5,7,"B",1344
"1746","noload",34,"exp",5,6,4,"A",1996
"1747","noload",34,"exp",5,7,10,"B",1313
"1748","noload",34,"exp",5,8,1,"A",1758
"1749","noload",34,"exp",5,9,6,"B",1786
"1750","noload",34,"exp",5,10,8,"B",2679
"1751","noload",34,"exp",6,1,7,"B",3529
"1752","noload",34,"exp",6,2,8,"B",2457
"1753","noload",34,"exp",6,3,10,"B",1679
"1754","noload",34,"exp",6,4,2,"A",2335
"1755","noload",34,"exp",6,5,4,"A",1673
"1756","noload",34,"exp",6,6,3,"A",2201
"1757","noload",34,"exp",6,7,1,"A",1783
"1758","noload",34,"exp",6,8,6,"B",1316
"1759","noload",34,"exp",6,9,5,"A",1905
"1760","noload",34,"exp",6,10,9,"B",1834
"1761","noload",34,"exp",7,1,10,"B",1932
"1762","noload",34,"exp",7,2,5,"A",1124
"1763","noload",34,"exp",7,3,1,"A",1528
"1764","noload",34,"exp",7,4,3,"A",2540
"1765","noload",34,"exp",7,5,7,"B",2318
"1766","noload",34,"exp",7,6,6,"B",1417
"1767","noload",34,"exp",7,7,4,"A",2018
"1768","noload",34,"exp",7,8,2,"A",1271
"1769","noload",34,"exp",7,9,9,"B",1302
"1770","noload",34,"exp",7,10,8,"B",2468
"1771","noload",34,"exp",8,1,3,"B",2388
"1772","noload",34,"exp",8,2,6,"B",1980
"1773","noload",34,"exp",8,3,2,"A",2929
"1774","noload",34,"exp",8,4,7,"B",1701
"1775","noload",34,"exp",8,5,5,"A",2677
"1776","noload",34,"exp",8,6,9,"B",3219
"1777","noload",34,"exp",8,7,10,"B",1725
"1778","noload",34,"exp",8,8,8,"B",3308
"1779","noload",34,"exp",8,9,1,"A",1491
"1780","noload",34,"exp",8,10,4,"A",2507
"1781","noload",34,"exp",9,1,10,"B",1728
"1782","noload",34,"exp",9,2,8,"B",2511
"1783","noload",34,"exp",9,3,3,"A",2658
"1784","noload",34,"exp",9,4,5,"A",3024
"1785","noload",34,"exp",9,5,9,"B",3938
"1786","noload",34,"exp",9,6,2,"A",3635
"1787","noload",34,"exp",9,7,4,"A",2400
"1788","noload",34,"exp",9,8,6,"B",4422
"1789","noload",34,"exp",9,9,1,"A",2695
"1790","noload",34,"exp",9,10,7,"B",3124
"1791","noload",34,"exp",10,1,1,"A",2167
"1792","noload",34,"exp",10,2,7,"B",1111
"1793","noload",34,"exp",10,3,10,"B",1675
"1794","noload",34,"exp",10,4,6,"B",1436
"1795","noload",34,"exp",10,5,4,"A",4420
"1796","noload",34,"exp",10,6,9,"A",2580
"1797","noload",34,"exp",10,7,3,"A",2038
"1798","noload",34,"exp",10,8,8,"B",1882
"1799","noload",34,"exp",10,9,5,"A",1827
"1800","noload",34,"exp",10,10,2,"A",2078
"1801","noload",34,"exp",11,1,6,"B",1340
"1802","noload",34,"exp",11,2,10,"B",1369
"1803","noload",34,"exp",11,3,1,"A",1732
"1804","noload",34,"exp",11,4,4,"A",3282
"1805","noload",34,"exp",11,5,2,"A",2298
"1806","noload",34,"exp",11,6,5,"A",1605
"1807","noload",34,"exp",11,7,7,"B",1480
"1808","noload",34,"exp",11,8,9,"B",2720
"1809","noload",34,"exp",11,9,8,"A",3244
"1810","noload",34,"exp",11,10,3,"A",1909
"1811","noload",34,"exp",12,1,9,"B",3457
"1812","noload",34,"exp",12,2,8,"B",2131
"1813","noload",34,"exp",12,3,5,"A",1236
"1814","noload",34,"exp",12,4,2,"A",2548
"1815","noload",34,"exp",12,5,6,"B",2022
"1816","noload",34,"exp",12,6,4,"A",2587
"1817","noload",34,"exp",12,7,7,"B",1931
"1818","noload",34,"exp",12,8,3,"A",1747
"1819","noload",34,"exp",12,9,1,"A",1313
"1820","noload",34,"exp",12,10,10,"B",1374
"1821","noload",36,"prac",0,1,0,"B",14666
"1822","noload",36,"prac",0,2,0,"A",5174
"1823","noload",36,"prac",0,3,0,"B",972
"1824","noload",36,"prac",0,4,0,"A",1381
"1825","noload",36,"prac",0,5,0,"B",576
"1826","noload",36,"prac",0,6,0,"A",1047
"1827","noload",36,"prac",0,7,0,"B",653
"1828","noload",36,"prac",0,8,0,"A",801
"1829","noload",36,"prac",0,9,0,"B",784
"1830","noload",36,"prac",0,10,0,"A",544
"1831","noload",36,"exp",1,1,1,"A",13845
"1832","noload",36,"exp",1,2,5,"A",1820
"1833","noload",36,"exp",1,3,9,"A",3384
"1834","noload",36,"exp",1,4,10,"B",1597
"1835","noload",36,"exp",1,5,2,"A",11616
"1836","noload",36,"exp",1,6,4,"B",2516
"1837","noload",36,"exp",1,7,8,"B",2536
"1838","noload",36,"exp",1,8,7,"B",3243
"1839","noload",36,"exp",1,9,3,"A",2629
"1840","noload",36,"exp",1,10,6,"B",1348
"1841","noload",36,"exp",2,1,4,"B",9026
"1842","noload",36,"exp",2,2,2,"A",2530
"1843","noload",36,"exp",2,3,8,"B",3813
"1844","noload",36,"exp",2,4,3,"A",2171
"1845","noload",36,"exp",2,5,5,"A",1690
"1846","noload",36,"exp",2,6,9,"A",2379
"1847","noload",36,"exp",2,7,7,"B",2451
"1848","noload",36,"exp",2,8,6,"B",2248
"1849","noload",36,"exp",2,9,10,"B",1557
"1850","noload",36,"exp",2,10,1,"A",1705
"1851","noload",36,"exp",3,1,7,"B",2471
"1852","noload",36,"exp",3,2,5,"A",1516
"1853","noload",36,"exp",3,3,2,"A",1506
"1854","noload",36,"exp",3,4,8,"B",4328
"1855","noload",36,"exp",3,5,4,"B",2508
"1856","noload",36,"exp",3,6,10,"B",3904
"1857","noload",36,"exp",3,7,3,"A",2049
"1858","noload",36,"exp",3,8,9,"B",9381
"1859","noload",36,"exp",3,9,6,"B",3161
"1860","noload",36,"exp",3,10,1,"A",2694
"1861","noload",36,"exp",4,1,7,"B",4983
"1862","noload",36,"exp",4,2,2,"A",3187
"1863","noload",36,"exp",4,3,1,"A",1567
"1864","noload",36,"exp",4,4,5,"A",1347
"1865","noload",36,"exp",4,5,6,"B",2335
"1866","noload",36,"exp",4,6,9,"B",8201
"1867","noload",36,"exp",4,7,10,"B",2053
"1868","noload",36,"exp",4,8,4,"A",3641
"1869","noload",36,"exp",4,9,3,"A",1813
"1870","noload",36,"exp",4,10,8,"B",16032
"1871","noload",36,"exp",5,1,7,"B",6811
"1872","noload",36,"exp",5,2,4,"A",3336
"1873","noload",36,"exp",5,3,6,"B",2125
"1874","noload",36,"exp",5,4,5,"A",3486
"1875","noload",36,"exp",5,5,2,"A",3295
"1876","noload",36,"exp",5,6,9,"B",2856
"1877","noload",36,"exp",5,7,1,"A",1855
"1878","noload",36,"exp",5,8,8,"B",1577
"1879","noload",36,"exp",5,9,10,"B",4717
"1880","noload",36,"exp",5,10,3,"A",2499
"1881","noload",36,"exp",6,1,3,"A",2777
"1882","noload",36,"exp",6,2,8,"B",1251
"1883","noload",36,"exp",6,3,2,"A",2690
"1884","noload",36,"exp",6,4,6,"B",4031
"1885","noload",36,"exp",6,5,1,"A",1262
"1886","noload",36,"exp",6,6,9,"B",2908
"1887","noload",36,"exp",6,7,10,"B",3969
"1888","noload",36,"exp",6,8,5,"A",5281
"1889","noload",36,"exp",6,9,4,"A",1236
"1890","noload",36,"exp",6,10,7,"B",4148
"1891","noload",36,"exp",7,1,6,"B",1864
"1892","noload",36,"exp",7,2,8,"B",1602
"1893","noload",36,"exp",7,3,9,"A",9876
"1894","noload",36,"exp",7,4,10,"B",1895
"1895","noload",36,"exp",7,5,2,"A",3936
"1896","noload",36,"exp",7,6,5,"A",6785
"1897","noload",36,"exp",7,7,3,"A",2591
"1898","noload",36,"exp",7,8,4,"A",2832
"1899","noload",36,"exp",7,9,1,"A",1687
"1900","noload",36,"exp",7,10,7,"A",5495
"1901","noload",36,"exp",8,1,1,"A",2313
"1902","noload",36,"exp",8,2,5,"A",1251
"1903","noload",36,"exp",8,3,8,"B",1682
"1904","noload",36,"exp",8,4,9,"A",4803
"1905","noload",36,"exp",8,5,4,"B",5030
"1906","noload",36,"exp",8,6,2,"A",3569
"1907","noload",36,"exp",8,7,6,"B",1279
"1908","noload",36,"exp",8,8,7,"B",3533
"1909","noload",36,"exp",8,9,10,"B",1292
"1910","noload",36,"exp",8,10,3,"B",2891
"1911","noload",36,"exp",9,1,4,"A",6087
"1912","noload",36,"exp",9,2,1,"A",2494
"1913","noload",36,"exp",9,3,8,"B",881
"1914","noload",36,"exp",9,4,3,"A",2061
"1915","noload",36,"exp",9,5,9,"A",2288
"1916","noload",36,"exp",9,6,7,"B",1083
"1917","noload",36,"exp",9,7,6,"B",1120
"1918","noload",36,"exp",9,8,5,"B",2436
"1919","noload",36,"exp",9,9,2,"A",1738
"1920","noload",36,"exp",9,10,10,"B",2761
"1921","noload",36,"exp",10,1,3,"A",2316
"1922","noload",36,"exp",10,2,5,"A",1509
"1923","noload",36,"exp",10,3,4,"A",2443
"1924","noload",36,"exp",10,4,6,"B",817
"1925","noload",36,"exp",10,5,2,"A",1807
"1926","noload",36,"exp",10,6,1,"A",1035
"1927","noload",36,"exp",10,7,9,"B",1202
"1928","noload",36,"exp",10,8,8,"B",4115
"1929","noload",36,"exp",10,9,7,"B",5646
"1930","noload",36,"exp",10,10,10,"B",1764
"1931","noload",36,"exp",11,1,8,"B",2112
"1932","noload",36,"exp",11,2,9,"B",3121
"1933","noload",36,"exp",11,3,10,"B",1887
"1934","noload",36,"exp",11,4,4,"A",5609
"1935","noload",36,"exp",11,5,7,"B",2560
"1936","noload",36,"exp",11,6,6,"B",1650
"1937","noload",36,"exp",11,7,5,"A",1187
"1938","noload",36,"exp",11,8,2,"A",3684
"1939","noload",36,"exp",11,9,1,"A",1390
"1940","noload",36,"exp",11,10,3,"A",3625
"1941","noload",36,"exp",12,1,7,"B",3308
"1942","noload",36,"exp",12,2,4,"A",3748
"1943","noload",36,"exp",12,3,9,"B",2811
"1944","noload",36,"exp",12,4,10,"B",2868
"1945","noload",36,"exp",12,5,3,"A",2490
"1946","noload",36,"exp",12,6,8,"B",1646
"1947","noload",36,"exp",12,7,5,"A",2832
"1948","noload",36,"exp",12,8,2,"A",1944
"1949","noload",36,"exp",12,9,6,"B",2207
"1950","noload",36,"exp",12,10,1,"A",1213
"1951","noload",4,"prac",0,1,0,"A",4324
"1952","noload",4,"prac",0,2,0,"B",3017
"1953","noload",4,"prac",0,3,0,"A",1467
"1954","noload",4,"prac",0,4,0,"B",1634
"1955","noload",4,"prac",0,5,0,"B",1236
"1956","noload",4,"prac",0,6,0,"A",948
"1957","noload",4,"prac",0,7,0,"B",1438
"1958","noload",4,"prac",0,8,0,"A",1159
"1959","noload",4,"prac",0,9,0,"B",1610
"1960","noload",4,"prac",0,10,0,"A",1085
"1961","noload",4,"exp",1,1,10,"B",3369
"1962","noload",4,"exp",1,2,2,"B",13039
"1963","noload",4,"exp",1,3,1,"A",4225
"1964","noload",4,"exp",1,4,3,"A",5081
"1965","noload",4,"exp",1,5,6,"B",4099
"1966","noload",4,"exp",1,6,5,"B",6431
"1967","noload",4,"exp",1,7,8,"B",3961
"1968","noload",4,"exp",1,8,7,"B",4890
"1969","noload",4,"exp",1,9,4,"A",7563
"1970","noload",4,"exp",1,10,9,"B",2717
"1971","noload",4,"exp",2,1,2,"A",6467
"1972","noload",4,"exp",2,2,7,"B",3196
"1973","noload",4,"exp",2,3,3,"A",3912
"1974","noload",4,"exp",2,4,8,"B",5322
"1975","noload",4,"exp",2,5,10,"B",4907
"1976","noload",4,"exp",2,6,4,"A",11034
"1977","noload",4,"exp",2,7,1,"A",6724
"1978","noload",4,"exp",2,8,5,"B",7140
"1979","noload",4,"exp",2,9,6,"B",2022
"1980","noload",4,"exp",2,10,9,"B",1867
"1981","noload",4,"exp",3,1,4,"A",3091
"1982","noload",4,"exp",3,2,3,"A",3251
"1983","noload",4,"exp",3,3,7,"B",3931
"1984","noload",4,"exp",3,4,1,"A",4044
"1985","noload",4,"exp",3,5,6,"B",4378
"1986","noload",4,"exp",3,6,9,"B",3084
"1987","noload",4,"exp",3,7,5,"B",10124
"1988","noload",4,"exp",3,8,10,"B",4133
"1989","noload",4,"exp",3,9,2,"A",5599
"1990","noload",4,"exp",3,10,8,"B",6135
"1991","noload",4,"exp",4,1,1,"A",2434
"1992","noload",4,"exp",4,2,4,"A",1880
"1993","noload",4,"exp",4,3,5,"A",1778
"1994","noload",4,"exp",4,4,6,"B",1375
"1995","noload",4,"exp",4,5,3,"B",1914
"1996","noload",4,"exp",4,6,9,"B",1026
"1997","noload",4,"exp",4,7,8,"B",1770
"1998","noload",4,"exp",4,8,7,"B",4487
"1999","noload",4,"exp",4,9,10,"B",1460
"2000","noload",4,"exp",4,10,2,"A",4492
"2001","noload",4,"exp",5,1,9,"B",3664
"2002","noload",4,"exp",5,2,5,"A",4587
"2003","noload",4,"exp",5,3,7,"B",5078
"2004","noload",4,"exp",5,4,10,"B",7584
"2005","noload",4,"exp",5,5,1,"A",10769
"2006","noload",4,"exp",5,6,8,"B",4820
"2007","noload",4,"exp",5,7,4,"B",5399
"2008","noload",4,"exp",5,8,6,"B",4149
"2009","noload",4,"exp",5,9,3,"A",3056
"2010","noload",4,"exp",5,10,2,"A",5808
"2011","noload",4,"exp",6,1,5,"A",7034
"2012","noload",4,"exp",6,2,8,"B",3199
"2013","noload",4,"exp",6,3,7,"B",2970
"2014","noload",4,"exp",6,4,1,"A",2878
"2015","noload",4,"exp",6,5,10,"B",7876
"2016","noload",4,"exp",6,6,6,"B",3212
"2017","noload",4,"exp",6,7,9,"B",3495
"2018","noload",4,"exp",6,8,3,"A",3063
"2019","noload",4,"exp",6,9,4,"A",9528
"2020","noload",4,"exp",6,10,2,"A",5510
"2021","noload",4,"exp",7,1,1,"A",3620
"2022","noload",4,"exp",7,2,10,"B",1889
"2023","noload",4,"exp",7,3,8,"B",4778
"2024","noload",4,"exp",7,4,5,"A",4893
"2025","noload",4,"exp",7,5,9,"B",4781
"2026","noload",4,"exp",7,6,2,"A",4130
"2027","noload",4,"exp",7,7,4,"A",6812
"2028","noload",4,"exp",7,8,3,"A",4986
"2029","noload",4,"exp",7,9,7,"B",4311
"2030","noload",4,"exp",7,10,6,"B",3100
"2031","noload",4,"exp",8,1,9,"B",2458
"2032","noload",4,"exp",8,2,1,"A",3183
"2033","noload",4,"exp",8,3,2,"A",9755
"2034","noload",4,"exp",8,4,8,"B",4113
"2035","noload",4,"exp",8,5,7,"B",2764
"2036","noload",4,"exp",8,6,10,"A",4311
"2037","noload",4,"exp",8,7,6,"B",1739
"2038","noload",4,"exp",8,8,5,"A",2313
"2039","noload",4,"exp",8,9,4,"A",9459
"2040","noload",4,"exp",8,10,3,"A",4676
"2041","noload",4,"exp",9,1,3,"A",13114
"2042","noload",4,"exp",9,2,6,"B",6570
"2043","noload",4,"exp",9,3,4,"A",4736
"2044","noload",4,"exp",9,4,7,"B",12150
"2045","noload",4,"exp",9,5,2,"A",3481
"2046","noload",4,"exp",9,6,10,"B",4891
"2047","noload",4,"exp",9,7,5,"A",6810
"2048","noload",4,"exp",9,8,9,"B",7544
"2049","noload",4,"exp",9,9,8,"B",4235
"2050","noload",4,"exp",9,10,1,"A",3554
"2051","noload",4,"exp",10,1,2,"A",5397
"2052","noload",4,"exp",10,2,8,"B",7586
"2053","noload",4,"exp",10,3,3,"A",6229
"2054","noload",4,"exp",10,4,9,"B",6086
"2055","noload",4,"exp",10,5,7,"B",4269
"2056","noload",4,"exp",10,6,5,"B",9075
"2057","noload",4,"exp",10,7,10,"B",3441
"2058","noload",4,"exp",10,8,1,"A",5107
"2059","noload",4,"exp",10,9,4,"A",3771
"2060","noload",4,"exp",10,10,6,"B",2851
"2061","noload",4,"exp",11,1,5,"A",10957
"2062","noload",4,"exp",11,2,4,"A",3930
"2063","noload",4,"exp",11,3,9,"B",6092
"2064","noload",4,"exp",11,4,6,"B",2625
"2065","noload",4,"exp",11,5,7,"B",4640
"2066","noload",4,"exp",11,6,10,"B",3898
"2067","noload",4,"exp",11,7,1,"A",5692
"2068","noload",4,"exp",11,8,8,"B",1361
"2069","noload",4,"exp",11,9,2,"B",7692
"2070","noload",4,"exp",11,10,3,"A",4555
"2071","noload",4,"exp",12,1,9,"B",2701
"2072","noload",4,"exp",12,2,3,"A",2761
"2073","noload",4,"exp",12,3,7,"B",3124
"2074","noload",4,"exp",12,4,6,"B",2114
"2075","noload",4,"exp",12,5,2,"A",3683
"2076","noload",4,"exp",12,6,10,"B",7405
"2077","noload",4,"exp",12,7,5,"A",5270
"2078","noload",4,"exp",12,8,1,"A",6296
"2079","noload",4,"exp",12,9,4,"A",5432
"2080","noload",4,"exp",12,10,8,"B",2213
"2081","noload",6,"prac",0,1,0,"A",2995
"2082","noload",6,"prac",0,2,0,"A",4502
"2083","noload",6,"prac",0,3,0,"A",4067
"2084","noload",6,"prac",0,4,0,"B",1488
"2085","noload",6,"prac",0,5,0,"B",1959
"2086","noload",6,"prac",0,6,0,"B",1517
"2087","noload",6,"prac",0,7,0,"A",947
"2088","noload",6,"prac",0,8,0,"B",1693
"2089","noload",6,"prac",0,9,0,"A",861
"2090","noload",6,"prac",0,10,0,"A",858
"2091","noload",6,"exp",1,1,3,"A",3951
"2092","noload",6,"exp",1,2,2,"A",2255
"2093","noload",6,"exp",1,3,1,"A",2075
"2094","noload",6,"exp",1,4,7,"B",8077
"2095","noload",6,"exp",1,5,10,"B",2382
"2096","noload",6,"exp",1,6,4,"A",3718
"2097","noload",6,"exp",1,7,9,"B",4255
"2098","noload",6,"exp",1,8,8,"B",2390
"2099","noload",6,"exp",1,9,5,"A",2381
"2100","noload",6,"exp",1,10,6,"B",2805
"2101","noload",6,"exp",2,1,1,"A",2411
"2102","noload",6,"exp",2,2,10,"B",1634
"2103","noload",6,"exp",2,3,5,"A",2372
"2104","noload",6,"exp",2,4,3,"A",1916
"2105","noload",6,"exp",2,5,7,"B",2532
"2106","noload",6,"exp",2,6,2,"A",1831
"2107","noload",6,"exp",2,7,9,"B",1938
"2108","noload",6,"exp",2,8,4,"A",2554
"2109","noload",6,"exp",2,9,8,"B",2059
"2110","noload",6,"exp",2,10,6,"B",2158
"2111","noload",6,"exp",3,1,1,"A",2010
"2112","noload",6,"exp",3,2,3,"A",2127
"2113","noload",6,"exp",3,3,6,"B",2991
"2114","noload",6,"exp",3,4,4,"A",2706
"2115","noload",6,"exp",3,5,2,"A",1823
"2116","noload",6,"exp",3,6,7,"B",1882
"2117","noload",6,"exp",3,7,8,"B",3028
"2118","noload",6,"exp",3,8,9,"B",2645
"2119","noload",6,"exp",3,9,5,"A",2228
"2120","noload",6,"exp",3,10,10,"B",1841
"2121","noload",6,"exp",4,1,10,"B",2959
"2122","noload",6,"exp",4,2,2,"A",1123
"2123","noload",6,"exp",4,3,9,"B",1735
"2124","noload",6,"exp",4,4,7,"B",3094
"2125","noload",6,"exp",4,5,6,"B",2917
"2126","noload",6,"exp",4,6,5,"A",1210
"2127","noload",6,"exp",4,7,3,"A",2699
"2128","noload",6,"exp",4,8,1,"A",4664
"2129","noload",6,"exp",4,9,8,"B",2240
"2130","noload",6,"exp",4,10,4,"A",3741
"2131","noload",6,"exp",5,1,10,"B",4677
"2132","noload",6,"exp",5,2,2,"A",4173
"2133","noload",6,"exp",5,3,8,"B",2070
"2134","noload",6,"exp",5,4,9,"B",3609
"2135","noload",6,"exp",5,5,6,"B",2054
"2136","noload",6,"exp",5,6,4,"A",2906
"2137","noload",6,"exp",5,7,5,"A",2127
"2138","noload",6,"exp",5,8,1,"A",1984
"2139","noload",6,"exp",5,9,7,"B",2982
"2140","noload",6,"exp",5,10,3,"A",2616
"2141","noload",6,"exp",6,1,10,"B",2309
"2142","noload",6,"exp",6,2,7,"B",2079
"2143","noload",6,"exp",6,3,3,"A",2593
"2144","noload",6,"exp",6,4,1,"A",2050
"2145","noload",6,"exp",6,5,2,"A",1941
"2146","noload",6,"exp",6,6,6,"B",1804
"2147","noload",6,"exp",6,7,9,"B",3608
"2148","noload",6,"exp",6,8,4,"A",2246
"2149","noload",6,"exp",6,9,8,"B",1970
"2150","noload",6,"exp",6,10,5,"A",1385
"2151","noload",6,"exp",7,1,7,"B",1635
"2152","noload",6,"exp",7,2,10,"A",2085
"2153","noload",6,"exp",7,3,4,"A",3159
"2154","noload",6,"exp",7,4,8,"B",1524
"2155","noload",6,"exp",7,5,3,"A",1674
"2156","noload",6,"exp",7,6,9,"B",4827
"2157","noload",6,"exp",7,7,5,"A",6189
"2158","noload",6,"exp",7,8,6,"B",1872
"2159","noload",6,"exp",7,9,1,"A",1706
"2160","noload",6,"exp",7,10,2,"A",1930
"2161","noload",6,"exp",8,1,8,"B",2726
"2162","noload",6,"exp",8,2,4,"A",1857
"2163","noload",6,"exp",8,3,9,"B",4971
"2164","noload",6,"exp",8,4,5,"A",1465
"2165","noload",6,"exp",8,5,10,"B",2417
"2166","noload",6,"exp",8,6,6,"B",2152
"2167","noload",6,"exp",8,7,1,"A",1736
"2168","noload",6,"exp",8,8,3,"A",6774
"2169","noload",6,"exp",8,9,2,"A",2565
"2170","noload",6,"exp",8,10,7,"B",1813
"2171","noload",6,"exp",9,1,6,"B",2248
"2172","noload",6,"exp",9,2,3,"A",6213
"2173","noload",6,"exp",9,3,8,"B",1191
"2174","noload",6,"exp",9,4,4,"A",2089
"2175","noload",6,"exp",9,5,10,"B",2987
"2176","noload",6,"exp",9,6,7,"B",3022
"2177","noload",6,"exp",9,7,5,"A",2255
"2178","noload",6,"exp",9,8,1,"A",1835
"2179","noload",6,"exp",9,9,2,"B",3590
"2180","noload",6,"exp",9,10,9,"B",2979
"2181","noload",6,"exp",10,1,1,"A",1404
"2182","noload",6,"exp",10,2,2,"A",2342
"2183","noload",6,"exp",10,3,5,"A",3519
"2184","noload",6,"exp",10,4,7,"B",3151
"2185","noload",6,"exp",10,5,4,"B",2956
"2186","noload",6,"exp",10,6,3,"A",5728
"2187","noload",6,"exp",10,7,10,"B",2051
"2188","noload",6,"exp",10,8,9,"B",1591
"2189","noload",6,"exp",10,9,6,"B",1658
"2190","noload",6,"exp",10,10,8,"B",2555
"2191","noload",6,"exp",11,1,7,"B",3490
"2192","noload",6,"exp",11,2,8,"B",4435
"2193","noload",6,"exp",11,3,9,"B",2339
"2194","noload",6,"exp",11,4,2,"A",1852
"2195","noload",6,"exp",11,5,1,"A",1767
"2196","noload",6,"exp",11,6,5,"A",2052
"2197","noload",6,"exp",11,7,6,"B",1560
"2198","noload",6,"exp",11,8,4,"A",1804
"2199","noload",6,"exp",11,9,10,"B",3624
"2200","noload",6,"exp",11,10,3,"B",3412
"2201","noload",6,"exp",12,1,4,"A",1773
"2202","noload",6,"exp",12,2,8,"B",2410
"2203","noload",6,"exp",12,3,10,"B",2801
"2204","noload",6,"exp",12,4,5,"A",2619
"2205","noload",6,"exp",12,5,1,"A",1898
"2206","noload",6,"exp",12,6,7,"B",1283
"2207","noload",6,"exp",12,7,6,"B",1265
"2208","noload",6,"exp",12,8,3,"A",2528
"2209","noload",6,"exp",12,9,9,"B",1923
"2210","noload",6,"exp",12,10,2,"A",4474
"2211","noload",8,"prac",0,1,0,"A",97991
"2212","noload",8,"prac",0,2,0,"B",1285
"2213","noload",8,"prac",0,3,0,"B",2179
"2214","noload",8,"prac",0,4,0,"A",1170
"2215","noload",8,"prac",0,5,0,"B",1044
"2216","noload",8,"prac",0,6,0,"A",811
"2217","noload",8,"prac",0,7,0,"A",602
"2218","noload",8,"prac",0,8,0,"B",464
"2219","noload",8,"prac",0,9,0,"A",603
"2220","noload",8,"prac",0,10,0,"B",1025
"2221","noload",8,"exp",1,1,5,"A",2822
"2222","noload",8,"exp",1,2,7,"B",6062
"2223","noload",8,"exp",1,3,4,"B",4678
"2224","noload",8,"exp",1,4,1,"A",1981
"2225","noload",8,"exp",1,5,6,"B",2899
"2226","noload",8,"exp",1,6,9,"A",4281
"2227","noload",8,"exp",1,7,2,"A",2623
"2228","noload",8,"exp",1,8,8,"B",2350
"2229","noload",8,"exp",1,9,3,"A",1655
"2230","noload",8,"exp",1,10,10,"B",6072
"2231","noload",8,"exp",2,1,1,"A",6673
"2232","noload",8,"exp",2,2,8,"B",1763
"2233","noload",8,"exp",2,3,10,"B",5808
"2234","noload",8,"exp",2,4,2,"A",2528
"2235","noload",8,"exp",2,5,3,"A",2131
"2236","noload",8,"exp",2,6,6,"B",1684
"2237","noload",8,"exp",2,7,7,"B",3027
"2238","noload",8,"exp",2,8,4,"A",3013
"2239","noload",8,"exp",2,9,5,"A",4727
"2240","noload",8,"exp",2,10,9,"B",7724
"2241","noload",8,"exp",3,1,8,"B",2032
"2242","noload",8,"exp",3,2,9,"B",4900
"2243","noload",8,"exp",3,3,7,"B",2580
"2244","noload",8,"exp",3,4,3,"A",2276
"2245","noload",8,"exp",3,5,5,"B",1584
"2246","noload",8,"exp",3,6,4,"A",4100
"2247","noload",8,"exp",3,7,6,"B",7151
"2248","noload",8,"exp",3,8,1,"A",4081
"2249","noload",8,"exp",3,9,2,"A",4189
"2250","noload",8,"exp",3,10,10,"B",5142
"2251","noload",8,"exp",4,1,4,"A",5155
"2252","noload",8,"exp",4,2,6,"B",3259
"2253","noload",8,"exp",4,3,10,"B",3396
"2254","noload",8,"exp",4,4,3,"A",2569
"2255","noload",8,"exp",4,5,5,"A",5450
"2256","noload",8,"exp",4,6,7,"B",8295
"2257","noload",8,"exp",4,7,1,"A",4865
"2258","noload",8,"exp",4,8,9,"B",2610
"2259","noload",8,"exp",4,9,8,"B",2865
"2260","noload",8,"exp",4,10,2,"A",5896
"2261","noload",8,"exp",5,1,8,"B",4597
"2262","noload",8,"exp",5,2,1,"A",2431
"2263","noload",8,"exp",5,3,2,"B",1397
"2264","noload",8,"exp",5,4,7,"B",3440
"2265","noload",8,"exp",5,5,9,"B",4514
"2266","noload",8,"exp",5,6,3,"A",3712
"2267","noload",8,"exp",5,7,6,"B",3096
"2268","noload",8,"exp",5,8,10,"B",3592
"2269","noload",8,"exp",5,9,5,"A",2245
"2270","noload",8,"exp",5,10,4,"A",3826
"2271","noload",8,"exp",6,1,7,"B",2181
"2272","noload",8,"exp",6,2,5,"A",2468
"2273","noload",8,"exp",6,3,1,"A",3961
"2274","noload",8,"exp",6,4,3,"A",5674
"2275","noload",8,"exp",6,5,6,"B",2558
"2276","noload",8,"exp",6,6,10,"B",3376
"2277","noload",8,"exp",6,7,4,"A",4165
"2278","noload",8,"exp",6,8,2,"B",1775
"2279","noload",8,"exp",6,9,9,"B",2475
"2280","noload",8,"exp",6,10,8,"B",3200
"2281","noload",8,"exp",7,1,7,"B",6486
"2282","noload",8,"exp",7,2,3,"A",3438
"2283","noload",8,"exp",7,3,6,"B",1521
"2284","noload",8,"exp",7,4,5,"A",2230
"2285","noload",8,"exp",7,5,4,"A",1892
"2286","noload",8,"exp",7,6,10,"B",1340
"2287","noload",8,"exp",7,7,8,"B",3689
"2288","noload",8,"exp",7,8,9,"B",2083
"2289","noload",8,"exp",7,9,1,"A",1205
"2290","noload",8,"exp",7,10,2,"A",2198
"2291","noload",8,"exp",8,1,1,"A",2090
"2292","noload",8,"exp",8,2,8,"B",3052
"2293","noload",8,"exp",8,3,9,"B",3100
"2294","noload",8,"exp",8,4,4,"A",1434
"2295","noload",8,"exp",8,5,6,"B",1971
"2296","noload",8,"exp",8,6,2,"A",2394
"2297","noload",8,"exp",8,7,5,"A",3617
"2298","noload",8,"exp",8,8,7,"B",4350
"2299","noload",8,"exp",8,9,10,"B",2017
"2300","noload",8,"exp",8,10,3,"A",2614
"2301","noload",8,"exp",9,1,6,"B",3690
"2302","noload",8,"exp",9,2,4,"A",1221
"2303","noload",8,"exp",9,3,10,"B",1781
"2304","noload",8,"exp",9,4,7,"B",1841
"2305","noload",8,"exp",9,5,1,"A",1148
"2306","noload",8,"exp",9,6,5,"A",1295
"2307","noload",8,"exp",9,7,9,"B",1580
"2308","noload",8,"exp",9,8,8,"A",1984
"2309","noload",8,"exp",9,9,2,"A",5046
"2310","noload",8,"exp",9,10,3,"A",2625
"2311","noload",8,"exp",10,1,6,"B",3877
"2312","noload",8,"exp",10,2,3,"A",3065
"2313","noload",8,"exp",10,3,9,"B",1145
"2314","noload",8,"exp",10,4,7,"B",3899
"2315","noload",8,"exp",10,5,5,"A",6413
"2316","noload",8,"exp",10,6,4,"A",3257
"2317","noload",8,"exp",10,7,10,"B",1394
"2318","noload",8,"exp",10,8,2,"A",2332
"2319","noload",8,"exp",10,9,8,"B",1990
"2320","noload",8,"exp",10,10,1,"A",3899
"2321","noload",8,"exp",11,1,7,"B",2227
"2322","noload",8,"exp",11,2,6,"B",2144
"2323","noload",8,"exp",11,3,10,"B",3664
"2324","noload",8,"exp",11,4,5,"A",3707
"2325","noload",8,"exp",11,5,1,"A",1732
"2326","noload",8,"exp",11,6,8,"B",2387
"2327","noload",8,"exp",11,7,3,"A",4251
"2328","noload",8,"exp",11,8,9,"B",2321
"2329","noload",8,"exp",11,9,2,"A",5979
"2330","noload",8,"exp",11,10,4,"A",3477
"2331","noload",8,"exp",12,1,6,"B",9847
"2332","noload",8,"exp",12,2,3,"A",3274
"2333","noload",8,"exp",12,3,5,"A",2499
"2334","noload",8,"exp",12,4,1,"A",3255
"2335","noload",8,"exp",12,5,4,"A",4112
"2336","noload",8,"exp",12,6,9,"B",1532
"2337","noload",8,"exp",12,7,7,"B",5137
"2338","noload",8,"exp",12,8,2,"A",2841
"2339","noload",8,"exp",12,9,8,"B",3312
"2340","noload",8,"exp",12,10,10,"A",8711
"2341","load",1,"prac",0,1,0,"B",5827
"2342","load",1,"prac",0,2,0,"A",4210
"2343","load",1,"prac",0,3,0,"A",1211
"2344","load",1,"prac",0,4,0,"A",2603
"2345","load",1,"prac",0,5,0,"B",1419
"2346","load",1,"prac",0,6,0,"B",4564
"2347","load",1,"prac",0,7,0,"A",831
"2348","load",1,"prac",0,8,0,"A",509
"2349","load",1,"prac",0,9,0,"B",710
"2350","load",1,"prac",0,10,0,"B",1465
"2351","load",1,"exp",1,1,1,"A",6524
"2352","load",1,"exp",1,2,8,"B",5571
"2353","load",1,"exp",1,3,3,"A",3322
"2354","load",1,"exp",1,4,5,"A",5120
"2355","load",1,"exp",1,5,9,"A",1271
"2356","load",1,"exp",1,6,2,"A",3030
"2357","load",1,"exp",1,7,4,"B",4549
"2358","load",1,"exp",1,8,7,"B",2496
"2359","load",1,"exp",1,9,6,"B",3956
"2360","load",1,"exp",1,10,10,"B",772
"2361","load",1,"exp",2,1,3,"A",2786
"2362","load",1,"exp",2,2,2,"A",2780
"2363","load",1,"exp",2,3,10,"B",4614
"2364","load",1,"exp",2,4,4,"B",4287
"2365","load",1,"exp",2,5,8,"B",2452
"2366","load",1,"exp",2,6,1,"A",5098
"2367","load",1,"exp",2,7,7,"B",2931
"2368","load",1,"exp",2,8,9,"A",2168
"2369","load",1,"exp",2,9,5,"A",2615
"2370","load",1,"exp",2,10,6,"B",999
"2371","load",1,"exp",3,1,4,"B",2972
"2372","load",1,"exp",3,2,7,"B",1664
"2373","load",1,"exp",3,3,2,"A",1440
"2374","load",1,"exp",3,4,3,"A",2106
"2375","load",1,"exp",3,5,1,"A",2827
"2376","load",1,"exp",3,6,5,"B",5827
"2377","load",1,"exp",3,7,10,"B",1587
"2378","load",1,"exp",3,8,8,"B",3079
"2379","load",1,"exp",3,9,6,"B",1111
"2380","load",1,"exp",3,10,9,"A",1195
"2381","load",1,"exp",4,1,10,"B",2265
"2382","load",1,"exp",4,2,9,"A",4197
"2383","load",1,"exp",4,3,4,"B",2125
"2384","load",1,"exp",4,4,3,"A",2046
"2385","load",1,"exp",4,5,7,"B",1218
"2386","load",1,"exp",4,6,8,"B",930
"2387","load",1,"exp",4,7,5,"B",1052
"2388","load",1,"exp",4,8,1,"A",787
"2389","load",1,"exp",4,9,2,"A",1682
"2390","load",1,"exp",4,10,6,"B",819
"2391","load",1,"exp",5,1,3,"A",1115
"2392","load",1,"exp",5,2,6,"B",1663
"2393","load",1,"exp",5,3,7,"B",960
"2394","load",1,"exp",5,4,9,"A",810
"2395","load",1,"exp",5,5,4,"B",633
"2396","load",1,"exp",5,6,2,"A",909
"2397","load",1,"exp",5,7,8,"B",745
"2398","load",1,"exp",5,8,10,"B",986
"2399","load",1,"exp",5,9,5,"A",1043
"2400","load",1,"exp",5,10,1,"A",842
"2401","load",1,"exp",6,1,2,"A",992
"2402","load",1,"exp",6,2,6,"B",1049
"2403","load",1,"exp",6,3,4,"B",1391
"2404","load",1,"exp",6,4,1,"A",921
"2405","load",1,"exp",6,5,9,"A",835
"2406","load",1,"exp",6,6,8,"B",1281
"2407","load",1,"exp",6,7,10,"B",1919
"2408","load",1,"exp",6,8,5,"A",984
"2409","load",1,"exp",6,9,7,"B",2208
"2410","load",1,"exp",6,10,3,"A",622
"2411","load",1,"exp",7,1,7,"B",2042
"2412","load",1,"exp",7,2,5,"A",1390
"2413","load",1,"exp",7,3,6,"B",1017
"2414","load",1,"exp",7,4,9,"A",736
"2415","load",1,"exp",7,5,4,"B",593
"2416","load",1,"exp",7,6,8,"B",1304
"2417","load",1,"exp",7,7,2,"A",677
"2418","load",1,"exp",7,8,10,"B",1032
"2419","load",1,"exp",7,9,1,"A",1023
"2420","load",1,"exp",7,10,3,"A",1222
"2421","load",1,"exp",8,1,6,"B",1007
"2422","load",1,"exp",8,2,9,"A",935
"2423","load",1,"exp",8,3,1,"A",1074
"2424","load",1,"exp",8,4,2,"A",711
"2425","load",1,"exp",8,5,3,"A",538
"2426","load",1,"exp",8,6,10,"B",898
"2427","load",1,"exp",8,7,8,"B",957
"2428","load",1,"exp",8,8,5,"A",503
"2429","load",1,"exp",8,9,7,"B",625
"2430","load",1,"exp",8,10,4,"B",502
"2431","load",1,"exp",9,1,3,"A",678
"2432","load",1,"exp",9,2,4,"B",809
"2433","load",1,"exp",9,3,6,"B",984
"2434","load",1,"exp",9,4,1,"A",881
"2435","load",1,"exp",9,5,8,"B",877
"2436","load",1,"exp",9,6,7,"B",1850
"2437","load",1,"exp",9,7,10,"B",644
"2438","load",1,"exp",9,8,5,"A",744
"2439","load",1,"exp",9,9,9,"A",842
"2440","load",1,"exp",9,10,2,"A",1016
"2441","load",1,"exp",10,1,8,"A",881
"2442","load",1,"exp",10,2,1,"A",1149
"2443","load",1,"exp",10,3,9,"B",832
"2444","load",1,"exp",10,4,7,"B",1517
"2445","load",1,"exp",10,5,5,"A",722
"2446","load",1,"exp",10,6,3,"A",3252
"2447","load",1,"exp",10,7,4,"B",590
"2448","load",1,"exp",10,8,2,"A",1476
"2449","load",1,"exp",10,9,6,"B",763
"2450","load",1,"exp",10,10,10,"B",1051
"2451","load",1,"exp",11,1,7,"B",881
"2452","load",1,"exp",11,2,9,"A",749
"2453","load",1,"exp",11,3,10,"B",541
"2454","load",1,"exp",11,4,8,"B",806
"2455","load",1,"exp",11,5,1,"A",917
"2456","load",1,"exp",11,6,6,"B",544
"2457","load",1,"exp",11,7,5,"A",1176
"2458","load",1,"exp",11,8,3,"A",858
"2459","load",1,"exp",11,9,4,"B",807
"2460","load",1,"exp",11,10,2,"A",2389
"2461","load",1,"exp",12,1,1,"A",1037
"2462","load",1,"exp",12,2,10,"B",612
"2463","load",1,"exp",12,3,8,"B",698
"2464","load",1,"exp",12,4,2,"A",861
"2465","load",1,"exp",12,5,3,"A",906
"2466","load",1,"exp",12,6,9,"A",757
"2467","load",1,"exp",12,7,5,"A",806
"2468","load",1,"exp",12,8,6,"B",1509
"2469","load",1,"exp",12,9,4,"B",1018
"2470","load",1,"exp",12,10,7,"B",1203
"2471","load",11,"prac",0,1,0,"A",27425
"2472","load",11,"prac",0,2,0,"B",13501
"2473","load",11,"prac",0,3,0,"A",22497
"2474","load",11,"prac",0,4,0,"A",7578
"2475","load",11,"prac",0,5,0,"B",11741
"2476","load",11,"prac",0,6,0,"A",1693
"2477","load",11,"prac",0,7,0,"B",4957
"2478","load",11,"prac",0,8,0,"B",859
"2479","load",11,"prac",0,9,0,"B",1224
"2480","load",11,"prac",0,10,0,"A",729
"2481","load",11,"exp",1,1,3,"A",16343
"2482","load",11,"exp",1,2,10,"B",3127
"2483","load",11,"exp",1,3,8,"B",8836
"2484","load",11,"exp",1,4,5,"A",5131
"2485","load",11,"exp",1,5,6,"B",5250
"2486","load",11,"exp",1,6,7,"B",7734
"2487","load",11,"exp",1,7,4,"A",4723
"2488","load",11,"exp",1,8,9,"B",6377
"2489","load",11,"exp",1,9,1,"A",4278
"2490","load",11,"exp",1,10,2,"A",4283
"2491","load",11,"exp",2,1,8,"B",14624
"2492","load",11,"exp",2,2,1,"A",4860
"2493","load",11,"exp",2,3,7,"B",3981
"2494","load",11,"exp",2,4,3,"A",6893
"2495","load",11,"exp",2,5,6,"B",6647
"2496","load",11,"exp",2,6,10,"B",2618
"2497","load",11,"exp",2,7,5,"A",1386
"2498","load",11,"exp",2,8,4,"A",5141
"2499","load",11,"exp",2,9,9,"B",1148
"2500","load",11,"exp",2,10,2,"A",3327
"2501","load",11,"exp",3,1,2,"A",2580
"2502","load",11,"exp",3,2,10,"B",1669
"2503","load",11,"exp",3,3,4,"A",2709
"2504","load",11,"exp",3,4,3,"A",3522
"2505","load",11,"exp",3,5,5,"B",866
"2506","load",11,"exp",3,6,1,"A",1198
"2507","load",11,"exp",3,7,6,"B",1376
"2508","load",11,"exp",3,8,9,"B",1115
"2509","load",11,"exp",3,9,8,"B",1055
"2510","load",11,"exp",3,10,7,"B",2229
"2511","load",11,"exp",4,1,1,"A",2180
"2512","load",11,"exp",4,2,10,"B",2691
"2513","load",11,"exp",4,3,6,"B",1072
"2514","load",11,"exp",4,4,4,"A",4085
"2515","load",11,"exp",4,5,7,"B",1202
"2516","load",11,"exp",4,6,9,"B",1427
"2517","load",11,"exp",4,7,5,"B",3244
"2518","load",11,"exp",4,8,2,"A",1797
"2519","load",11,"exp",4,9,8,"B",1058
"2520","load",11,"exp",4,10,3,"A",2664
"2521","load",11,"exp",5,1,5,"B",1612
"2522","load",11,"exp",5,2,9,"B",2479
"2523","load",11,"exp",5,3,4,"A",1171
"2524","load",11,"exp",5,4,3,"A",2469
"2525","load",11,"exp",5,5,10,"A",2683
"2526","load",11,"exp",5,6,2,"A",1560
"2527","load",11,"exp",5,7,6,"B",4380
"2528","load",11,"exp",5,8,1,"A",1790
"2529","load",11,"exp",5,9,7,"B",939
"2530","load",11,"exp",5,10,8,"B",933
"2531","load",11,"exp",6,1,1,"A",2002
"2532","load",11,"exp",6,2,8,"B",1672
"2533","load",11,"exp",6,3,7,"B",1496
"2534","load",11,"exp",6,4,5,"B",1119
"2535","load",11,"exp",6,5,4,"A",4083
"2536","load",11,"exp",6,6,9,"B",1711
"2537","load",11,"exp",6,7,3,"A",1230
"2538","load",11,"exp",6,8,10,"B",2478
"2539","load",11,"exp",6,9,6,"B",4210
"2540","load",11,"exp",6,10,2,"B",2074
"2541","load",11,"exp",7,1,10,"B",1038
"2542","load",11,"exp",7,2,8,"B",1157
"2543","load",11,"exp",7,3,4,"A",3128
"2544","load",11,"exp",7,4,3,"A",1286
