DAU,Participant,Condition,Block,Trial,StimulusNo,Xvalue,Yvalue,Difficulty,Category,CorrectButton,Response,Correct,RT
PLY75,101,EasyHard,1,1,2,0.033,67.07,Easy,A,c,c,1,1969
PLY75,101,EasyHard,1,2,28,0.153,31.95,Easy,B,m,c,0,2849
PLY75,101,EasyHard,1,3,3,0.056,78.04,Easy,A,c,m,0,2543
PLY75,101,EasyHard,1,4,30,0.2,53.9,Easy,B,m,c,0,3049
PLY75,101,EasyHard,1,5,5,0.102,100,Easy,A,c,c,1,7231
PLY75,101,EasyHard,1,6,26,0.107,10,Easy,B,m,m,1,2335
PLY75,101,EasyHard,1,7,27,0.13,20.97,Easy,B,m,c,0,2354
PLY75,101,EasyHard,1,8,2,0.033,67.07,Easy,A,c,m,0,2099
PLY75,101,EasyHard,1,9,2,0.033,67.07,Easy,A,c,m,0,1103
PLY75,101,EasyHard,1,10,4,0.079,89.02,Easy,A,c,c,1,1779
PLY75,101,EasyHard,1,11,3,0.056,78.04,Easy,A,c,c,1,3291
PLY75,101,EasyHard,1,12,30,0.2,53.9,Easy,B,m,m,1,1272
PLY75,101,EasyHard,1,13,4,0.079,89.02,Easy,A,c,c,1,2115
PLY75,101,EasyHard,1,14,30,0.2,53.9,Easy,B,m,m,1,1213
PLY75,101,EasyHard,1,15,1,0.01,56.09,Easy,A,c,m,0,1149
PLY75,101,EasyHard,1,16,28,0.153,31.95,Easy,B,m,m,1,1342
PLY75,101,EasyHard,1,17,29,0.176,42.92,Easy,B,m,m,1,1384
PLY75,101,EasyHard,1,18,27,0.13,20.97,Easy,B,m,m,1,1791
PLY75,101,EasyHard,1,19,3,0.056,78.04,Easy,A,c,c,1,1303
PLY75,101,EasyHard,1,20,26,0.107,10,Easy,B,m,c,0,963
PLY75,101,EasyHard,1,21,1,0.01,56.09,Easy,A,c,m,0,956
PLY75,101,EasyHard,1,22,5,0.102,100,Easy,A,c,c,1,2517
PLY75,101,EasyHard,1,23,2,0.033,67.07,Easy,A,c,m,0,1360
PLY75,101,EasyHard,1,24,2,0.033,67.07,Easy,A,c,c,1,841
PLY75,101,EasyHard,1,25,27,0.13,20.97,Easy,B,m,m,1,839
PLY75,101,EasyHard,1,26,4,0.079,89.02,Easy,A,c,c,1,917
PLY75,101,EasyHard,1,27,5,0.102,100,Easy,A,c,c,1,1456
PLY75,101,EasyHard,1,28,3,0.056,78.04,Easy,A,c,m,0,757
PLY75,101,EasyHard,1,29,5,0.102,100,Easy,A,c,c,1,2182
PLY75,101,EasyHard,1,30,4,0.079,89.02,Easy,A,c,m,0,1247
PLY75,101,EasyHard,1,31,3,0.056,78.04,Easy,A,c,c,1,1133
PLY75,101,EasyHard,1,32,2,0.033,67.07,Easy,A,c,m,0,1007
PLY75,101,EasyHard,1,33,29,0.176,42.92,Easy,B,m,m,1,998
PLY75,101,EasyHard,1,34,26,0.107,10,Easy,B,m,c,0,990
PLY75,101,EasyHard,1,35,1,0.01,56.09,Easy,A,c,c,1,1302
PLY75,101,EasyHard,1,36,5,0.102,100,Easy,A,c,c,1,3520
PLY75,101,EasyHard,1,37,26,0.107,10,Easy,B,m,m,1,3491
PLY75,101,EasyHard,1,38,30,0.2,53.9,Easy,B,m,m,1,1544
PLY75,101,EasyHard,1,39,5,0.102,100,Easy,A,c,c,1,1001
PLY75,101,EasyHard,1,40,4,0.079,89.02,Easy,A,c,m,0,1313
PLY75,101,EasyHard,1,41,29,0.176,42.92,Easy,B,m,c,0,1724
PLY75,101,EasyHard,1,42,28,0.153,31.95,Easy,B,m,m,1,1526
PLY75,101,EasyHard,1,43,5,0.102,100,Easy,A,c,c,1,937
PLY75,101,EasyHard,1,44,27,0.13,20.97,Easy,B,m,c,0,1299
PLY75,101,EasyHard,1,45,30,0.2,53.9,Easy,B,m,m,1,991
PLY75,101,EasyHard,1,46,3,0.056,78.04,Easy,A,c,c,1,1463
PLY75,101,EasyHard,1,47,26,0.107,10,Easy,B,m,m,1,1372
PLY75,101,EasyHard,1,48,29,0.176,42.92,Easy,B,m,m,1,1589
PLY75,101,EasyHard,1,49,27,0.13,20.97,Easy,B,m,m,1,1525
PLY75,101,EasyHard,1,50,1,0.01,56.09,Easy,A,c,c,1,1095
PLY75,101,EasyHard,1,51,28,0.153,31.95,Easy,B,m,m,1,1403
PLY75,101,EasyHard,1,52,28,0.153,31.95,Easy,B,m,m,1,962
PLY75,101,EasyHard,1,53,5,0.102,100,Easy,A,c,c,1,859
PLY75,101,EasyHard,1,54,4,0.079,89.02,Easy,A,c,c,1,616
PLY75,101,EasyHard,1,55,30,0.2,53.9,Easy,B,m,m,1,895
PLY75,101,EasyHard,1,56,2,0.033,67.07,Easy,A,c,c,1,1083
PLY75,101,EasyHard,1,57,1,0.01,56.09,Easy,A,c,c,1,1135
PLY75,101,EasyHard,1,58,29,0.176,42.92,Easy,B,m,m,1,1378
PLY75,101,EasyHard,1,59,30,0.2,53.9,Easy,B,m,m,1,1050
PLY75,101,EasyHard,1,60,29,0.176,42.92,Easy,B,m,m,1,990
PLY75,101,EasyHard,1,61,26,0.107,10,Easy,B,m,c,0,1398
PLY75,101,EasyHard,1,62,4,0.079,89.02,Easy,A,c,m,0,2174
PLY75,101,EasyHard,1,63,26,0.107,10,Easy,B,m,c,0,1015
PLY75,101,EasyHard,1,64,30,0.2,53.9,Easy,B,m,m,1,894
PLY75,101,EasyHard,1,65,27,0.13,20.97,Easy,B,m,m,1,1353
PLY75,101,EasyHard,1,66,28,0.153,31.95,Easy,B,m,m,1,611
PLY75,101,EasyHard,1,67,4,0.079,89.02,Easy,A,c,c,1,617
PLY75,101,EasyHard,1,68,29,0.176,42.92,Easy,B,m,m,1,1184
PLY75,101,EasyHard,1,69,3,0.056,78.04,Easy,A,c,m,0,1041
PLY75,101,EasyHard,1,70,30,0.2,53.9,Easy,B,m,m,1,1111
PLY75,101,EasyHard,1,71,5,0.102,100,Easy,A,c,c,1,1034
PLY75,101,EasyHard,1,72,1,0.01,56.09,Easy,A,c,c,1,1440
PLY75,101,EasyHard,1,73,27,0.13,20.97,Easy,B,m,m,1,806
PLY75,101,EasyHard,1,74,2,0.033,67.07,Easy,A,c,m,0,933
PLY75,101,EasyHard,1,75,28,0.153,31.95,Easy,B,m,c,0,1135
PLY75,101,EasyHard,1,76,29,0.176,42.92,Easy,B,m,m,1,1601
PLY75,101,EasyHard,1,77,28,0.153,31.95,Easy,B,m,m,1,1440
PLY75,101,EasyHard,1,78,28,0.153,31.95,Easy,B,m,m,1,2438
PLY75,101,EasyHard,1,79,28,0.153,31.95,Easy,B,m,m,1,1252
PLY75,101,EasyHard,1,80,1,0.01,56.09,Easy,A,c,m,0,1442
PLY75,101,EasyHard,1,81,27,0.13,20.97,Easy,B,m,c,0,616
PLY75,101,EasyHard,1,82,30,0.2,53.9,Easy,B,m,m,1,3070
PLY75,101,EasyHard,1,83,26,0.107,10,Easy,B,m,m,1,2051
PLY75,101,EasyHard,1,84,3,0.056,78.04,Easy,A,c,c,1,1168
PLY75,101,EasyHard,1,85,2,0.033,67.07,Easy,A,c,c,1,769
PLY75,101,EasyHard,1,86,3,0.056,78.04,Easy,A,c,c,1,1906
PLY75,101,EasyHard,1,87,30,0.2,53.9,Easy,B,m,m,1,1237
PLY75,101,EasyHard,1,88,3,0.056,78.04,Easy,A,c,c,1,1219
PLY75,101,EasyHard,1,89,29,0.176,42.92,Easy,B,m,m,1,1170
PLY75,101,EasyHard,1,90,27,0.13,20.97,Easy,B,m,m,1,1315
PLY75,101,EasyHard,1,91,4,0.079,89.02,Easy,A,c,m,0,1054
PLY75,101,EasyHard,1,92,2,0.033,67.07,Easy,A,c,c,1,4163
PLY75,101,EasyHard,1,93,5,0.102,100,Easy,A,c,c,1,2813
PLY75,101,EasyHard,1,94,30,0.2,53.9,Easy,B,m,m,1,605
PLY75,101,EasyHard,1,95,29,0.176,42.92,Easy,B,m,m,1,900
PLY75,101,EasyHard,1,96,2,0.033,67.07,Easy,A,c,c,1,1551
PLY75,101,EasyHard,1,97,29,0.176,42.92,Easy,B,m,m,1,1488
PLY75,101,EasyHard,1,98,28,0.153,31.95,Easy,B,m,m,1,756
PLY75,101,EasyHard,1,99,26,0.107,10,Easy,B,m,c,0,949
PLY75,101,EasyHard,1,100,27,0.13,20.97,Easy,B,m,m,1,1918
PLY75,101,EasyHard,1,101,2,0.033,67.07,Easy,A,c,c,1,817
PLY75,101,EasyHard,1,102,5,0.102,100,Easy,A,c,m,0,1120
PLY75,101,EasyHard,1,103,26,0.107,10,Easy,B,m,c,0,707
PLY75,101,EasyHard,1,104,26,0.107,10,Easy,B,m,m,1,1638
PLY75,101,EasyHard,1,105,28,0.153,31.95,Easy,B,m,m,1,884
PLY75,101,EasyHard,1,106,1,0.01,56.09,Easy,A,c,c,1,784
PLY75,101,EasyHard,1,107,29,0.176,42.92,Easy,B,m,m,1,575
PLY75,101,EasyHard,1,108,27,0.13,20.97,Easy,B,m,m,1,744
PLY75,101,EasyHard,1,109,27,0.13,20.97,Easy,B,m,m,1,857
PLY75,101,EasyHard,1,110,4,0.079,89.02,Easy,A,c,c,1,902
PLY75,101,EasyHard,1,111,3,0.056,78.04,Easy,A,c,c,1,849
PLY75,101,EasyHard,1,112,5,0.102,100,Easy,A,c,m,0,1118
PLY75,101,EasyHard,1,113,26,0.107,10,Easy,B,m,c,0,865
PLY75,101,EasyHard,1,114,1,0.01,56.09,Easy,A,c,c,1,671
PLY75,101,EasyHard,1,115,28,0.153,31.95,Easy,B,m,m,1,1091
PLY75,101,EasyHard,1,116,30,0.2,53.9,Easy,B,m,m,1,1335
PLY75,101,EasyHard,1,117,5,0.102,100,Easy,A,c,c,1,2433
PLY75,101,EasyHard,1,118,3,0.056,78.04,Easy,A,c,c,1,1391
PLY75,101,EasyHard,1,119,29,0.176,42.92,Easy,B,m,m,1,663
PLY75,101,EasyHard,1,120,3,0.056,78.04,Easy,A,c,m,0,1788
PLY75,101,EasyHard,1,121,1,0.01,56.09,Easy,A,c,c,1,676
PLY75,101,EasyHard,1,122,27,0.13,20.97,Easy,B,m,m,1,680
PLY75,101,EasyHard,1,123,28,0.153,31.95,Easy,B,m,m,1,1933
PLY75,101,EasyHard,1,124,4,0.079,89.02,Easy,A,c,m,0,1566
PLY75,101,EasyHard,1,125,5,0.102,100,Easy,A,c,c,1,1023
PLY75,101,EasyHard,1,126,4,0.079,89.02,Easy,A,c,m,0,1638
PLY75,101,EasyHard,1,127,1,0.01,56.09,Easy,A,c,c,1,692
PLY75,101,EasyHard,1,128,28,0.153,31.95,Easy,B,m,m,1,2087
PLY75,101,EasyHard,1,129,5,0.102,100,Easy,A,c,m,0,1987
PLY75,101,EasyHard,1,130,30,0.2,53.9,Easy,B,m,m,1,2675
PLY75,101,EasyHard,1,131,30,0.2,53.9,Easy,B,m,m,1,840
PLY75,101,EasyHard,1,132,1,0.01,56.09,Easy,A,c,c,1,533
PLY75,101,EasyHard,1,133,4,0.079,89.02,Easy,A,c,c,1,1135
PLY75,101,EasyHard,1,134,2,0.033,67.07,Easy,A,c,c,1,833
PLY75,101,EasyHard,1,135,1,0.01,56.09,Easy,A,c,c,1,479
PLY75,101,EasyHard,1,136,26,0.107,10,Easy,B,m,c,0,1867
PLY75,101,EasyHard,1,137,29,0.176,42.92,Easy,B,m,m,1,1168
PLY75,101,EasyHard,1,138,1,0.01,56.09,Easy,A,c,c,1,545
PLY75,101,EasyHard,1,139,3,0.056,78.04,Easy,A,c,c,1,1291
PLY75,101,EasyHard,1,140,2,0.033,67.07,Easy,A,c,c,1,855
PLY75,101,EasyHard,1,141,26,0.107,10,Easy,B,m,m,1,1444
PLY75,101,EasyHard,1,142,26,0.107,10,Easy,B,m,m,1,698
PLY75,101,EasyHard,1,143,4,0.079,89.02,Easy,A,c,m,0,813
PLY75,101,EasyHard,1,144,3,0.056,78.04,Easy,A,c,c,1,748
PLY75,101,EasyHard,1,145,4,0.079,89.02,Easy,A,c,c,1,862
PLY75,101,EasyHard,1,146,27,0.13,20.97,Easy,B,m,m,1,1291
PLY75,101,EasyHard,1,147,2,0.033,67.07,Easy,A,c,c,1,1831
PLY75,101,EasyHard,1,148,27,0.13,20.97,Easy,B,m,c,0,1806
PLY75,101,EasyHard,1,149,29,0.176,42.92,Easy,B,m,m,1,2421
PLY75,101,EasyHard,1,150,1,0.01,56.09,Easy,A,c,c,1,2436
PLY75,101,EasyHard,2,1,9,0.095,81.34,Medium,A,c,c,1,1910
PLY75,101,EasyHard,2,2,23,0.137,39.63,Medium,B,m,m,1,2296
PLY75,101,EasyHard,2,3,21,0.091,17.68,Medium,B,m,m,1,797
PLY75,101,EasyHard,2,4,21,0.091,17.68,Medium,B,m,m,1,700
PLY75,101,EasyHard,2,5,9,0.095,81.34,Medium,A,c,m,0,2288
PLY75,101,EasyHard,2,6,7,0.049,59.39,Medium,A,c,c,1,980
PLY75,101,EasyHard,2,7,8,0.072,70.36,Medium,A,c,c,1,1196
PLY75,101,EasyHard,2,8,10,0.118,92.31,Medium,A,c,m,0,668
PLY75,101,EasyHard,2,9,24,0.16,50.61,Medium,B,m,m,1,1153
PLY75,101,EasyHard,2,10,23,0.137,39.63,Medium,B,m,m,1,786
PLY75,101,EasyHard,2,11,21,0.091,17.68,Medium,B,m,m,1,802
PLY75,101,EasyHard,2,12,7,0.049,59.39,Medium,A,c,c,1,1809
PLY75,101,EasyHard,2,13,8,0.072,70.36,Medium,A,c,c,1,936
PLY75,101,EasyHard,2,14,9,0.095,81.34,Medium,A,c,c,1,897
PLY75,101,EasyHard,2,15,8,0.072,70.36,Medium,A,c,c,1,701
PLY75,101,EasyHard,2,16,23,0.137,39.63,Medium,B,m,m,1,752
PLY75,101,EasyHard,2,17,22,0.114,28.65,Medium,B,m,m,1,497
PLY75,101,EasyHard,2,18,21,0.091,17.68,Medium,B,m,m,1,988
PLY75,101,EasyHard,2,19,9,0.095,81.34,Medium,A,c,m,0,1380
PLY75,101,EasyHard,2,20,25,0.183,61.58,Medium,B,m,c,0,1084
PLY75,101,EasyHard,2,21,25,0.183,61.58,Medium,B,m,m,1,1855
PLY75,101,EasyHard,2,22,22,0.114,28.65,Medium,B,m,c,0,1189
PLY75,101,EasyHard,2,23,22,0.114,28.65,Medium,B,m,m,1,740
PLY75,101,EasyHard,2,24,21,0.091,17.68,Medium,B,m,m,1,902
PLY75,101,EasyHard,2,25,6,0.026,48.41,Medium,A,c,c,1,689
PLY75,101,EasyHard,2,26,22,0.114,28.65,Medium,B,m,m,1,1141
PLY75,101,EasyHard,2,27,6,0.026,48.41,Medium,A,c,c,1,710
PLY75,101,EasyHard,2,28,21,0.091,17.68,Medium,B,m,m,1,1129
PLY75,101,EasyHard,2,29,9,0.095,81.34,Medium,A,c,c,1,1179
PLY75,101,EasyHard,2,30,8,0.072,70.36,Medium,A,c,c,1,1099
PLY75,101,EasyHard,2,31,22,0.114,28.65,Medium,B,m,m,1,767
PLY75,101,EasyHard,2,32,8,0.072,70.36,Medium,A,c,c,1,1696
PLY75,101,EasyHard,2,33,10,0.118,92.31,Medium,A,c,c,1,844
PLY75,101,EasyHard,2,34,24,0.16,50.61,Medium,B,m,m,1,889
PLY75,101,EasyHard,2,35,22,0.114,28.65,Medium,B,m,m,1,645
PLY75,101,EasyHard,2,36,21,0.091,17.68,Medium,B,m,c,0,1066
PLY75,101,EasyHard,2,37,10,0.118,92.31,Medium,A,c,m,0,815
PLY75,101,EasyHard,2,38,24,0.16,50.61,Medium,B,m,m,1,910
PLY75,101,EasyHard,2,39,10,0.118,92.31,Medium,A,c,m,0,2057
PLY75,101,EasyHard,2,40,6,0.026,48.41,Medium,A,c,c,1,823
PLY75,101,EasyHard,2,41,10,0.118,92.31,Medium,A,c,m,0,597
PLY75,101,EasyHard,2,42,7,0.049,59.39,Medium,A,c,c,1,813
PLY75,101,EasyHard,2,43,24,0.16,50.61,Medium,B,m,m,1,1532
PLY75,101,EasyHard,2,44,25,0.183,61.58,Medium,B,m,m,1,925
PLY75,101,EasyHard,2,45,7,0.049,59.39,Medium,A,c,c,1,1623
PLY75,101,EasyHard,2,46,7,0.049,59.39,Medium,A,c,c,1,726
PLY75,101,EasyHard,2,47,7,0.049,59.39,Medium,A,c,c,1,504
PLY75,101,EasyHard,2,48,24,0.16,50.61,Medium,B,m,m,1,547
PLY75,101,EasyHard,2,49,7,0.049,59.39,Medium,A,c,c,1,1069
PLY75,101,EasyHard,2,50,9,0.095,81.34,Medium,A,c,c,1,721
PLY75,101,EasyHard,2,51,22,0.114,28.65,Medium,B,m,m,1,675
PLY75,101,EasyHard,2,52,24,0.16,50.61,Medium,B,m,c,0,3352
PLY75,101,EasyHard,2,53,10,0.118,92.31,Medium,A,c,m,0,770
PLY75,101,EasyHard,2,54,25,0.183,61.58,Medium,B,m,c,0,594
PLY75,101,EasyHard,2,55,24,0.16,50.61,Medium,B,m,m,1,889
PLY75,101,EasyHard,2,56,6,0.026,48.41,Medium,A,c,c,1,517
PLY75,101,EasyHard,2,57,8,0.072,70.36,Medium,A,c,c,1,1360
PLY75,101,EasyHard,2,58,23,0.137,39.63,Medium,B,m,c,0,1801
PLY75,101,EasyHard,2,59,6,0.026,48.41,Medium,A,c,c,1,864
PLY75,101,EasyHard,2,60,24,0.16,50.61,Medium,B,m,m,1,733
PLY75,101,EasyHard,2,61,23,0.137,39.63,Medium,B,m,m,1,1359
PLY75,101,EasyHard,2,62,23,0.137,39.63,Medium,B,m,m,1,776
PLY75,101,EasyHard,2,63,21,0.091,17.68,Medium,B,m,c,0,1128
PLY75,101,EasyHard,2,64,21,0.091,17.68,Medium,B,m,m,1,523
PLY75,101,EasyHard,2,65,25,0.183,61.58,Medium,B,m,c,0,917
PLY75,101,EasyHard,2,66,9,0.095,81.34,Medium,A,c,m,0,624
PLY75,101,EasyHard,2,67,7,0.049,59.39,Medium,A,c,c,1,902
PLY75,101,EasyHard,2,68,8,0.072,70.36,Medium,A,c,m,0,1009
PLY75,101,EasyHard,2,69,23,0.137,39.63,Medium,B,m,m,1,1256
PLY75,101,EasyHard,2,70,8,0.072,70.36,Medium,A,c,c,1,1734
PLY75,101,EasyHard,2,71,6,0.026,48.41,Medium,A,c,c,1,784
PLY75,101,EasyHard,2,72,8,0.072,70.36,Medium,A,c,c,1,1009
PLY75,101,EasyHard,2,73,9,0.095,81.34,Medium,A,c,c,1,1672
PLY75,101,EasyHard,2,74,8,0.072,70.36,Medium,A,c,m,0,916
PLY75,101,EasyHard,2,75,10,0.118,92.31,Medium,A,c,m,0,1247
PLY75,101,EasyHard,2,76,6,0.026,48.41,Medium,A,c,c,1,541
PLY75,101,EasyHard,2,77,7,0.049,59.39,Medium,A,c,c,1,2343
PLY75,101,EasyHard,2,78,25,0.183,61.58,Medium,B,m,m,1,617
PLY75,101,EasyHard,2,79,6,0.026,48.41,Medium,A,c,c,1,704
PLY75,101,EasyHard,2,80,9,0.095,81.34,Medium,A,c,c,1,1314
PLY75,101,EasyHard,2,81,9,0.095,81.34,Medium,A,c,c,1,829
PLY75,101,EasyHard,2,82,22,0.114,28.65,Medium,B,m,m,1,715
PLY75,101,EasyHard,2,83,8,0.072,70.36,Medium,A,c,c,1,974
PLY75,101,EasyHard,2,84,21,0.091,17.68,Medium,B,m,m,1,823
PLY75,101,EasyHard,2,85,8,0.072,70.36,Medium,A,c,c,1,565
PLY75,101,EasyHard,2,86,24,0.16,50.61,Medium,B,m,m,1,814
PLY75,101,EasyHard,2,87,9,0.095,81.34,Medium,A,c,m,0,989
PLY75,101,EasyHard,2,88,22,0.114,28.65,Medium,B,m,m,1,2101
PLY75,101,EasyHard,2,89,22,0.114,28.65,Medium,B,m,m,1,848
PLY75,101,EasyHard,2,90,21,0.091,17.68,Medium,B,m,c,0,670
PLY75,101,EasyHard,2,91,23,0.137,39.63,Medium,B,m,c,0,1314
PLY75,101,EasyHard,2,92,22,0.114,28.65,Medium,B,m,m,1,909
PLY75,101,EasyHard,2,93,23,0.137,39.63,Medium,B,m,m,1,440
PLY75,101,EasyHard,2,94,25,0.183,61.58,Medium,B,m,m,1,934
PLY75,101,EasyHard,2,95,9,0.095,81.34,Medium,A,c,c,1,1680
PLY75,101,EasyHard,2,96,23,0.137,39.63,Medium,B,m,m,1,1197
PLY75,101,EasyHard,2,97,21,0.091,17.68,Medium,B,m,m,1,1084
PLY75,101,EasyHard,2,98,10,0.118,92.31,Medium,A,c,m,0,880
PLY75,101,EasyHard,2,99,8,0.072,70.36,Medium,A,c,c,1,1836
PLY75,101,EasyHard,2,100,21,0.091,17.68,Medium,B,m,c,0,579
PLY75,101,EasyHard,2,101,7,0.049,59.39,Medium,A,c,c,1,939
PLY75,101,EasyHard,2,102,23,0.137,39.63,Medium,B,m,m,1,724
PLY75,101,EasyHard,2,103,25,0.183,61.58,Medium,B,m,m,1,679
PLY75,101,EasyHard,2,104,10,0.118,92.31,Medium,A,c,c,1,1915
PLY75,101,EasyHard,2,105,6,0.026,48.41,Medium,A,c,c,1,1566
PLY75,101,EasyHard,2,106,9,0.095,81.34,Medium,A,c,m,0,847
PLY75,101,EasyHard,2,107,22,0.114,28.65,Medium,B,m,m,1,1372
PLY75,101,EasyHard,2,108,7,0.049,59.39,Medium,A,c,c,1,628
PLY75,101,EasyHard,2,109,8,0.072,70.36,Medium,A,c,c,1,698
PLY75,101,EasyHard,2,110,25,0.183,61.58,Medium,B,m,m,1,1022
PLY75,101,EasyHard,2,111,24,0.16,50.61,Medium,B,m,m,1,389
PLY75,101,EasyHard,2,112,10,0.118,92.31,Medium,A,c,m,0,948
PLY75,101,EasyHard,2,113,25,0.183,61.58,Medium,B,m,m,1,974
PLY75,101,EasyHard,2,114,9,0.095,81.34,Medium,A,c,m,0,790
PLY75,101,EasyHard,2,115,10,0.118,92.31,Medium,A,c,c,1,662
PLY75,101,EasyHard,2,116,23,0.137,39.63,Medium,B,m,c,0,955
PLY75,101,EasyHard,2,117,6,0.026,48.41,Medium,A,c,c,1,884
PLY75,101,EasyHard,2,118,6,0.026,48.41,Medium,A,c,c,1,512
PLY75,101,EasyHard,2,119,24,0.16,50.61,Medium,B,m,m,1,667
PLY75,101,EasyHard,2,120,23,0.137,39.63,Medium,B,m,m,1,1712
PLY75,101,EasyHard,2,121,6,0.026,48.41,Medium,A,c,c,1,827
PLY75,101,EasyHard,2,122,22,0.114,28.65,Medium,B,m,m,1,698
PLY75,101,EasyHard,2,123,23,0.137,39.63,Medium,B,m,m,1,685
PLY75,101,EasyHard,2,124,21,0.091,17.68,Medium,B,m,c,0,961
PLY75,101,EasyHard,2,125,22,0.114,28.65,Medium,B,m,c,0,938
PLY75,101,EasyHard,2,126,7,0.049,59.39,Medium,A,c,c,1,1508
PLY75,101,EasyHard,2,127,10,0.118,92.31,Medium,A,c,m,0,743
PLY75,101,EasyHard,2,128,25,0.183,61.58,Medium,B,m,m,1,1304
PLY75,101,EasyHard,2,129,24,0.16,50.61,Medium,B,m,m,1,596
PLY75,101,EasyHard,2,130,7,0.049,59.39,Medium,A,c,c,1,907
PLY75,101,EasyHard,2,131,25,0.183,61.58,Medium,B,m,m,1,822
PLY75,101,EasyHard,2,132,24,0.16,50.61,Medium,B,m,m,1,949
PLY75,101,EasyHard,2,133,10,0.118,92.31,Medium,A,c,c,1,2093
PLY75,101,EasyHard,2,134,10,0.118,92.31,Medium,A,c,c,1,969
PLY75,101,EasyHard,2,135,6,0.026,48.41,Medium,A,c,m,0,562
PLY75,101,EasyHard,2,136,21,0.091,17.68,Medium,B,m,c,0,891
PLY75,101,EasyHard,2,137,8,0.072,70.36,Medium,A,c,c,1,806
PLY75,101,EasyHard,2,138,24,0.16,50.61,Medium,B,m,m,1,645
PLY75,101,EasyHard,2,139,24,0.16,50.61,Medium,B,m,m,1,939
PLY75,101,EasyHard,2,140,23,0.137,39.63,Medium,B,m,m,1,725
PLY75,101,EasyHard,2,141,25,0.183,61.58,Medium,B,m,m,1,519
PLY75,101,EasyHard,2,142,22,0.114,28.65,Medium,B,m,c,0,914
PLY75,101,EasyHard,2,143,7,0.049,59.39,Medium,A,c,c,1,845
PLY75,101,EasyHard,2,144,6,0.026,48.41,Medium,A,c,c,1,523
PLY75,101,EasyHard,2,145,25,0.183,61.58,Medium,B,m,m,1,1781
PLY75,101,EasyHard,2,146,10,0.118,92.31,Medium,A,c,c,1,2317
PLY75,101,EasyHard,2,147,7,0.049,59.39,Medium,A,c,c,1,1921
PLY75,101,EasyHard,2,148,25,0.183,61.58,Medium,B,m,c,0,1444
PLY75,101,EasyHard,2,149,6,0.026,48.41,Medium,A,c,c,1,666
PLY75,101,EasyHard,2,150,9,0.095,81.34,Medium,A,c,c,1,1359
PLY75,101,EasyHard,3,1,16,0.074,25.36,Hard,B,m,c,0,887
PLY75,101,EasyHard,3,2,11,0.042,40.73,Hard,A,c,c,1,675
PLY75,101,EasyHard,3,3,17,0.098,36.34,Hard,B,m,c,0,1480
PLY75,101,EasyHard,3,4,13,0.088,62.68,Hard,A,c,m,0,620
PLY75,101,EasyHard,3,5,20,0.167,69.26,Hard,B,m,m,1,1426
PLY75,101,EasyHard,3,6,13,0.088,62.68,Hard,A,c,c,1,1320
PLY75,101,EasyHard,3,7,17,0.098,36.34,Hard,B,m,c,0,658
PLY75,101,EasyHard,3,8,20,0.167,69.26,Hard,B,m,m,1,1335
PLY75,101,EasyHard,3,9,12,0.065,51.7,Hard,A,c,c,1,1121
PLY75,101,EasyHard,3,10,20,0.167,69.26,Hard,B,m,m,1,676
PLY75,101,EasyHard,3,11,16,0.074,25.36,Hard,B,m,c,0,1784
PLY75,101,EasyHard,3,12,19,0.144,58.29,Hard,B,m,m,1,641
PLY75,101,EasyHard,3,13,14,0.111,73.65,Hard,A,c,m,0,1974
PLY75,101,EasyHard,3,14,20,0.167,69.26,Hard,B,m,m,1,839
PLY75,101,EasyHard,3,15,13,0.088,62.68,Hard,A,c,c,1,1317
PLY75,101,EasyHard,3,16,19,0.144,58.29,Hard,B,m,m,1,1136
PLY75,101,EasyHard,3,17,14,0.111,73.65,Hard,A,c,c,1,2050
PLY75,101,EasyHard,3,18,17,0.098,36.34,Hard,B,m,c,0,688
PLY75,101,EasyHard,3,19,13,0.088,62.68,Hard,A,c,c,1,1827
PLY75,101,EasyHard,3,20,11,0.042,40.73,Hard,A,c,c,1,1178
PLY75,101,EasyHard,3,21,15,0.135,84.63,Hard,A,c,m,0,986
PLY75,101,EasyHard,3,22,15,0.135,84.63,Hard,A,c,m,0,2835
PLY75,101,EasyHard,3,23,17,0.098,36.34,Hard,B,m,c,0,802
PLY75,101,EasyHard,3,24,19,0.144,58.29,Hard,B,m,m,1,721
PLY75,101,EasyHard,3,25,20,0.167,69.26,Hard,B,m,m,1,883
PLY75,101,EasyHard,3,26,19,0.144,58.29,Hard,B,m,m,1,559
PLY75,101,EasyHard,3,27,11,0.042,40.73,Hard,A,c,c,1,632
PLY75,101,EasyHard,3,28,19,0.144,58.29,Hard,B,m,m,1,2223
PLY75,101,EasyHard,3,29,11,0.042,40.73,Hard,A,c,c,1,581
PLY75,101,EasyHard,3,30,16,0.074,25.36,Hard,B,m,c,0,813
PLY75,101,EasyHard,3,31,14,0.111,73.65,Hard,A,c,m,0,939
PLY75,101,EasyHard,3,32,19,0.144,58.29,Hard,B,m,c,0,1701
PLY75,101,EasyHard,3,33,20,0.167,69.26,Hard,B,m,m,1,640
PLY75,101,EasyHard,3,34,17,0.098,36.34,Hard,B,m,c,0,822
PLY75,101,EasyHard,3,35,16,0.074,25.36,Hard,B,m,m,1,1108
PLY75,101,EasyHard,3,36,14,0.111,73.65,Hard,A,c,m,0,1831
PLY75,101,EasyHard,3,37,16,0.074,25.36,Hard,B,m,c,0,846
PLY75,101,EasyHard,3,38,15,0.135,84.63,Hard,A,c,m,0,1067
PLY75,101,EasyHard,3,39,15,0.135,84.63,Hard,A,c,m,0,1440
PLY75,101,EasyHard,3,40,16,0.074,25.36,Hard,B,m,c,0,758
PLY75,101,EasyHard,3,41,11,0.042,40.73,Hard,A,c,c,1,935
PLY75,101,EasyHard,3,42,14,0.111,73.65,Hard,A,c,m,0,1409
PLY75,101,EasyHard,3,43,11,0.042,40.73,Hard,A,c,c,1,904
PLY75,101,EasyHard,3,44,18,0.121,47.31,Hard,B,m,c,0,1155
PLY75,101,EasyHard,3,45,17,0.098,36.34,Hard,B,m,m,1,1556
PLY75,101,EasyHard,3,46,18,0.121,47.31,Hard,B,m,m,1,822
PLY75,101,EasyHard,3,47,20,0.167,69.26,Hard,B,m,m,1,772
PLY75,101,EasyHard,3,48,13,0.088,62.68,Hard,A,c,c,1,916
PLY75,101,EasyHard,3,49,18,0.121,47.31,Hard,B,m,c,0,975
PLY75,101,EasyHard,3,50,14,0.111,73.65,Hard,A,c,m,0,552
PLY75,101,EasyHard,3,51,17,0.098,36.34,Hard,B,m,c,0,1441
PLY75,101,EasyHard,3,52,15,0.135,84.63,Hard,A,c,m,0,774
PLY75,101,EasyHard,3,53,15,0.135,84.63,Hard,A,c,c,1,775
PLY75,101,EasyHard,3,54,19,0.144,58.29,Hard,B,m,c,0,663
PLY75,101,EasyHard,3,55,14,0.111,73.65,Hard,A,c,m,0,1020
PLY75,101,EasyHard,3,56,18,0.121,47.31,Hard,B,m,c,0,787
PLY75,101,EasyHard,3,57,16,0.074,25.36,Hard,B,m,c,0,818
PLY75,101,EasyHard,3,58,14,0.111,73.65,Hard,A,c,m,0,785
PLY75,101,EasyHard,3,59,11,0.042,40.73,Hard,A,c,c,1,2081
PLY75,101,EasyHard,3,60,11,0.042,40.73,Hard,A,c,c,1,605
PLY75,101,EasyHard,3,61,13,0.088,62.68,Hard,A,c,m,0,1636
PLY75,101,EasyHard,3,62,19,0.144,58.29,Hard,B,m,m,1,706
PLY75,101,EasyHard,3,63,11,0.042,40.73,Hard,A,c,c,1,1189
PLY75,101,EasyHard,3,64,20,0.167,69.26,Hard,B,m,m,1,836
PLY75,101,EasyHard,3,65,12,0.065,51.7,Hard,A,c,c,1,994
PLY75,101,EasyHard,3,66,18,0.121,47.31,Hard,B,m,m,1,1290
PLY75,101,EasyHard,3,67,15,0.135,84.63,Hard,A,c,m,0,854
PLY75,101,EasyHard,3,68,18,0.121,47.31,Hard,B,m,m,1,947
PLY75,101,EasyHard,3,69,19,0.144,58.29,Hard,B,m,m,1,813
PLY75,101,EasyHard,3,70,18,0.121,47.31,Hard,B,m,m,1,684
PLY75,101,EasyHard,3,71,17,0.098,36.34,Hard,B,m,m,1,560
PLY75,101,EasyHard,3,72,14,0.111,73.65,Hard,A,c,m,0,1017
PLY75,101,EasyHard,3,73,13,0.088,62.68,Hard,A,c,m,0,703
PLY75,101,EasyHard,3,74,17,0.098,36.34,Hard,B,m,c,0,1554
PLY75,101,EasyHard,3,75,13,0.088,62.68,Hard,A,c,c,1,612
PLY75,101,EasyHard,3,76,12,0.065,51.7,Hard,A,c,c,1,1002
PLY75,101,EasyHard,3,77,15,0.135,84.63,Hard,A,c,c,1,2322
PLY75,101,EasyHard,3,78,17,0.098,36.34,Hard,B,m,c,0,1220
PLY75,101,EasyHard,3,79,18,0.121,47.31,Hard,B,m,m,1,1218
PLY75,101,EasyHard,3,80,13,0.088,62.68,Hard,A,c,m,0,625
PLY75,101,EasyHard,3,81,15,0.135,84.63,Hard,A,c,m,0,808
PLY75,101,EasyHard,3,82,15,0.135,84.63,Hard,A,c,m,0,1463
PLY75,101,EasyHard,3,83,15,0.135,84.63,Hard,A,c,m,0,715
PLY75,101,EasyHard,3,84,14,0.111,73.65,Hard,A,c,c,1,766
PLY75,101,EasyHard,3,85,12,0.065,51.7,Hard,A,c,c,1,799
PLY75,101,EasyHard,3,86,12,0.065,51.7,Hard,A,c,c,1,558
PLY75,101,EasyHard,3,87,11,0.042,40.73,Hard,A,c,m,0,1303
PLY75,101,EasyHard,3,88,13,0.088,62.68,Hard,A,c,c,1,1682
PLY75,101,EasyHard,3,89,13,0.088,62.68,Hard,A,c,c,1,798
PLY75,101,EasyHard,3,90,17,0.098,36.34,Hard,B,m,c,0,926
PLY75,101,EasyHard,3,91,14,0.111,73.65,Hard,A,c,c,1,1080
PLY75,101,EasyHard,3,92,13,0.088,62.68,Hard,A,c,c,1,780
PLY75,101,EasyHard,3,93,18,0.121,47.31,Hard,B,m,m,1,1693
PLY75,101,EasyHard,3,94,16,0.074,25.36,Hard,B,m,c,0,761
PLY75,101,EasyHard,3,95,16,0.074,25.36,Hard,B,m,c,0,1513
PLY75,101,EasyHard,3,96,12,0.065,51.7,Hard,A,c,c,1,2701
PLY75,101,EasyHard,3,97,19,0.144,58.29,Hard,B,m,m,1,720
PLY75,101,EasyHard,3,98,11,0.042,40.73,Hard,A,c,m,0,2739
PLY75,101,EasyHard,3,99,18,0.121,47.31,Hard,B,m,m,1,1077
PLY75,101,EasyHard,3,100,20,0.167,69.26,Hard,B,m,m,1,889
PLY75,101,EasyHard,3,101,12,0.065,51.7,Hard,A,c,c,1,1525
PLY75,101,EasyHard,3,102,17,0.098,36.34,Hard,B,m,m,1,1032
PLY75,101,EasyHard,3,103,20,0.167,69.26,Hard,B,m,m,1,734
PLY75,101,EasyHard,3,104,12,0.065,51.7,Hard,A,c,c,1,736
PLY75,101,EasyHard,3,105,12,0.065,51.7,Hard,A,c,c,1,674
PLY75,101,EasyHard,3,106,16,0.074,25.36,Hard,B,m,c,0,774
PLY75,101,EasyHard,3,107,11,0.042,40.73,Hard,A,c,c,1,1078
PLY75,101,EasyHard,3,108,18,0.121,47.31,Hard,B,m,m,1,1161
PLY75,101,EasyHard,3,109,11,0.042,40.73,Hard,A,c,c,1,1499
PLY75,101,EasyHard,3,110,14,0.111,73.65,Hard,A,c,m,0,1054
PLY75,101,EasyHard,3,111,14,0.111,73.65,Hard,A,c,m,0,1507
PLY75,101,EasyHard,3,112,14,0.111,73.65,Hard,A,c,c,1,2055
PLY75,101,EasyHard,3,113,16,0.074,25.36,Hard,B,m,c,0,660
PLY75,101,EasyHard,3,114,17,0.098,36.34,Hard,B,m,m,1,969
PLY75,101,EasyHard,3,115,13,0.088,62.68,Hard,A,c,c,1,1937
PLY75,101,EasyHard,3,116,17,0.098,36.34,Hard,B,m,m,1,2324
PLY75,101,EasyHard,3,117,11,0.042,40.73,Hard,A,c,c,1,662
PLY75,101,EasyHard,3,118,12,0.065,51.7,Hard,A,c,c,1,1083
PLY75,101,EasyHard,3,119,13,0.088,62.68,Hard,A,c,m,0,2367
PLY75,101,EasyHard,3,120,20,0.167,69.26,Hard,B,m,m,1,785
PLY75,101,EasyHard,3,121,16,0.074,25.36,Hard,B,m,c,0,1313
PLY75,101,EasyHard,3,122,15,0.135,84.63,Hard,A,c,m,0,1388
PLY75,101,EasyHard,3,123,19,0.144,58.29,Hard,B,m,m,1,676
PLY75,101,EasyHard,3,124,20,0.167,69.26,Hard,B,m,m,1,504
PLY75,101,EasyHard,3,125,17,0.098,36.34,Hard,B,m,m,1,867
PLY75,101,EasyHard,3,126,20,0.167,69.26,Hard,B,m,m,1,608
PLY75,101,EasyHard,3,127,12,0.065,51.7,Hard,A,c,c,1,647
PLY75,101,EasyHard,3,128,15,0.135,84.63,Hard,A,c,c,1,1181
PLY75,101,EasyHard,3,129,11,0.042,40.73,Hard,A,c,c,1,653
PLY75,101,EasyHard,3,130,19,0.144,58.29,Hard,B,m,m,1,610
PLY75,101,EasyHard,3,131,14,0.111,73.65,Hard,A,c,c,1,617
PLY75,101,EasyHard,3,132,13,0.088,62.68,Hard,A,c,c,1,736
PLY75,101,EasyHard,3,133,15,0.135,84.63,Hard,A,c,m,0,625
PLY75,101,EasyHard,3,134,18,0.121,47.31,Hard,B,m,c,0,599
PLY75,101,EasyHard,3,135,15,0.135,84.63,Hard,A,c,c,1,718
PLY75,101,EasyHard,3,136,19,0.144,58.29,Hard,B,m,c,0,737
PLY75,101,EasyHard,3,137,12,0.065,51.7,Hard,A,c,c,1,1043
PLY75,101,EasyHard,3,138,18,0.121,47.31,Hard,B,m,m,1,505
PLY75,101,EasyHard,3,139,20,0.167,69.26,Hard,B,m,c,0,676
PLY75,101,EasyHard,3,140,16,0.074,25.36,Hard,B,m,c,0,1432
PLY75,101,EasyHard,3,141,12,0.065,51.7,Hard,A,c,c,1,894
PLY75,101,EasyHard,3,142,18,0.121,47.31,Hard,B,m,m,1,1258
PLY75,101,EasyHard,3,143,16,0.074,25.36,Hard,B,m,c,0,2519
PLY75,101,EasyHard,3,144,19,0.144,58.29,Hard,B,m,m,1,1171
PLY75,101,EasyHard,3,145,12,0.065,51.7,Hard,A,c,c,1,819
PLY75,101,EasyHard,3,146,12,0.065,51.7,Hard,A,c,c,1,642
PLY75,101,EasyHard,3,147,16,0.074,25.36,Hard,B,m,c,0,632
PLY75,101,EasyHard,3,148,20,0.167,69.26,Hard,B,m,m,1,814
PLY75,101,EasyHard,3,149,18,0.121,47.31,Hard,B,m,m,1,1309
PLY75,101,EasyHard,3,150,19,0.144,58.29,Hard,B,m,m,1,744
PLY75,101,EasyHard,4,1,22,0.114,28.65,Medium,B,m,m,1,2193
PLY75,101,EasyHard,4,2,8,0.072,70.36,Medium,A,c,c,1,841
PLY75,101,EasyHard,4,3,5,0.102,100,Easy,A,c,c,1,1062
PLY75,101,EasyHard,4,4,24,0.16,50.61,Medium,B,m,m,1,778
PLY75,101,EasyHard,4,5,10,0.118,92.31,Medium,A,c,c,1,1115
PLY75,101,EasyHard,4,6,8,0.072,70.36,Medium,A,c,m,0,830
PLY75,101,EasyHard,4,7,25,0.183,61.58,Medium,B,m,m,1,1852
PLY75,101,EasyHard,4,8,5,0.102,100,Easy,A,c,c,1,530
PLY75,101,EasyHard,4,9,25,0.183,61.58,Medium,B,m,m,1,572
PLY75,101,EasyHard,4,10,14,0.111,73.65,Hard,A,c,c,1,644
PLY75,101,EasyHard,4,11,3,0.056,78.04,Easy,A,c,m,0,1529
PLY75,101,EasyHard,4,12,12,0.065,51.7,Hard,A,c,c,1,556
PLY75,101,EasyHard,4,13,15,0.135,84.63,Hard,A,c,m,0,852
PLY75,101,EasyHard,4,14,13,0.088,62.68,Hard,A,c,c,1,2593
PLY75,101,EasyHard,4,15,9,0.095,81.34,Medium,A,c,m,0,1609
PLY75,101,EasyHard,4,16,3,0.056,78.04,Easy,A,c,c,1,664
PLY75,101,EasyHard,4,17,2,0.033,67.07,Easy,A,c,c,1,973
PLY75,101,EasyHard,4,18,1,0.01,56.09,Easy,A,c,c,1,1318
PLY75,101,EasyHard,4,19,11,0.042,40.73,Hard,A,c,c,1,752
PLY75,101,EasyHard,4,20,21,0.091,17.68,Medium,B,m,c,0,865
PLY75,101,EasyHard,4,21,5,0.102,100,Easy,A,c,m,0,574
PLY75,101,EasyHard,4,22,8,0.072,70.36,Medium,A,c,c,1,582
PLY75,101,EasyHard,4,23,18,0.121,47.31,Hard,B,m,m,1,575
PLY75,101,EasyHard,4,24,29,0.176,42.92,Easy,B,m,m,1,791
PLY75,101,EasyHard,4,25,1,0.01,56.09,Easy,A,c,c,1,631
PLY75,101,EasyHard,4,26,9,0.095,81.34,Medium,A,c,m,0,957
PLY75,101,EasyHard,4,27,23,0.137,39.63,Medium,B,m,m,1,822
PLY75,101,EasyHard,4,28,28,0.153,31.95,Easy,B,m,m,1,996
PLY75,101,EasyHard,4,29,2,0.033,67.07,Easy,A,c,c,1,1547
PLY75,101,EasyHard,4,30,20,0.167,69.26,Hard,B,m,m,1,653
PLY75,101,EasyHard,4,31,19,0.144,58.29,Hard,B,m,m,1,689
PLY75,101,EasyHard,4,32,21,0.091,17.68,Medium,B,m,c,0,1141
PLY75,101,EasyHard,4,33,18,0.121,47.31,Hard,B,m,m,1,806
PLY75,101,EasyHard,4,34,23,0.137,39.63,Medium,B,m,m,1,741
PLY75,101,EasyHard,4,35,1,0.01,56.09,Easy,A,c,c,1,967
PLY75,101,EasyHard,4,36,5,0.102,100,Easy,A,c,m,0,1104
PLY75,101,EasyHard,4,37,17,0.098,36.34,Hard,B,m,c,0,899
PLY75,101,EasyHard,4,38,26,0.107,10,Easy,B,m,c,0,1055
PLY75,101,EasyHard,4,39,13,0.088,62.68,Hard,A,c,m,0,596
PLY75,101,EasyHard,4,40,7,0.049,59.39,Medium,A,c,c,1,908
PLY75,101,EasyHard,4,41,29,0.176,42.92,Easy,B,m,m,1,567
PLY75,101,EasyHard,4,42,30,0.2,53.9,Easy,B,m,m,1,1280
PLY75,101,EasyHard,4,43,22,0.114,28.65,Medium,B,m,m,1,2124
PLY75,101,EasyHard,4,44,19,0.144,58.29,Hard,B,m,m,1,2215
PLY75,101,EasyHard,4,45,21,0.091,17.68,Medium,B,m,m,1,1182
PLY75,101,EasyHard,4,46,23,0.137,39.63,Medium,B,m,m,1,718
PLY75,101,EasyHard,4,47,16,0.074,25.36,Hard,B,m,c,0,1041
PLY75,101,EasyHard,4,48,6,0.026,48.41,Medium,A,c,c,1,1031
PLY75,101,EasyHard,4,49,30,0.2,53.9,Easy,B,m,m,1,621
PLY75,101,EasyHard,4,50,14,0.111,73.65,Hard,A,c,m,0,899
PLY75,101,EasyHard,4,51,7,0.049,59.39,Medium,A,c,c,1,4943
PLY75,101,EasyHard,4,52,5,0.102,100,Easy,A,c,m,0,922
PLY75,101,EasyHard,4,53,16,0.074,25.36,Hard,B,m,c,0,4917
PLY75,101,EasyHard,4,54,13,0.088,62.68,Hard,A,c,c,1,4272
PLY75,101,EasyHard,4,55,27,0.13,20.97,Easy,B,m,m,1,726
PLY75,101,EasyHard,4,56,6,0.026,48.41,Medium,A,c,c,1,632
PLY75,101,EasyHard,4,57,24,0.16,50.61,Medium,B,m,m,1,590
PLY75,101,EasyHard,4,58,2,0.033,67.07,Easy,A,c,c,1,518
PLY75,101,EasyHard,4,59,27,0.13,20.97,Easy,B,m,m,1,721
PLY75,101,EasyHard,4,60,7,0.049,59.39,Medium,A,c,c,1,547
PLY75,101,EasyHard,4,61,28,0.153,31.95,Easy,B,m,m,1,572
PLY75,101,EasyHard,4,62,18,0.121,47.31,Hard,B,m,m,1,1733
PLY75,101,EasyHard,4,63,13,0.088,62.68,Hard,A,c,m,0,623
PLY75,101,EasyHard,4,64,8,0.072,70.36,Medium,A,c,c,1,1206
PLY75,101,EasyHard,4,65,11,0.042,40.73,Hard,A,c,c,1,517
PLY75,101,EasyHard,4,66,20,0.167,69.26,Hard,B,m,c,0,4576
PLY75,101,EasyHard,4,67,24,0.16,50.61,Medium,B,m,m,1,1401
PLY75,101,EasyHard,4,68,3,0.056,78.04,Easy,A,c,c,1,961
PLY75,101,EasyHard,4,69,15,0.135,84.63,Hard,A,c,m,0,1594
PLY75,101,EasyHard,4,70,25,0.183,61.58,Medium,B,m,m,1,842
PLY75,101,EasyHard,4,71,19,0.144,58.29,Hard,B,m,m,1,5832
PLY75,101,EasyHard,4,72,22,0.114,28.65,Medium,B,m,c,0,2111
PLY75,101,EasyHard,4,73,16,0.074,25.36,Hard,B,m,c,0,1147
PLY75,101,EasyHard,4,74,12,0.065,51.7,Hard,A,c,c,1,1740
PLY75,101,EasyHard,4,75,17,0.098,36.34,Hard,B,m,c,0,886
PLY75,101,EasyHard,4,76,25,0.183,61.58,Medium,B,m,m,1,802
PLY75,101,EasyHard,4,77,7,0.049,59.39,Medium,A,c,c,1,1424
PLY75,101,EasyHard,4,78,11,0.042,40.73,Hard,A,c,c,1,935
PLY75,101,EasyHard,4,79,9,0.095,81.34,Medium,A,c,c,1,977
PLY75,101,EasyHard,4,80,6,0.026,48.41,Medium,A,c,c,1,2297
PLY75,101,EasyHard,4,81,27,0.13,20.97,Easy,B,m,m,1,750
PLY75,101,EasyHard,4,82,12,0.065,51.7,Hard,A,c,c,1,1375
PLY75,101,EasyHard,4,83,9,0.095,81.34,Medium,A,c,m,0,951
PLY75,101,EasyHard,4,84,19,0.144,58.29,Hard,B,m,m,1,784
PLY75,101,EasyHard,4,85,28,0.153,31.95,Easy,B,m,m,1,2736
PLY75,101,EasyHard,4,86,1,0.01,56.09,Easy,A,c,c,1,771
PLY75,101,EasyHard,4,87,21,0.091,17.68,Medium,B,m,c,0,979
PLY75,101,EasyHard,4,88,17,0.098,36.34,Hard,B,m,m,1,587
PLY75,101,EasyHard,4,89,23,0.137,39.63,Medium,B,m,m,1,643
PLY75,101,EasyHard,4,90,10,0.118,92.31,Medium,A,c,c,1,2745
PLY75,101,EasyHard,4,91,16,0.074,25.36,Hard,B,m,c,0,811
PLY75,101,EasyHard,4,92,15,0.135,84.63,Hard,A,c,m,0,666
PLY75,101,EasyHard,4,93,29,0.176,42.92,Easy,B,m,c,0,1791
PLY75,101,EasyHard,4,94,27,0.13,20.97,Easy,B,m,m,1,758
PLY75,101,EasyHard,4,95,17,0.098,36.34,Hard,B,m,m,1,2119
PLY75,101,EasyHard,4,96,15,0.135,84.63,Hard,A,c,m,0,1379
PLY75,101,EasyHard,4,97,4,0.079,89.02,Easy,A,c,c,1,715
PLY75,101,EasyHard,4,98,19,0.144,58.29,Hard,B,m,m,1,718
PLY75,101,EasyHard,4,99,30,0.2,53.9,Easy,B,m,m,1,737
PLY75,101,EasyHard,4,100,8,0.072,70.36,Medium,A,c,m,0,515
PLY75,101,EasyHard,4,101,20,0.167,69.26,Hard,B,m,m,1,654
PLY75,101,EasyHard,4,102,28,0.153,31.95,Easy,B,m,m,1,659
PLY75,101,EasyHard,4,103,4,0.079,89.02,Easy,A,c,c,1,791
PLY75,101,EasyHard,4,104,23,0.137,39.63,Medium,B,m,m,1,967
PLY75,101,EasyHard,4,105,10,0.118,92.31,Medium,A,c,c,1,2656
PLY75,101,EasyHard,4,106,22,0.114,28.65,Medium,B,m,m,1,854
PLY75,101,EasyHard,4,107,2,0.033,67.07,Easy,A,c,c,1,787
PLY75,101,EasyHard,4,108,21,0.091,17.68,Medium,B,m,m,1,755
PLY75,101,EasyHard,4,109,27,0.13,20.97,Easy,B,m,m,1,692
PLY75,101,EasyHard,4,110,15,0.135,84.63,Hard,A,c,c,1,919
PLY75,101,EasyHard,4,111,30,0.2,53.9,Easy,B,m,m,1,562
PLY75,101,EasyHard,4,112,20,0.167,69.26,Hard,B,m,m,1,507
PLY75,101,EasyHard,4,113,29,0.176,42.92,Easy,B,m,m,1,1142
PLY75,101,EasyHard,4,114,16,0.074,25.36,Hard,B,m,c,0,951
PLY75,101,EasyHard,4,115,7,0.049,59.39,Medium,A,c,c,1,528
PLY75,101,EasyHard,4,116,11,0.042,40.73,Hard,A,c,c,1,395
PLY75,101,EasyHard,4,117,4,0.079,89.02,Easy,A,c,c,1,506
PLY75,101,EasyHard,4,118,12,0.065,51.7,Hard,A,c,c,1,565
PLY75,101,EasyHard,4,119,6,0.026,48.41,Medium,A,c,m,0,670
PLY75,101,EasyHard,4,120,25,0.183,61.58,Medium,B,m,m,1,706
PLY75,101,EasyHard,4,121,4,0.079,89.02,Easy,A,c,c,1,1173
PLY75,101,EasyHard,4,122,14,0.111,73.65,Hard,A,c,m,0,1078
PLY75,101,EasyHard,4,123,22,0.114,28.65,Medium,B,m,c,0,698
PLY75,101,EasyHard,4,124,3,0.056,78.04,Easy,A,c,m,0,622
PLY75,101,EasyHard,4,125,26,0.107,10,Easy,B,m,m,1,1028
PLY75,101,EasyHard,4,126,14,0.111,73.65,Hard,A,c,m,0,3002
PLY75,101,EasyHard,4,127,17,0.098,36.34,Hard,B,m,m,1,930
PLY75,101,EasyHard,4,128,6,0.026,48.41,Medium,A,c,c,1,509
PLY75,101,EasyHard,4,129,24,0.16,50.61,Medium,B,m,m,1,566
PLY75,101,EasyHard,4,130,18,0.121,47.31,Hard,B,m,m,1,639
PLY75,101,EasyHard,4,131,26,0.107,10,Easy,B,m,m,1,1140
PLY75,101,EasyHard,4,132,30,0.2,53.9,Easy,B,m,m,1,614
PLY75,101,EasyHard,4,133,26,0.107,10,Easy,B,m,c,0,925
PLY75,101,EasyHard,4,134,20,0.167,69.26,Hard,B,m,m,1,439
PLY75,101,EasyHard,4,135,11,0.042,40.73,Hard,A,c,c,1,549
PLY75,101,EasyHard,4,136,14,0.111,73.65,Hard,A,c,m,0,574
PLY75,101,EasyHard,4,137,9,0.095,81.34,Medium,A,c,m,0,1110
PLY75,101,EasyHard,4,138,1,0.01,56.09,Easy,A,c,c,1,617
PLY75,101,EasyHard,4,139,26,0.107,10,Easy,B,m,m,1,1360
PLY75,101,EasyHard,4,140,29,0.176,42.92,Easy,B,m,m,1,1529
PLY75,101,EasyHard,4,141,18,0.121,47.31,Hard,B,m,c,0,1724
PLY75,101,EasyHard,4,142,3,0.056,78.04,Easy,A,c,c,1,1366
PLY75,101,EasyHard,4,143,28,0.153,31.95,Easy,B,m,m,1,1280
PLY75,101,EasyHard,4,144,13,0.088,62.68,Hard,A,c,c,1,1468
PLY75,101,EasyHard,4,145,10,0.118,92.31,Medium,A,c,m,0,1537
PLY75,101,EasyHard,4,146,24,0.16,50.61,Medium,B,m,m,1,1283
PLY75,101,EasyHard,4,147,10,0.118,92.31,Medium,A,c,m,0,799
PLY75,101,EasyHard,4,148,12,0.065,51.7,Hard,A,c,c,1,543
PLY75,101,EasyHard,4,149,4,0.079,89.02,Easy,A,c,c,1,472
PLY75,101,EasyHard,4,150,2,0.033,67.07,Easy,A,c,c,1,837
PLY75,102,EasyHard,1,1,5,0.102,100,Easy,A,c,c,1,3256
PLY75,102,EasyHard,1,2,27,0.13,20.97,Easy,B,m,c,0,3460
PLY75,102,EasyHard,1,3,29,0.176,42.92,Easy,B,m,c,0,1802
PLY75,102,EasyHard,1,4,26,0.107,10,Easy,B,m,c,0,4729
PLY75,102,EasyHard,1,5,1,0.01,56.09,Easy,A,c,m,0,1797
PLY75,102,EasyHard,1,6,30,0.2,53.9,Easy,B,m,c,0,1725
PLY75,102,EasyHard,1,7,29,0.176,42.92,Easy,B,m,m,1,1743
PLY75,102,EasyHard,1,8,1,0.01,56.09,Easy,A,c,c,1,2001
PLY75,102,EasyHard,1,9,29,0.176,42.92,Easy,B,m,m,1,1025
PLY75,102,EasyHard,1,10,28,0.153,31.95,Easy,B,m,m,1,1016
PLY75,102,EasyHard,1,11,30,0.2,53.9,Easy,B,m,m,1,695
PLY75,102,EasyHard,1,12,2,0.033,67.07,Easy,A,c,c,1,874
PLY75,102,EasyHard,1,13,5,0.102,100,Easy,A,c,m,0,799
PLY75,102,EasyHard,1,14,28,0.153,31.95,Easy,B,m,m,1,958
PLY75,102,EasyHard,1,15,30,0.2,53.9,Easy,B,m,c,0,735
PLY75,102,EasyHard,1,16,26,0.107,10,Easy,B,m,m,1,2697
PLY75,102,EasyHard,1,17,4,0.079,89.02,Easy,A,c,m,0,1134
PLY75,102,EasyHard,1,18,4,0.079,89.02,Easy,A,c,c,1,1087
PLY75,102,EasyHard,1,19,28,0.153,31.95,Easy,B,m,m,1,787
PLY75,102,EasyHard,1,20,26,0.107,10,Easy,B,m,m,1,1603
PLY75,102,EasyHard,1,21,29,0.176,42.92,Easy,B,m,m,1,1531
PLY75,102,EasyHard,1,22,27,0.13,20.97,Easy,B,m,m,1,806
PLY75,102,EasyHard,1,23,3,0.056,78.04,Easy,A,c,c,1,1549
PLY75,102,EasyHard,1,24,2,0.033,67.07,Easy,A,c,c,1,2639
PLY75,102,EasyHard,1,25,1,0.01,56.09,Easy,A,c,c,1,861
PLY75,102,EasyHard,1,26,3,0.056,78.04,Easy,A,c,c,1,777
PLY75,102,EasyHard,1,27,29,0.176,42.92,Easy,B,m,m,1,705
PLY75,102,EasyHard,1,28,28,0.153,31.95,Easy,B,m,m,1,788
PLY75,102,EasyHard,1,29,4,0.079,89.02,Easy,A,c,c,1,861
PLY75,102,EasyHard,1,30,29,0.176,42.92,Easy,B,m,m,1,553
PLY75,102,EasyHard,1,31,2,0.033,67.07,Easy,A,c,c,1,1515
PLY75,102,EasyHard,1,32,28,0.153,31.95,Easy,B,m,m,1,1118
PLY75,102,EasyHard,1,33,27,0.13,20.97,Easy,B,m,m,1,1689
PLY75,102,EasyHard,1,34,26,0.107,10,Easy,B,m,m,1,725
PLY75,102,EasyHard,1,35,5,0.102,100,Easy,A,c,c,1,2815
PLY75,102,EasyHard,1,36,5,0.102,100,Easy,A,c,c,1,791
PLY75,102,EasyHard,1,37,4,0.079,89.02,Easy,A,c,c,1,807
PLY75,102,EasyHard,1,38,5,0.102,100,Easy,A,c,c,1,622
PLY75,102,EasyHard,1,39,1,0.01,56.09,Easy,A,c,c,1,749
PLY75,102,EasyHard,1,40,28,0.153,31.95,Easy,B,m,m,1,662
PLY75,102,EasyHard,1,41,4,0.079,89.02,Easy,A,c,c,1,2027
PLY75,102,EasyHard,1,42,27,0.13,20.97,Easy,B,m,m,1,530
PLY75,102,EasyHard,1,43,4,0.079,89.02,Easy,A,c,c,1,996
PLY75,102,EasyHard,1,44,29,0.176,42.92,Easy,B,m,m,1,644
PLY75,102,EasyHard,1,45,5,0.102,100,Easy,A,c,c,1,961
PLY75,102,EasyHard,1,46,29,0.176,42.92,Easy,B,m,m,1,2402
PLY75,102,EasyHard,1,47,27,0.13,20.97,Easy,B,m,m,1,675
PLY75,102,EasyHard,1,48,3,0.056,78.04,Easy,A,c,c,1,1215
PLY75,102,EasyHard,1,49,27,0.13,20.97,Easy,B,m,m,1,590
PLY75,102,EasyHard,1,50,28,0.153,31.95,Easy,B,m,m,1,621
PLY75,102,EasyHard,1,51,3,0.056,78.04,Easy,A,c,c,1,756
PLY75,102,EasyHard,1,52,2,0.033,67.07,Easy,A,c,c,1,861
PLY75,102,EasyHard,1,53,4,0.079,89.02,Easy,A,c,c,1,914
PLY75,102,EasyHard,1,54,26,0.107,10,Easy,B,m,m,1,621
PLY75,102,EasyHard,1,55,5,0.102,100,Easy,A,c,c,1,788
PLY75,102,EasyHard,1,56,4,0.079,89.02,Easy,A,c,c,1,668
PLY75,102,EasyHard,1,57,4,0.079,89.02,Easy,A,c,c,1,577
PLY75,102,EasyHard,1,58,5,0.102,100,Easy,A,c,c,1,818
PLY75,102,EasyHard,1,59,5,0.102,100,Easy,A,c,c,1,721
PLY75,102,EasyHard,1,60,4,0.079,89.02,Easy,A,c,c,1,514
PLY75,102,EasyHard,1,61,27,0.13,20.97,Easy,B,m,m,1,565
PLY75,102,EasyHard,1,62,5,0.102,100,Easy,A,c,c,1,903
PLY75,102,EasyHard,1,63,26,0.107,10,Easy,B,m,m,1,633
PLY75,102,EasyHard,1,64,27,0.13,20.97,Easy,B,m,m,1,743
PLY75,102,EasyHard,1,65,4,0.079,89.02,Easy,A,c,c,1,721
PLY75,102,EasyHard,1,66,30,0.2,53.9,Easy,B,m,m,1,603
PLY75,102,EasyHard,1,67,26,0.107,10,Easy,B,m,m,1,603
PLY75,102,EasyHard,1,68,29,0.176,42.92,Easy,B,m,m,1,586
PLY75,102,EasyHard,1,69,28,0.153,31.95,Easy,B,m,m,1,538
PLY75,102,EasyHard,1,70,1,0.01,56.09,Easy,A,c,c,1,708
PLY75,102,EasyHard,1,71,27,0.13,20.97,Easy,B,m,m,1,543
PLY75,102,EasyHard,1,72,3,0.056,78.04,Easy,A,c,c,1,1520
PLY75,102,EasyHard,1,73,30,0.2,53.9,Easy,B,m,m,1,547
PLY75,102,EasyHard,1,74,4,0.079,89.02,Easy,A,c,c,1,749
PLY75,102,EasyHard,1,75,26,0.107,10,Easy,B,m,m,1,638
PLY75,102,EasyHard,1,76,28,0.153,31.95,Easy,B,m,m,1,676
PLY75,102,EasyHard,1,77,26,0.107,10,Easy,B,m,c,0,1352
PLY75,102,EasyHard,1,78,3,0.056,78.04,Easy,A,c,c,1,921
PLY75,102,EasyHard,1,79,28,0.153,31.95,Easy,B,m,m,1,604
PLY75,102,EasyHard,1,80,3,0.056,78.04,Easy,A,c,c,1,1923
PLY75,102,EasyHard,1,81,1,0.01,56.09,Easy,A,c,c,1,742
PLY75,102,EasyHard,1,82,5,0.102,100,Easy,A,c,c,1,2152
PLY75,102,EasyHard,1,83,1,0.01,56.09,Easy,A,c,c,1,690
PLY75,102,EasyHard,1,84,30,0.2,53.9,Easy,B,m,m,1,701
PLY75,102,EasyHard,1,85,1,0.01,56.09,Easy,A,c,c,1,641
PLY75,102,EasyHard,1,86,30,0.2,53.9,Easy,B,m,m,1,582
PLY75,102,EasyHard,1,87,5,0.102,100,Easy,A,c,c,1,903
PLY75,102,EasyHard,1,88,5,0.102,100,Easy,A,c,c,1,610
PLY75,102,EasyHard,1,89,26,0.107,10,Easy,B,m,m,1,585
PLY75,102,EasyHard,1,90,27,0.13,20.97,Easy,B,m,m,1,553
PLY75,102,EasyHard,1,91,26,0.107,10,Easy,B,m,m,1,371
PLY75,102,EasyHard,1,92,3,0.056,78.04,Easy,A,c,m,0,1099
PLY75,102,EasyHard,1,93,1,0.01,56.09,Easy,A,c,c,1,1367
PLY75,102,EasyHard,1,94,30,0.2,53.9,Easy,B,m,m,1,583
PLY75,102,EasyHard,1,95,29,0.176,42.92,Easy,B,m,m,1,791
PLY75,102,EasyHard,1,96,30,0.2,53.9,Easy,B,m,m,1,967
PLY75,102,EasyHard,1,97,2,0.033,67.07,Easy,A,c,c,1,1912
PLY75,102,EasyHard,1,98,29,0.176,42.92,Easy,B,m,m,1,611
PLY75,102,EasyHard,1,99,30,0.2,53.9,Easy,B,m,m,1,778
PLY75,102,EasyHard,1,100,1,0.01,56.09,Easy,A,c,c,1,850
PLY75,102,EasyHard,1,101,26,0.107,10,Easy,B,m,m,1,800
PLY75,102,EasyHard,1,102,4,0.079,89.02,Easy,A,c,c,1,736
PLY75,102,EasyHard,1,103,28,0.153,31.95,Easy,B,m,m,1,617
PLY75,102,EasyHard,1,104,2,0.033,67.07,Easy,A,c,c,1,840
PLY75,102,EasyHard,1,105,30,0.2,53.9,Easy,B,m,m,1,653
PLY75,102,EasyHard,1,106,3,0.056,78.04,Easy,A,c,c,1,706
PLY75,102,EasyHard,1,107,28,0.153,31.95,Easy,B,m,m,1,581
PLY75,102,EasyHard,1,108,3,0.056,78.04,Easy,A,c,c,1,949
PLY75,102,EasyHard,1,109,29,0.176,42.92,Easy,B,m,m,1,591
PLY75,102,EasyHard,1,110,2,0.033,67.07,Easy,A,c,c,1,758
PLY75,102,EasyHard,1,111,27,0.13,20.97,Easy,B,m,m,1,919
PLY75,102,EasyHard,1,112,30,0.2,53.9,Easy,B,m,m,1,1354
PLY75,102,EasyHard,1,113,30,0.2,53.9,Easy,B,m,m,1,1076
PLY75,102,EasyHard,1,114,1,0.01,56.09,Easy,A,c,c,1,776
PLY75,102,EasyHard,1,115,1,0.01,56.09,Easy,A,c,c,1,608
PLY75,102,EasyHard,1,116,2,0.033,67.07,Easy,A,c,c,1,919
PLY75,102,EasyHard,1,117,30,0.2,53.9,Easy,B,m,m,1,562
PLY75,102,EasyHard,1,118,27,0.13,20.97,Easy,B,m,m,1,875
PLY75,102,EasyHard,1,119,2,0.033,67.07,Easy,A,c,c,1,1367
PLY75,102,EasyHard,1,120,2,0.033,67.07,Easy,A,c,c,1,1120
PLY75,102,EasyHard,1,121,27,0.13,20.97,Easy,B,m,m,1,1100
PLY75,102,EasyHard,1,122,29,0.176,42.92,Easy,B,m,m,1,1279
PLY75,102,EasyHard,1,123,28,0.153,31.95,Easy,B,m,m,1,948
PLY75,102,EasyHard,1,124,26,0.107,10,Easy,B,m,m,1,1117
PLY75,102,EasyHard,1,125,1,0.01,56.09,Easy,A,c,c,1,904
PLY75,102,EasyHard,1,126,29,0.176,42.92,Easy,B,m,m,1,923
PLY75,102,EasyHard,1,127,28,0.153,31.95,Easy,B,m,m,1,1094
PLY75,102,EasyHard,1,128,5,0.102,100,Easy,A,c,c,1,1026
PLY75,102,EasyHard,1,129,2,0.033,67.07,Easy,A,c,c,1,983
PLY75,102,EasyHard,1,130,3,0.056,78.04,Easy,A,c,m,0,1623
PLY75,102,EasyHard,1,131,2,0.033,67.07,Easy,A,c,c,1,1230
PLY75,102,EasyHard,1,132,27,0.13,20.97,Easy,B,m,m,1,796
PLY75,102,EasyHard,1,133,26,0.107,10,Easy,B,m,m,1,1324
PLY75,102,EasyHard,1,134,2,0.033,67.07,Easy,A,c,c,1,710
PLY75,102,EasyHard,1,135,2,0.033,67.07,Easy,A,c,c,1,2353
PLY75,102,EasyHard,1,136,3,0.056,78.04,Easy,A,c,c,1,923
PLY75,102,EasyHard,1,137,1,0.01,56.09,Easy,A,c,c,1,574
PLY75,102,EasyHard,1,138,1,0.01,56.09,Easy,A,c,c,1,414
PLY75,102,EasyHard,1,139,27,0.13,20.97,Easy,B,m,m,1,749
PLY75,102,EasyHard,1,140,28,0.153,31.95,Easy,B,m,m,1,550
PLY75,102,EasyHard,1,141,3,0.056,78.04,Easy,A,c,c,1,1064
PLY75,102,EasyHard,1,142,29,0.176,42.92,Easy,B,m,m,1,613
PLY75,102,EasyHard,1,143,3,0.056,78.04,Easy,A,c,c,1,700
PLY75,102,EasyHard,1,144,30,0.2,53.9,Easy,B,m,m,1,960
PLY75,102,EasyHard,1,145,4,0.079,89.02,Easy,A,c,c,1,873
PLY75,102,EasyHard,1,146,3,0.056,78.04,Easy,A,c,c,1,798
PLY75,102,EasyHard,1,147,2,0.033,67.07,Easy,A,c,c,1,877
PLY75,102,EasyHard,1,148,5,0.102,100,Easy,A,c,c,1,1786
PLY75,102,EasyHard,1,149,26,0.107,10,Easy,B,m,m,1,1609
PLY75,102,EasyHard,1,150,4,0.079,89.02,Easy,A,c,c,1,1489
PLY75,102,EasyHard,2,1,6,0.026,48.41,Medium,A,c,c,1,3714
PLY75,102,EasyHard,2,2,9,0.095,81.34,Medium,A,c,c,1,1478
PLY75,102,EasyHard,2,3,23,0.137,39.63,Medium,B,m,m,1,682
PLY75,102,EasyHard,2,4,8,0.072,70.36,Medium,A,c,c,1,2047
PLY75,102,EasyHard,2,5,10,0.118,92.31,Medium,A,c,c,1,965
PLY75,102,EasyHard,2,6,8,0.072,70.36,Medium,A,c,m,0,2950
PLY75,102,EasyHard,2,7,23,0.137,39.63,Medium,B,m,m,1,856
PLY75,102,EasyHard,2,8,7,0.049,59.39,Medium,A,c,c,1,917
PLY75,102,EasyHard,2,9,7,0.049,59.39,Medium,A,c,c,1,624
PLY75,102,EasyHard,2,10,24,0.16,50.61,Medium,B,m,m,1,694
PLY75,102,EasyHard,2,11,23,0.137,39.63,Medium,B,m,m,1,594
PLY75,102,EasyHard,2,12,7,0.049,59.39,Medium,A,c,c,1,1377
PLY75,102,EasyHard,2,13,6,0.026,48.41,Medium,A,c,c,1,610
PLY75,102,EasyHard,2,14,10,0.118,92.31,Medium,A,c,c,1,968
PLY75,102,EasyHard,2,15,24,0.16,50.61,Medium,B,m,m,1,633
PLY75,102,EasyHard,2,16,25,0.183,61.58,Medium,B,m,m,1,974
PLY75,102,EasyHard,2,17,6,0.026,48.41,Medium,A,c,c,1,711
PLY75,102,EasyHard,2,18,21,0.091,17.68,Medium,B,m,m,1,730
PLY75,102,EasyHard,2,19,22,0.114,28.65,Medium,B,m,m,1,708
PLY75,102,EasyHard,2,20,10,0.118,92.31,Medium,A,c,c,1,1071
PLY75,102,EasyHard,2,21,9,0.095,81.34,Medium,A,c,m,0,676
PLY75,102,EasyHard,2,22,23,0.137,39.63,Medium,B,m,m,1,576
PLY75,102,EasyHard,2,23,6,0.026,48.41,Medium,A,c,c,1,720
PLY75,102,EasyHard,2,24,24,0.16,50.61,Medium,B,m,m,1,755
PLY75,102,EasyHard,2,25,8,0.072,70.36,Medium,A,c,c,1,588
PLY75,102,EasyHard,2,26,25,0.183,61.58,Medium,B,m,m,1,596
PLY75,102,EasyHard,2,27,8,0.072,70.36,Medium,A,c,c,1,1836
PLY75,102,EasyHard,2,28,7,0.049,59.39,Medium,A,c,c,1,538
PLY75,102,EasyHard,2,29,10,0.118,92.31,Medium,A,c,c,1,692
PLY75,102,EasyHard,2,30,23,0.137,39.63,Medium,B,m,m,1,671
PLY75,102,EasyHard,2,31,9,0.095,81.34,Medium,A,c,c,1,1108
PLY75,102,EasyHard,2,32,24,0.16,50.61,Medium,B,m,m,1,711
PLY75,102,EasyHard,2,33,10,0.118,92.31,Medium,A,c,c,1,1722
PLY75,102,EasyHard,2,34,9,0.095,81.34,Medium,A,c,c,1,869
PLY75,102,EasyHard,2,35,22,0.114,28.65,Medium,B,m,m,1,650
PLY75,102,EasyHard,2,36,24,0.16,50.61,Medium,B,m,m,1,704
PLY75,102,EasyHard,2,37,25,0.183,61.58,Medium,B,m,m,1,571
PLY75,102,EasyHard,2,38,22,0.114,28.65,Medium,B,m,m,1,796
PLY75,102,EasyHard,2,39,21,0.091,17.68,Medium,B,m,m,1,515
PLY75,102,EasyHard,2,40,25,0.183,61.58,Medium,B,m,m,1,630
PLY75,102,EasyHard,2,41,7,0.049,59.39,Medium,A,c,m,0,876
PLY75,102,EasyHard,2,42,7,0.049,59.39,Medium,A,c,c,1,560
PLY75,102,EasyHard,2,43,22,0.114,28.65,Medium,B,m,m,1,521
PLY75,102,EasyHard,2,44,25,0.183,61.58,Medium,B,m,m,1,644
PLY75,102,EasyHard,2,45,21,0.091,17.68,Medium,B,m,m,1,793
PLY75,102,EasyHard,2,46,22,0.114,28.65,Medium,B,m,m,1,601
PLY75,102,EasyHard,2,47,9,0.095,81.34,Medium,A,c,c,1,969
PLY75,102,EasyHard,2,48,24,0.16,50.61,Medium,B,m,m,1,586
PLY75,102,EasyHard,2,49,25,0.183,61.58,Medium,B,m,m,1,696
PLY75,102,EasyHard,2,50,8,0.072,70.36,Medium,A,c,m,0,604
PLY75,102,EasyHard,2,51,22,0.114,28.65,Medium,B,m,m,1,1331
PLY75,102,EasyHard,2,52,9,0.095,81.34,Medium,A,c,c,1,757
PLY75,102,EasyHard,2,53,21,0.091,17.68,Medium,B,m,m,1,974
PLY75,102,EasyHard,2,54,7,0.049,59.39,Medium,A,c,c,1,718
PLY75,102,EasyHard,2,55,22,0.114,28.65,Medium,B,m,m,1,817
PLY75,102,EasyHard,2,56,21,0.091,17.68,Medium,B,m,m,1,656
PLY75,102,EasyHard,2,57,24,0.16,50.61,Medium,B,m,m,1,725
PLY75,102,EasyHard,2,58,25,0.183,61.58,Medium,B,m,m,1,1559
PLY75,102,EasyHard,2,59,9,0.095,81.34,Medium,A,c,c,1,1848
PLY75,102,EasyHard,2,60,23,0.137,39.63,Medium,B,m,m,1,662
PLY75,102,EasyHard,2,61,25,0.183,61.58,Medium,B,m,m,1,603
PLY75,102,EasyHard,2,62,8,0.072,70.36,Medium,A,c,m,0,1235
PLY75,102,EasyHard,2,63,10,0.118,92.31,Medium,A,c,c,1,888
PLY75,102,EasyHard,2,64,22,0.114,28.65,Medium,B,m,m,1,869
PLY75,102,EasyHard,2,65,22,0.114,28.65,Medium,B,m,m,1,1562
PLY75,102,EasyHard,2,66,21,0.091,17.68,Medium,B,m,m,1,1035
PLY75,102,EasyHard,2,67,8,0.072,70.36,Medium,A,c,m,0,1009
PLY75,102,EasyHard,2,68,8,0.072,70.36,Medium,A,c,c,1,864
PLY75,102,EasyHard,2,69,8,0.072,70.36,Medium,A,c,c,1,589
PLY75,102,EasyHard,2,70,6,0.026,48.41,Medium,A,c,c,1,596
PLY75,102,EasyHard,2,71,10,0.118,92.31,Medium,A,c,c,1,1212
PLY75,102,EasyHard,2,72,23,0.137,39.63,Medium,B,m,m,1,651
PLY75,102,EasyHard,2,73,24,0.16,50.61,Medium,B,m,m,1,560
PLY75,102,EasyHard,2,74,21,0.091,17.68,Medium,B,m,m,1,929
PLY75,102,EasyHard,2,75,6,0.026,48.41,Medium,A,c,c,1,1700
PLY75,102,EasyHard,2,76,21,0.091,17.68,Medium,B,m,m,1,1752
PLY75,102,EasyHard,2,77,6,0.026,48.41,Medium,A,c,c,1,921
PLY75,102,EasyHard,2,78,8,0.072,70.36,Medium,A,c,c,1,1708
PLY75,102,EasyHard,2,79,6,0.026,48.41,Medium,A,c,c,1,1712
PLY75,102,EasyHard,2,80,10,0.118,92.31,Medium,A,c,c,1,2683
PLY75,102,EasyHard,2,81,23,0.137,39.63,Medium,B,m,m,1,736
PLY75,102,EasyHard,2,82,21,0.091,17.68,Medium,B,m,m,1,713
PLY75,102,EasyHard,2,83,8,0.072,70.36,Medium,A,c,c,1,1147
PLY75,102,EasyHard,2,84,22,0.114,28.65,Medium,B,m,m,1,2101
PLY75,102,EasyHard,2,85,24,0.16,50.61,Medium,B,m,m,1,1673
PLY75,102,EasyHard,2,86,6,0.026,48.41,Medium,A,c,c,1,638
PLY75,102,EasyHard,2,87,6,0.026,48.41,Medium,A,c,c,1,707
PLY75,102,EasyHard,2,88,24,0.16,50.61,Medium,B,m,m,1,982
PLY75,102,EasyHard,2,89,6,0.026,48.41,Medium,A,c,c,1,575
PLY75,102,EasyHard,2,90,21,0.091,17.68,Medium,B,m,m,1,1215
PLY75,102,EasyHard,2,91,22,0.114,28.65,Medium,B,m,m,1,1326
PLY75,102,EasyHard,2,92,22,0.114,28.65,Medium,B,m,m,1,545
PLY75,102,EasyHard,2,93,23,0.137,39.63,Medium,B,m,m,1,585
PLY75,102,EasyHard,2,94,25,0.183,61.58,Medium,B,m,m,1,641
PLY75,102,EasyHard,2,95,23,0.137,39.63,Medium,B,m,m,1,551
PLY75,102,EasyHard,2,96,10,0.118,92.31,Medium,A,c,c,1,720
PLY75,102,EasyHard,2,97,24,0.16,50.61,Medium,B,m,m,1,770
PLY75,102,EasyHard,2,98,21,0.091,17.68,Medium,B,m,m,1,683
PLY75,102,EasyHard,2,99,8,0.072,70.36,Medium,A,c,m,0,1039
PLY75,102,EasyHard,2,100,7,0.049,59.39,Medium,A,c,c,1,877
PLY75,102,EasyHard,2,101,7,0.049,59.39,Medium,A,c,c,1,713
PLY75,102,EasyHard,2,102,21,0.091,17.68,Medium,B,m,c,0,2660
PLY75,102,EasyHard,2,103,10,0.118,92.31,Medium,A,c,c,1,769
PLY75,102,EasyHard,2,104,8,0.072,70.36,Medium,A,c,c,1,2258
PLY75,102,EasyHard,2,105,21,0.091,17.68,Medium,B,m,m,1,752
PLY75,102,EasyHard,2,106,9,0.095,81.34,Medium,A,c,c,1,1513
PLY75,102,EasyHard,2,107,22,0.114,28.65,Medium,B,m,m,1,613
PLY75,102,EasyHard,2,108,7,0.049,59.39,Medium,A,c,c,1,876
PLY75,102,EasyHard,2,109,7,0.049,59.39,Medium,A,c,c,1,615
PLY75,102,EasyHard,2,110,9,0.095,81.34,Medium,A,c,m,0,694
PLY75,102,EasyHard,2,111,7,0.049,59.39,Medium,A,c,c,1,1026
PLY75,102,EasyHard,2,112,23,0.137,39.63,Medium,B,m,m,1,624
PLY75,102,EasyHard,2,113,22,0.114,28.65,Medium,B,m,m,1,606
PLY75,102,EasyHard,2,114,10,0.118,92.31,Medium,A,c,c,1,1621
PLY75,102,EasyHard,2,115,23,0.137,39.63,Medium,B,m,m,1,611
PLY75,102,EasyHard,2,116,10,0.118,92.31,Medium,A,c,c,1,634
PLY75,102,EasyHard,2,117,24,0.16,50.61,Medium,B,m,m,1,704
PLY75,102,EasyHard,2,118,9,0.095,81.34,Medium,A,c,c,1,1331
PLY75,102,EasyHard,2,119,25,0.183,61.58,Medium,B,m,m,1,629
PLY75,102,EasyHard,2,120,6,0.026,48.41,Medium,A,c,c,1,604
PLY75,102,EasyHard,2,121,23,0.137,39.63,Medium,B,m,m,1,1035
PLY75,102,EasyHard,2,122,6,0.026,48.41,Medium,A,c,c,1,552
PLY75,102,EasyHard,2,123,10,0.118,92.31,Medium,A,c,c,1,729
PLY75,102,EasyHard,2,124,21,0.091,17.68,Medium,B,m,m,1,1363
PLY75,102,EasyHard,2,125,9,0.095,81.34,Medium,A,c,c,1,1837
PLY75,102,EasyHard,2,126,6,0.026,48.41,Medium,A,c,c,1,715
PLY75,102,EasyHard,2,127,7,0.049,59.39,Medium,A,c,c,1,1613
PLY75,102,EasyHard,2,128,10,0.118,92.31,Medium,A,c,c,1,1141
PLY75,102,EasyHard,2,129,23,0.137,39.63,Medium,B,m,m,1,806
PLY75,102,EasyHard,2,130,9,0.095,81.34,Medium,A,c,c,1,1077
PLY75,102,EasyHard,2,131,9,0.095,81.34,Medium,A,c,c,1,922
PLY75,102,EasyHard,2,132,24,0.16,50.61,Medium,B,m,m,1,829
PLY75,102,EasyHard,2,133,25,0.183,61.58,Medium,B,m,m,1,795
PLY75,102,EasyHard,2,134,7,0.049,59.39,Medium,A,c,c,1,1083
PLY75,102,EasyHard,2,135,9,0.095,81.34,Medium,A,c,c,1,1895
PLY75,102,EasyHard,2,136,22,0.114,28.65,Medium,B,m,m,1,667
PLY75,102,EasyHard,2,137,21,0.091,17.68,Medium,B,m,m,1,648
PLY75,102,EasyHard,2,138,25,0.183,61.58,Medium,B,m,c,0,1198
PLY75,102,EasyHard,2,139,23,0.137,39.63,Medium,B,m,m,1,621
PLY75,102,EasyHard,2,140,6,0.026,48.41,Medium,A,c,c,1,1020
PLY75,102,EasyHard,2,141,25,0.183,61.58,Medium,B,m,m,1,2779
PLY75,102,EasyHard,2,142,8,0.072,70.36,Medium,A,c,c,1,732
PLY75,102,EasyHard,2,143,24,0.16,50.61,Medium,B,m,m,1,1007
PLY75,102,EasyHard,2,144,24,0.16,50.61,Medium,B,m,m,1,2406
PLY75,102,EasyHard,2,145,8,0.072,70.36,Medium,A,c,c,1,1765
PLY75,102,EasyHard,2,146,25,0.183,61.58,Medium,B,m,m,1,1134
PLY75,102,EasyHard,2,147,7,0.049,59.39,Medium,A,c,c,1,967
PLY75,102,EasyHard,2,148,9,0.095,81.34,Medium,A,c,m,0,1128
PLY75,102,EasyHard,2,149,25,0.183,61.58,Medium,B,m,m,1,931
PLY75,102,EasyHard,2,150,10,0.118,92.31,Medium,A,c,c,1,909
PLY75,102,EasyHard,3,1,11,0.042,40.73,Hard,A,c,c,1,2129
PLY75,102,EasyHard,3,2,14,0.111,73.65,Hard,A,c,c,1,804
PLY75,102,EasyHard,3,3,11,0.042,40.73,Hard,A,c,c,1,715
PLY75,102,EasyHard,3,4,16,0.074,25.36,Hard,B,m,c,0,1190
PLY75,102,EasyHard,3,5,13,0.088,62.68,Hard,A,c,c,1,1134
PLY75,102,EasyHard,3,6,19,0.144,58.29,Hard,B,m,m,1,849
PLY75,102,EasyHard,3,7,20,0.167,69.26,Hard,B,m,m,1,510
PLY75,102,EasyHard,3,8,14,0.111,73.65,Hard,A,c,c,1,2793
PLY75,102,EasyHard,3,9,15,0.135,84.63,Hard,A,c,m,0,1537
PLY75,102,EasyHard,3,10,13,0.088,62.68,Hard,A,c,c,1,1435
PLY75,102,EasyHard,3,11,16,0.074,25.36,Hard,B,m,c,0,658
PLY75,102,EasyHard,3,12,12,0.065,51.7,Hard,A,c,c,1,623
PLY75,102,EasyHard,3,13,17,0.098,36.34,Hard,B,m,m,1,3133
PLY75,102,EasyHard,3,14,19,0.144,58.29,Hard,B,m,m,1,712
PLY75,102,EasyHard,3,15,16,0.074,25.36,Hard,B,m,c,0,843
PLY75,102,EasyHard,3,16,16,0.074,25.36,Hard,B,m,m,1,848
PLY75,102,EasyHard,3,17,14,0.111,73.65,Hard,A,c,c,1,3422
PLY75,102,EasyHard,3,18,16,0.074,25.36,Hard,B,m,c,0,3069
PLY75,102,EasyHard,3,19,19,0.144,58.29,Hard,B,m,m,1,3331
PLY75,102,EasyHard,3,20,16,0.074,25.36,Hard,B,m,m,1,2782
PLY75,102,EasyHard,3,21,13,0.088,62.68,Hard,A,c,c,1,2823
PLY75,102,EasyHard,3,22,18,0.121,47.31,Hard,B,m,m,1,2534
PLY75,102,EasyHard,3,23,19,0.144,58.29,Hard,B,m,m,1,760
PLY75,102,EasyHard,3,24,20,0.167,69.26,Hard,B,m,m,1,745
PLY75,102,EasyHard,3,25,14,0.111,73.65,Hard,A,c,c,1,1403
PLY75,102,EasyHard,3,26,12,0.065,51.7,Hard,A,c,c,1,746
PLY75,102,EasyHard,3,27,12,0.065,51.7,Hard,A,c,c,1,667
PLY75,102,EasyHard,3,28,13,0.088,62.68,Hard,A,c,c,1,688
PLY75,102,EasyHard,3,29,14,0.111,73.65,Hard,A,c,c,1,412
PLY75,102,EasyHard,3,30,13,0.088,62.68,Hard,A,c,c,1,371
PLY75,102,EasyHard,3,31,17,0.098,36.34,Hard,B,m,c,0,435
PLY75,102,EasyHard,3,32,12,0.065,51.7,Hard,A,c,c,1,568
PLY75,102,EasyHard,3,33,16,0.074,25.36,Hard,B,m,m,1,817
PLY75,102,EasyHard,3,34,19,0.144,58.29,Hard,B,m,m,1,1136
PLY75,102,EasyHard,3,35,15,0.135,84.63,Hard,A,c,m,0,4043
PLY75,102,EasyHard,3,36,15,0.135,84.63,Hard,A,c,c,1,1001
PLY75,102,EasyHard,3,37,20,0.167,69.26,Hard,B,m,m,1,577
PLY75,102,EasyHard,3,38,17,0.098,36.34,Hard,B,m,m,1,889
PLY75,102,EasyHard,3,39,12,0.065,51.7,Hard,A,c,m,0,662
PLY75,102,EasyHard,3,40,18,0.121,47.31,Hard,B,m,m,1,635
PLY75,102,EasyHard,3,41,11,0.042,40.73,Hard,A,c,c,1,648
PLY75,102,EasyHard,3,42,15,0.135,84.63,Hard,A,c,m,0,1149
PLY75,102,EasyHard,3,43,19,0.144,58.29,Hard,B,m,m,1,638
PLY75,102,EasyHard,3,44,18,0.121,47.31,Hard,B,m,m,1,612
PLY75,102,EasyHard,3,45,15,0.135,84.63,Hard,A,c,m,0,915
PLY75,102,EasyHard,3,46,18,0.121,47.31,Hard,B,m,m,1,1662
PLY75,102,EasyHard,3,47,20,0.167,69.26,Hard,B,m,m,1,579
PLY75,102,EasyHard,3,48,12,0.065,51.7,Hard,A,c,c,1,723
PLY75,102,EasyHard,3,49,12,0.065,51.7,Hard,A,c,c,1,574
PLY75,102,EasyHard,3,50,14,0.111,73.65,Hard,A,c,c,1,1686
PLY75,102,EasyHard,3,51,14,0.111,73.65,Hard,A,c,c,1,674
PLY75,102,EasyHard,3,52,14,0.111,73.65,Hard,A,c,c,1,566
PLY75,102,EasyHard,3,53,17,0.098,36.34,Hard,B,m,m,1,1031
PLY75,102,EasyHard,3,54,13,0.088,62.68,Hard,A,c,c,1,645
PLY75,102,EasyHard,3,55,17,0.098,36.34,Hard,B,m,m,1,715
PLY75,102,EasyHard,3,56,11,0.042,40.73,Hard,A,c,c,1,894
PLY75,102,EasyHard,3,57,18,0.121,47.31,Hard,B,m,m,1,1953
PLY75,102,EasyHard,3,58,19,0.144,58.29,Hard,B,m,m,1,652
PLY75,102,EasyHard,3,59,17,0.098,36.34,Hard,B,m,m,1,633
PLY75,102,EasyHard,3,60,17,0.098,36.34,Hard,B,m,m,1,487
PLY75,102,EasyHard,3,61,20,0.167,69.26,Hard,B,m,m,1,691
PLY75,102,EasyHard,3,62,12,0.065,51.7,Hard,A,c,m,0,927
PLY75,102,EasyHard,3,63,13,0.088,62.68,Hard,A,c,c,1,769
PLY75,102,EasyHard,3,64,11,0.042,40.73,Hard,A,c,c,1,674
PLY75,102,EasyHard,3,65,20,0.167,69.26,Hard,B,m,m,1,615
PLY75,102,EasyHard,3,66,16,0.074,25.36,Hard,B,m,m,1,1630
PLY75,102,EasyHard,3,67,15,0.135,84.63,Hard,A,c,c,1,1500
PLY75,102,EasyHard,3,68,19,0.144,58.29,Hard,B,m,m,1,1048
PLY75,102,EasyHard,3,69,12,0.065,51.7,Hard,A,c,m,0,782
PLY75,102,EasyHard,3,70,18,0.121,47.31,Hard,B,m,m,1,630
PLY75,102,EasyHard,3,71,13,0.088,62.68,Hard,A,c,m,0,596
PLY75,102,EasyHard,3,72,14,0.111,73.65,Hard,A,c,c,1,1139
PLY75,102,EasyHard,3,73,20,0.167,69.26,Hard,B,m,m,1,622
PLY75,102,EasyHard,3,74,15,0.135,84.63,Hard,A,c,c,1,3484
PLY75,102,EasyHard,3,75,17,0.098,36.34,Hard,B,m,m,1,585
PLY75,102,EasyHard,3,76,17,0.098,36.34,Hard,B,m,m,1,712
PLY75,102,EasyHard,3,77,19,0.144,58.29,Hard,B,m,m,1,714
PLY75,102,EasyHard,3,78,15,0.135,84.63,Hard,A,c,m,0,565
PLY75,102,EasyHard,3,79,17,0.098,36.34,Hard,B,m,m,1,718
PLY75,102,EasyHard,3,80,16,0.074,25.36,Hard,B,m,m,1,825
PLY75,102,EasyHard,3,81,11,0.042,40.73,Hard,A,c,c,1,784
PLY75,102,EasyHard,3,82,16,0.074,25.36,Hard,B,m,c,0,2247
PLY75,102,EasyHard,3,83,19,0.144,58.29,Hard,B,m,m,1,709
PLY75,102,EasyHard,3,84,15,0.135,84.63,Hard,A,c,c,1,912
PLY75,102,EasyHard,3,85,18,0.121,47.31,Hard,B,m,m,1,2699
PLY75,102,EasyHard,3,86,18,0.121,47.31,Hard,B,m,m,1,2367
PLY75,102,EasyHard,3,87,13,0.088,62.68,Hard,A,c,c,1,745
PLY75,102,EasyHard,3,88,15,0.135,84.63,Hard,A,c,c,1,723
PLY75,102,EasyHard,3,89,14,0.111,73.65,Hard,A,c,c,1,709
PLY75,102,EasyHard,3,90,16,0.074,25.36,Hard,B,m,m,1,552
PLY75,102,EasyHard,3,91,19,0.144,58.29,Hard,B,m,m,1,770
PLY75,102,EasyHard,3,92,20,0.167,69.26,Hard,B,m,m,1,883
PLY75,102,EasyHard,3,93,11,0.042,40.73,Hard,A,c,m,0,407
PLY75,102,EasyHard,3,94,15,0.135,84.63,Hard,A,c,c,1,886
PLY75,102,EasyHard,3,95,14,0.111,73.65,Hard,A,c,c,1,802
PLY75,102,EasyHard,3,96,19,0.144,58.29,Hard,B,m,m,1,1161
PLY75,102,EasyHard,3,97,18,0.121,47.31,Hard,B,m,m,1,682
PLY75,102,EasyHard,3,98,14,0.111,73.65,Hard,A,c,c,1,895
PLY75,102,EasyHard,3,99,13,0.088,62.68,Hard,A,c,c,1,898
PLY75,102,EasyHard,3,100,12,0.065,51.7,Hard,A,c,c,1,942
PLY75,102,EasyHard,3,101,17,0.098,36.34,Hard,B,m,m,1,1600
PLY75,102,EasyHard,3,102,15,0.135,84.63,Hard,A,c,c,1,840
PLY75,102,EasyHard,3,103,17,0.098,36.34,Hard,B,m,m,1,1437
PLY75,102,EasyHard,3,104,11,0.042,40.73,Hard,A,c,c,1,660
PLY75,102,EasyHard,3,105,15,0.135,84.63,Hard,A,c,c,1,857
PLY75,102,EasyHard,3,106,13,0.088,62.68,Hard,A,c,c,1,1366
PLY75,102,EasyHard,3,107,20,0.167,69.26,Hard,B,m,m,1,943
PLY75,102,EasyHard,3,108,11,0.042,40.73,Hard,A,c,c,1,672
PLY75,102,EasyHard,3,109,17,0.098,36.34,Hard,B,m,c,0,1180
PLY75,102,EasyHard,3,110,16,0.074,25.36,Hard,B,m,c,0,645
PLY75,102,EasyHard,3,111,13,0.088,62.68,Hard,A,c,c,1,1282
PLY75,102,EasyHard,3,112,11,0.042,40.73,Hard,A,c,c,1,799
PLY75,102,EasyHard,3,113,13,0.088,62.68,Hard,A,c,c,1,782
PLY75,102,EasyHard,3,114,16,0.074,25.36,Hard,B,m,c,0,727
PLY75,102,EasyHard,3,115,12,0.065,51.7,Hard,A,c,c,1,721
PLY75,102,EasyHard,3,116,18,0.121,47.31,Hard,B,m,m,1,1460
PLY75,102,EasyHard,3,117,12,0.065,51.7,Hard,A,c,c,1,881
PLY75,102,EasyHard,3,118,18,0.121,47.31,Hard,B,m,m,1,3117
PLY75,102,EasyHard,3,119,11,0.042,40.73,Hard,A,c,c,1,585
PLY75,102,EasyHard,3,120,15,0.135,84.63,Hard,A,c,c,1,937
PLY75,102,EasyHard,3,121,17,0.098,36.34,Hard,B,m,c,0,1163
PLY75,102,EasyHard,3,122,20,0.167,69.26,Hard,B,m,m,1,732
PLY75,102,EasyHard,3,123,19,0.144,58.29,Hard,B,m,m,1,598
PLY75,102,EasyHard,3,124,12,0.065,51.7,Hard,A,c,c,1,630
PLY75,102,EasyHard,3,125,16,0.074,25.36,Hard,B,m,c,0,828
PLY75,102,EasyHard,3,126,20,0.167,69.26,Hard,B,m,m,1,1235
PLY75,102,EasyHard,3,127,13,0.088,62.68,Hard,A,c,c,1,664
PLY75,102,EasyHard,3,128,17,0.098,36.34,Hard,B,m,m,1,749
PLY75,102,EasyHard,3,129,20,0.167,69.26,Hard,B,m,m,1,679
PLY75,102,EasyHard,3,130,20,0.167,69.26,Hard,B,m,m,1,443
PLY75,102,EasyHard,3,131,11,0.042,40.73,Hard,A,c,m,0,425
PLY75,102,EasyHard,3,132,15,0.135,84.63,Hard,A,c,m,0,415
PLY75,102,EasyHard,3,133,20,0.167,69.26,Hard,B,m,m,1,542
PLY75,102,EasyHard,3,134,14,0.111,73.65,Hard,A,c,c,1,2447
PLY75,102,EasyHard,3,135,18,0.121,47.31,Hard,B,m,m,1,1357
PLY75,102,EasyHard,3,136,18,0.121,47.31,Hard,B,m,m,1,606
PLY75,102,EasyHard,3,137,19,0.144,58.29,Hard,B,m,m,1,525
PLY75,102,EasyHard,3,138,11,0.042,40.73,Hard,A,c,c,1,528
PLY75,102,EasyHard,3,139,16,0.074,25.36,Hard,B,m,c,0,402
PLY75,102,EasyHard,3,140,12,0.065,51.7,Hard,A,c,c,1,961
PLY75,102,EasyHard,3,141,14,0.111,73.65,Hard,A,c,c,1,1442
PLY75,102,EasyHard,3,142,12,0.065,51.7,Hard,A,c,c,1,591
PLY75,102,EasyHard,3,143,14,0.111,73.65,Hard,A,c,c,1,1335
PLY75,102,EasyHard,3,144,11,0.042,40.73,Hard,A,c,c,1,801
PLY75,102,EasyHard,3,145,11,0.042,40.73,Hard,A,c,c,1,672
PLY75,102,EasyHard,3,146,18,0.121,47.31,Hard,B,m,m,1,980
PLY75,102,EasyHard,3,147,19,0.144,58.29,Hard,B,m,m,1,652
PLY75,102,EasyHard,3,148,18,0.121,47.31,Hard,B,m,m,1,657
PLY75,102,EasyHard,3,149,13,0.088,62.68,Hard,A,c,c,1,2174
PLY75,102,EasyHard,3,150,20,0.167,69.26,Hard,B,m,m,1,607
PLY75,102,EasyHard,4,1,1,0.01,56.09,Easy,A,c,c,1,1540
PLY75,102,EasyHard,4,2,30,0.2,53.9,Easy,B,m,m,1,1085
PLY75,102,EasyHard,4,3,24,0.16,50.61,Medium,B,m,m,1,641
PLY75,102,EasyHard,4,4,9,0.095,81.34,Medium,A,c,c,1,671
PLY75,102,EasyHard,4,5,17,0.098,36.34,Hard,B,m,m,1,732
PLY75,102,EasyHard,4,6,20,0.167,69.26,Hard,B,m,c,0,2046
PLY75,102,EasyHard,4,7,5,0.102,100,Easy,A,c,c,1,1724
PLY75,102,EasyHard,4,8,4,0.079,89.02,Easy,A,c,c,1,775
PLY75,102,EasyHard,4,9,26,0.107,10,Easy,B,m,m,1,767
PLY75,102,EasyHard,4,10,3,0.056,78.04,Easy,A,c,c,1,655
PLY75,102,EasyHard,4,11,19,0.144,58.29,Hard,B,m,m,1,516
PLY75,102,EasyHard,4,12,26,0.107,10,Easy,B,m,m,1,1383
PLY75,102,EasyHard,4,13,23,0.137,39.63,Medium,B,m,m,1,535
PLY75,102,EasyHard,4,14,9,0.095,81.34,Medium,A,c,c,1,785
PLY75,102,EasyHard,4,15,18,0.121,47.31,Hard,B,m,m,1,520
PLY75,102,EasyHard,4,16,10,0.118,92.31,Medium,A,c,c,1,755
PLY75,102,EasyHard,4,17,5,0.102,100,Easy,A,c,c,1,492
PLY75,102,EasyHard,4,18,18,0.121,47.31,Hard,B,m,m,1,568
PLY75,102,EasyHard,4,19,26,0.107,10,Easy,B,m,m,1,640
PLY75,102,EasyHard,4,20,23,0.137,39.63,Medium,B,m,m,1,606
PLY75,102,EasyHard,4,21,14,0.111,73.65,Hard,A,c,m,0,477
PLY75,102,EasyHard,4,22,2,0.033,67.07,Easy,A,c,c,1,649
PLY75,102,EasyHard,4,23,1,0.01,56.09,Easy,A,c,c,1,375
PLY75,102,EasyHard,4,24,27,0.13,20.97,Easy,B,m,m,1,655
PLY75,102,EasyHard,4,25,11,0.042,40.73,Hard,A,c,c,1,836
PLY75,102,EasyHard,4,26,22,0.114,28.65,Medium,B,m,m,1,921
PLY75,102,EasyHard,4,27,8,0.072,70.36,Medium,A,c,c,1,1636
PLY75,102,EasyHard,4,28,17,0.098,36.34,Hard,B,m,m,1,698
PLY75,102,EasyHard,4,29,14,0.111,73.65,Hard,A,c,m,0,678
PLY75,102,EasyHard,4,30,15,0.135,84.63,Hard,A,c,m,0,746
PLY75,102,EasyHard,4,31,24,0.16,50.61,Medium,B,m,m,1,620
PLY75,102,EasyHard,4,32,27,0.13,20.97,Easy,B,m,m,1,675
PLY75,102,EasyHard,4,33,13,0.088,62.68,Hard,A,c,c,1,583
PLY75,102,EasyHard,4,34,21,0.091,17.68,Medium,B,m,c,0,1286
PLY75,102,EasyHard,4,35,16,0.074,25.36,Hard,B,m,c,0,1682
PLY75,102,EasyHard,4,36,9,0.095,81.34,Medium,A,c,c,1,1551
PLY75,102,EasyHard,4,37,28,0.153,31.95,Easy,B,m,m,1,729
PLY75,102,EasyHard,4,38,22,0.114,28.65,Medium,B,m,m,1,1963
PLY75,102,EasyHard,4,39,10,0.118,92.31,Medium,A,c,c,1,644
PLY75,102,EasyHard,4,40,20,0.167,69.26,Hard,B,m,m,1,650
PLY75,102,EasyHard,4,41,26,0.107,10,Easy,B,m,m,1,600
PLY75,102,EasyHard,4,42,27,0.13,20.97,Easy,B,m,m,1,503
PLY75,102,EasyHard,4,43,11,0.042,40.73,Hard,A,c,c,1,691
PLY75,102,EasyHard,4,44,12,0.065,51.7,Hard,A,c,c,1,662
PLY75,102,EasyHard,4,45,24,0.16,50.61,Medium,B,m,m,1,634
PLY75,102,EasyHard,4,46,18,0.121,47.31,Hard,B,m,m,1,1200
PLY75,102,EasyHard,4,47,3,0.056,78.04,Easy,A,c,c,1,656
PLY75,102,EasyHard,4,48,25,0.183,61.58,Medium,B,m,m,1,573
PLY75,102,EasyHard,4,49,30,0.2,53.9,Easy,B,m,m,1,485
PLY75,102,EasyHard,4,50,25,0.183,61.58,Medium,B,m,m,1,385
PLY75,102,EasyHard,4,51,3,0.056,78.04,Easy,A,c,c,1,641
PLY75,102,EasyHard,4,52,2,0.033,67.07,Easy,A,c,c,1,487
PLY75,102,EasyHard,4,53,17,0.098,36.34,Hard,B,m,m,1,618
PLY75,102,EasyHard,4,54,6,0.026,48.41,Medium,A,c,c,1,553
PLY75,102,EasyHard,4,55,7,0.049,59.39,Medium,A,c,c,1,506
PLY75,102,EasyHard,4,56,29,0.176,42.92,Easy,B,m,m,1,669
PLY75,102,EasyHard,4,57,2,0.033,67.07,Easy,A,c,c,1,514
PLY75,102,EasyHard,4,58,12,0.065,51.7,Hard,A,c,c,1,709
PLY75,102,EasyHard,4,59,23,0.137,39.63,Medium,B,m,m,1,616
PLY75,102,EasyHard,4,60,1,0.01,56.09,Easy,A,c,c,1,527
PLY75,102,EasyHard,4,61,5,0.102,100,Easy,A,c,c,1,713
PLY75,102,EasyHard,4,62,29,0.176,42.92,Easy,B,m,c,0,756
PLY75,102,EasyHard,4,63,4,0.079,89.02,Easy,A,c,c,1,1021
PLY75,102,EasyHard,4,64,20,0.167,69.26,Hard,B,m,m,1,844
PLY75,102,EasyHard,4,65,4,0.079,89.02,Easy,A,c,c,1,762
PLY75,102,EasyHard,4,66,13,0.088,62.68,Hard,A,c,m,0,1003
PLY75,102,EasyHard,4,67,2,0.033,67.07,Easy,A,c,c,1,578
PLY75,102,EasyHard,4,68,6,0.026,48.41,Medium,A,c,c,1,603
PLY75,102,EasyHard,4,69,29,0.176,42.92,Easy,B,m,m,1,562
PLY75,102,EasyHard,4,70,29,0.176,42.92,Easy,B,m,m,1,787
PLY75,102,EasyHard,4,71,7,0.049,59.39,Medium,A,c,c,1,851
PLY75,102,EasyHard,4,72,7,0.049,59.39,Medium,A,c,c,1,472
PLY75,102,EasyHard,4,73,27,0.13,20.97,Easy,B,m,m,1,708
PLY75,102,EasyHard,4,74,25,0.183,61.58,Medium,B,m,m,1,591
PLY75,102,EasyHard,4,75,5,0.102,100,Easy,A,c,c,1,583
PLY75,102,EasyHard,4,76,6,0.026,48.41,Medium,A,c,c,1,687
PLY75,102,EasyHard,4,77,11,0.042,40.73,Hard,A,c,c,1,619
PLY75,102,EasyHard,4,78,30,0.2,53.9,Easy,B,m,m,1,530
PLY75,102,EasyHard,4,79,21,0.091,17.68,Medium,B,m,m,1,845
PLY75,102,EasyHard,4,80,11,0.042,40.73,Hard,A,c,m,0,938
PLY75,102,EasyHard,4,81,30,0.2,53.9,Easy,B,m,m,1,467
PLY75,102,EasyHard,4,82,20,0.167,69.26,Hard,B,m,m,1,1920
PLY75,102,EasyHard,4,83,28,0.153,31.95,Easy,B,m,m,1,572
PLY75,102,EasyHard,4,84,17,0.098,36.34,Hard,B,m,m,1,781
PLY75,102,EasyHard,4,85,23,0.137,39.63,Medium,B,m,m,1,557
PLY75,102,EasyHard,4,86,28,0.153,31.95,Easy,B,m,m,1,518
PLY75,102,EasyHard,4,87,23,0.137,39.63,Medium,B,m,m,1,345
PLY75,102,EasyHard,4,88,13,0.088,62.68,Hard,A,c,m,0,306
PLY75,102,EasyHard,4,89,30,0.2,53.9,Easy,B,m,m,1,557
PLY75,102,EasyHard,4,90,14,0.111,73.65,Hard,A,c,m,0,790
PLY75,102,EasyHard,4,91,25,0.183,61.58,Medium,B,m,m,1,637
PLY75,102,EasyHard,4,92,29,0.176,42.92,Easy,B,m,m,1,427
PLY75,102,EasyHard,4,93,21,0.091,17.68,Medium,B,m,c,0,1049
PLY75,102,EasyHard,4,94,20,0.167,69.26,Hard,B,m,m,1,487
PLY75,102,EasyHard,4,95,25,0.183,61.58,Medium,B,m,m,1,562
PLY75,102,EasyHard,4,96,10,0.118,92.31,Medium,A,c,c,1,675
PLY75,102,EasyHard,4,97,10,0.118,92.31,Medium,A,c,c,1,647
PLY75,102,EasyHard,4,98,19,0.144,58.29,Hard,B,m,m,1,517
PLY75,102,EasyHard,4,99,22,0.114,28.65,Medium,B,m,m,1,592
PLY75,102,EasyHard,4,100,18,0.121,47.31,Hard,B,m,m,1,895
PLY75,102,EasyHard,4,101,16,0.074,25.36,Hard,B,m,c,0,859
PLY75,102,EasyHard,4,102,18,0.121,47.31,Hard,B,m,m,1,1224
PLY75,102,EasyHard,4,103,19,0.144,58.29,Hard,B,m,c,0,903
PLY75,102,EasyHard,4,104,4,0.079,89.02,Easy,A,c,c,1,578
PLY75,102,EasyHard,4,105,5,0.102,100,Easy,A,c,c,1,674
PLY75,102,EasyHard,4,106,7,0.049,59.39,Medium,A,c,c,1,631
PLY75,102,EasyHard,4,107,26,0.107,10,Easy,B,m,m,1,621
PLY75,102,EasyHard,4,108,6,0.026,48.41,Medium,A,c,c,1,580
PLY75,102,EasyHard,4,109,9,0.095,81.34,Medium,A,c,m,0,1276
PLY75,102,EasyHard,4,110,16,0.074,25.36,Hard,B,m,m,1,1401
PLY75,102,EasyHard,4,111,15,0.135,84.63,Hard,A,c,c,1,824
PLY75,102,EasyHard,4,112,28,0.153,31.95,Easy,B,m,m,1,655
PLY75,102,EasyHard,4,113,1,0.01,56.09,Easy,A,c,c,1,596
PLY75,102,EasyHard,4,114,7,0.049,59.39,Medium,A,c,c,1,731
PLY75,102,EasyHard,4,115,8,0.072,70.36,Medium,A,c,c,1,925
PLY75,102,EasyHard,4,116,10,0.118,92.31,Medium,A,c,c,1,776
PLY75,102,EasyHard,4,117,3,0.056,78.04,Easy,A,c,c,1,552
PLY75,102,EasyHard,4,118,12,0.065,51.7,Hard,A,c,c,1,689
PLY75,102,EasyHard,4,119,12,0.065,51.7,Hard,A,c,c,1,404
PLY75,102,EasyHard,4,120,27,0.13,20.97,Easy,B,m,m,1,891
PLY75,102,EasyHard,4,121,13,0.088,62.68,Hard,A,c,c,1,1079
PLY75,102,EasyHard,4,122,16,0.074,25.36,Hard,B,m,c,0,411
PLY75,102,EasyHard,4,123,21,0.091,17.68,Medium,B,m,m,1,1154
PLY75,102,EasyHard,4,124,21,0.091,17.68,Medium,B,m,m,1,635
PLY75,102,EasyHard,4,125,8,0.072,70.36,Medium,A,c,m,0,689
PLY75,102,EasyHard,4,126,14,0.111,73.65,Hard,A,c,m,0,1748
PLY75,102,EasyHard,4,127,24,0.16,50.61,Medium,B,m,m,1,669
PLY75,102,EasyHard,4,128,1,0.01,56.09,Easy,A,c,c,1,626
PLY75,102,EasyHard,4,129,11,0.042,40.73,Hard,A,c,c,1,737
PLY75,102,EasyHard,4,130,12,0.065,51.7,Hard,A,c,c,1,2890
PLY75,102,EasyHard,4,131,19,0.144,58.29,Hard,B,m,m,1,575
PLY75,102,EasyHard,4,132,28,0.153,31.95,Easy,B,m,m,1,1231
PLY75,102,EasyHard,4,133,19,0.144,58.29,Hard,B,m,m,1,453
PLY75,102,EasyHard,4,134,22,0.114,28.65,Medium,B,m,m,1,642
PLY75,102,EasyHard,4,135,2,0.033,67.07,Easy,A,c,c,1,528
PLY75,102,EasyHard,4,136,16,0.074,25.36,Hard,B,m,m,1,634
PLY75,102,EasyHard,4,137,15,0.135,84.63,Hard,A,c,c,1,1327
PLY75,102,EasyHard,4,138,22,0.114,28.65,Medium,B,m,m,1,602
PLY75,102,EasyHard,4,139,15,0.135,84.63,Hard,A,c,m,0,681
PLY75,102,EasyHard,4,140,3,0.056,78.04,Easy,A,c,c,1,2310
PLY75,102,EasyHard,4,141,8,0.072,70.36,Medium,A,c,c,1,713
PLY75,102,EasyHard,4,142,15,0.135,84.63,Hard,A,c,m,0,1180
PLY75,102,EasyHard,4,143,17,0.098,36.34,Hard,B,m,m,1,1037
PLY75,102,EasyHard,4,144,6,0.026,48.41,Medium,A,c,c,1,738
PLY75,102,EasyHard,4,145,13,0.088,62.68,Hard,A,c,m,0,1532
PLY75,102,EasyHard,4,146,14,0.111,73.65,Hard,A,c,c,1,1847
PLY75,102,EasyHard,4,147,24,0.16,50.61,Medium,B,m,c,0,965
PLY75,102,EasyHard,4,148,8,0.072,70.36,Medium,A,c,c,1,2454
PLY75,102,EasyHard,4,149,4,0.079,89.02,Easy,A,c,c,1,2011
PLY75,102,EasyHard,4,150,9,0.095,81.34,Medium,A,c,c,1,1947
PLY75,103,EasyHard,1,1,3,0.056,78.04,Easy,A,c,c,1,2015
PLY75,103,EasyHard,1,2,27,0.13,20.97,Easy,B,m,m,1,1549
PLY75,103,EasyHard,1,3,26,0.107,10,Easy,B,m,c,0,3246
PLY75,103,EasyHard,1,4,27,0.13,20.97,Easy,B,m,m,1,2349
PLY75,103,EasyHard,1,5,5,0.102,100,Easy,A,c,m,0,3503
PLY75,103,EasyHard,1,6,1,0.01,56.09,Easy,A,c,c,1,915
PLY75,103,EasyHard,1,7,26,0.107,10,Easy,B,m,c,0,1694
PLY75,103,EasyHard,1,8,5,0.102,100,Easy,A,c,m,0,2602
PLY75,103,EasyHard,1,9,29,0.176,42.92,Easy,B,m,c,0,1554
PLY75,103,EasyHard,1,10,27,0.13,20.97,Easy,B,m,m,1,1300
PLY75,103,EasyHard,1,11,2,0.033,67.07,Easy,A,c,c,1,5519
PLY75,103,EasyHard,1,12,5,0.102,100,Easy,A,c,m,0,611
PLY75,103,EasyHard,1,13,4,0.079,89.02,Easy,A,c,c,1,1866
PLY75,103,EasyHard,1,14,3,0.056,78.04,Easy,A,c,c,1,783
PLY75,103,EasyHard,1,15,1,0.01,56.09,Easy,A,c,c,1,1135
PLY75,103,EasyHard,1,16,4,0.079,89.02,Easy,A,c,c,1,818
PLY75,103,EasyHard,1,17,29,0.176,42.92,Easy,B,m,m,1,1713
PLY75,103,EasyHard,1,18,3,0.056,78.04,Easy,A,c,c,1,1196
PLY75,103,EasyHard,1,19,28,0.153,31.95,Easy,B,m,m,1,1500
PLY75,103,EasyHard,1,20,27,0.13,20.97,Easy,B,m,m,1,1007
PLY75,103,EasyHard,1,21,5,0.102,100,Easy,A,c,m,0,1542
PLY75,103,EasyHard,1,22,28,0.153,31.95,Easy,B,m,m,1,617
PLY75,103,EasyHard,1,23,26,0.107,10,Easy,B,m,m,1,528
PLY75,103,EasyHard,1,24,5,0.102,100,Easy,A,c,m,0,1210
PLY75,103,EasyHard,1,25,26,0.107,10,Easy,B,m,m,1,873
PLY75,103,EasyHard,1,26,30,0.2,53.9,Easy,B,m,m,1,742
PLY75,103,EasyHard,1,27,29,0.176,42.92,Easy,B,m,m,1,599
PLY75,103,EasyHard,1,28,1,0.01,56.09,Easy,A,c,c,1,687
PLY75,103,EasyHard,1,29,26,0.107,10,Easy,B,m,m,1,579
PLY75,103,EasyHard,1,30,1,0.01,56.09,Easy,A,c,c,1,556
PLY75,103,EasyHard,1,31,29,0.176,42.92,Easy,B,m,m,1,676
PLY75,103,EasyHard,1,32,3,0.056,78.04,Easy,A,c,c,1,824
PLY75,103,EasyHard,1,33,29,0.176,42.92,Easy,B,m,m,1,487
PLY75,103,EasyHard,1,34,28,0.153,31.95,Easy,B,m,c,0,355
PLY75,103,EasyHard,1,35,2,0.033,67.07,Easy,A,c,c,1,788
PLY75,103,EasyHard,1,36,28,0.153,31.95,Easy,B,m,m,1,627
PLY75,103,EasyHard,1,37,30,0.2,53.9,Easy,B,m,m,1,506
PLY75,103,EasyHard,1,38,1,0.01,56.09,Easy,A,c,c,1,629
PLY75,103,EasyHard,1,39,2,0.033,67.07,Easy,A,c,c,1,427
PLY75,103,EasyHard,1,40,28,0.153,31.95,Easy,B,m,m,1,729
PLY75,103,EasyHard,1,41,4,0.079,89.02,Easy,A,c,m,0,476
PLY75,103,EasyHard,1,42,29,0.176,42.92,Easy,B,m,m,1,680
PLY75,103,EasyHard,1,43,2,0.033,67.07,Easy,A,c,c,1,989
PLY75,103,EasyHard,1,44,2,0.033,67.07,Easy,A,c,c,1,612
PLY75,103,EasyHard,1,45,1,0.01,56.09,Easy,A,c,c,1,603
PLY75,103,EasyHard,1,46,2,0.033,67.07,Easy,A,c,c,1,706
PLY75,103,EasyHard,1,47,29,0.176,42.92,Easy,B,m,m,1,437
PLY75,103,EasyHard,1,48,27,0.13,20.97,Easy,B,m,m,1,644
PLY75,103,EasyHard,1,49,2,0.033,67.07,Easy,A,c,c,1,457
PLY75,103,EasyHard,1,50,30,0.2,53.9,Easy,B,m,m,1,645
PLY75,103,EasyHard,1,51,26,0.107,10,Easy,B,m,m,1,1051
PLY75,103,EasyHard,1,52,2,0.033,67.07,Easy,A,c,c,1,512
PLY75,103,EasyHard,1,53,29,0.176,42.92,Easy,B,m,m,1,619
PLY75,103,EasyHard,1,54,5,0.102,100,Easy,A,c,m,0,674
PLY75,103,EasyHard,1,55,5,0.102,100,Easy,A,c,c,1,758
PLY75,103,EasyHard,1,56,5,0.102,100,Easy,A,c,c,1,647
PLY75,103,EasyHard,1,57,5,0.102,100,Easy,A,c,c,1,541
PLY75,103,EasyHard,1,58,1,0.01,56.09,Easy,A,c,c,1,662
PLY75,103,EasyHard,1,59,3,0.056,78.04,Easy,A,c,c,1,699
PLY75,103,EasyHard,1,60,2,0.033,67.07,Easy,A,c,c,1,463
PLY75,103,EasyHard,1,61,4,0.079,89.02,Easy,A,c,c,1,667
PLY75,103,EasyHard,1,62,4,0.079,89.02,Easy,A,c,c,1,641
PLY75,103,EasyHard,1,63,30,0.2,53.9,Easy,B,m,m,1,630
PLY75,103,EasyHard,1,64,4,0.079,89.02,Easy,A,c,c,1,1293
PLY75,103,EasyHard,1,65,30,0.2,53.9,Easy,B,m,m,1,729
PLY75,103,EasyHard,1,66,29,0.176,42.92,Easy,B,m,m,1,539
PLY75,103,EasyHard,1,67,1,0.01,56.09,Easy,A,c,c,1,581
PLY75,103,EasyHard,1,68,5,0.102,100,Easy,A,c,m,0,1421
PLY75,103,EasyHard,1,69,3,0.056,78.04,Easy,A,c,c,1,1923
PLY75,103,EasyHard,1,70,27,0.13,20.97,Easy,B,m,c,0,1301
PLY75,103,EasyHard,1,71,2,0.033,67.07,Easy,A,c,c,1,1072
PLY75,103,EasyHard,1,72,26,0.107,10,Easy,B,m,c,0,693
PLY75,103,EasyHard,1,73,30,0.2,53.9,Easy,B,m,m,1,744
PLY75,103,EasyHard,1,74,29,0.176,42.92,Easy,B,m,m,1,554
PLY75,103,EasyHard,1,75,3,0.056,78.04,Easy,A,c,c,1,819
PLY75,103,EasyHard,1,76,3,0.056,78.04,Easy,A,c,c,1,513
PLY75,103,EasyHard,1,77,30,0.2,53.9,Easy,B,m,m,1,828
PLY75,103,EasyHard,1,78,30,0.2,53.9,Easy,B,m,m,1,539
PLY75,103,EasyHard,1,79,27,0.13,20.97,Easy,B,m,m,1,549
PLY75,103,EasyHard,1,80,27,0.13,20.97,Easy,B,m,m,1,430
PLY75,103,EasyHard,1,81,28,0.153,31.95,Easy,B,m,m,1,444
PLY75,103,EasyHard,1,82,30,0.2,53.9,Easy,B,m,m,1,410
PLY75,103,EasyHard,1,83,30,0.2,53.9,Easy,B,m,m,1,473
PLY75,103,EasyHard,1,84,2,0.033,67.07,Easy,A,c,c,1,517
PLY75,103,EasyHard,1,85,28,0.153,31.95,Easy,B,m,m,1,560
PLY75,103,EasyHard,1,86,4,0.079,89.02,Easy,A,c,c,1,2777
PLY75,103,EasyHard,1,87,26,0.107,10,Easy,B,m,c,0,777
PLY75,103,EasyHard,1,88,5,0.102,100,Easy,A,c,m,0,1209
PLY75,103,EasyHard,1,89,30,0.2,53.9,Easy,B,m,m,1,920
PLY75,103,EasyHard,1,90,1,0.01,56.09,Easy,A,c,c,1,691
PLY75,103,EasyHard,1,91,27,0.13,20.97,Easy,B,m,m,1,1303
PLY75,103,EasyHard,1,92,1,0.01,56.09,Easy,A,c,c,1,514
PLY75,103,EasyHard,1,93,5,0.102,100,Easy,A,c,c,1,2669
PLY75,103,EasyHard,1,94,4,0.079,89.02,Easy,A,c,c,1,1202
PLY75,103,EasyHard,1,95,27,0.13,20.97,Easy,B,m,m,1,593
PLY75,103,EasyHard,1,96,27,0.13,20.97,Easy,B,m,m,1,2841
PLY75,103,EasyHard,1,97,26,0.107,10,Easy,B,m,m,1,792
PLY75,103,EasyHard,1,98,1,0.01,56.09,Easy,A,c,c,1,919
PLY75,103,EasyHard,1,99,29,0.176,42.92,Easy,B,m,m,1,578
PLY75,103,EasyHard,1,100,5,0.102,100,Easy,A,c,m,0,1099
PLY75,103,EasyHard,1,101,27,0.13,20.97,Easy,B,m,m,1,622
PLY75,103,EasyHard,1,102,5,0.102,100,Easy,A,c,m,0,596
PLY75,103,EasyHard,1,103,27,0.13,20.97,Easy,B,m,m,1,891
PLY75,103,EasyHard,1,104,28,0.153,31.95,Easy,B,m,m,1,551
PLY75,103,EasyHard,1,105,26,0.107,10,Easy,B,m,m,1,576
PLY75,103,EasyHard,1,106,1,0.01,56.09,Easy,A,c,c,1,504
PLY75,103,EasyHard,1,107,3,0.056,78.04,Easy,A,c,c,1,787
PLY75,103,EasyHard,1,108,3,0.056,78.04,Easy,A,c,c,1,483
PLY75,103,EasyHard,1,109,26,0.107,10,Easy,B,m,m,1,735
PLY75,103,EasyHard,1,110,30,0.2,53.9,Easy,B,m,m,1,738
PLY75,103,EasyHard,1,111,3,0.056,78.04,Easy,A,c,c,1,1779
PLY75,103,EasyHard,1,112,3,0.056,78.04,Easy,A,c,c,1,1148
PLY75,103,EasyHard,1,113,29,0.176,42.92,Easy,B,m,m,1,638
PLY75,103,EasyHard,1,114,29,0.176,42.92,Easy,B,m,m,1,580
PLY75,103,EasyHard,1,115,27,0.13,20.97,Easy,B,m,m,1,572
PLY75,103,EasyHard,1,116,28,0.153,31.95,Easy,B,m,m,1,484
PLY75,103,EasyHard,1,117,28,0.153,31.95,Easy,B,m,m,1,432
PLY75,103,EasyHard,1,118,30,0.2,53.9,Easy,B,m,m,1,526
PLY75,103,EasyHard,1,119,26,0.107,10,Easy,B,m,m,1,953
PLY75,103,EasyHard,1,120,1,0.01,56.09,Easy,A,c,c,1,530
PLY75,103,EasyHard,1,121,4,0.079,89.02,Easy,A,c,c,1,972
PLY75,103,EasyHard,1,122,26,0.107,10,Easy,B,m,m,1,708
PLY75,103,EasyHard,1,123,2,0.033,67.07,Easy,A,c,c,1,535
PLY75,103,EasyHard,1,124,1,0.01,56.09,Easy,A,c,c,1,561
PLY75,103,EasyHard,1,125,4,0.079,89.02,Easy,A,c,c,1,730
PLY75,103,EasyHard,1,126,28,0.153,31.95,Easy,B,m,m,1,716
PLY75,103,EasyHard,1,127,29,0.176,42.92,Easy,B,m,m,1,639
PLY75,103,EasyHard,1,128,28,0.153,31.95,Easy,B,m,m,1,516
PLY75,103,EasyHard,1,129,30,0.2,53.9,Easy,B,m,m,1,655
PLY75,103,EasyHard,1,130,4,0.079,89.02,Easy,A,c,c,1,2548
PLY75,103,EasyHard,1,131,3,0.056,78.04,Easy,A,c,c,1,639
PLY75,103,EasyHard,1,132,29,0.176,42.92,Easy,B,m,m,1,533
PLY75,103,EasyHard,1,133,4,0.079,89.02,Easy,A,c,m,0,527
PLY75,103,EasyHard,1,134,3,0.056,78.04,Easy,A,c,c,1,889
PLY75,103,EasyHard,1,135,3,0.056,78.04,Easy,A,c,c,1,565
PLY75,103,EasyHard,1,136,2,0.033,67.07,Easy,A,c,c,1,590
PLY75,103,EasyHard,1,137,4,0.079,89.02,Easy,A,c,c,1,742
PLY75,103,EasyHard,1,138,2,0.033,67.07,Easy,A,c,c,1,727
PLY75,103,EasyHard,1,139,28,0.153,31.95,Easy,B,m,m,1,905
PLY75,103,EasyHard,1,140,30,0.2,53.9,Easy,B,m,m,1,628
PLY75,103,EasyHard,1,141,5,0.102,100,Easy,A,c,c,1,1722
PLY75,103,EasyHard,1,142,28,0.153,31.95,Easy,B,m,m,1,644
PLY75,103,EasyHard,1,143,28,0.153,31.95,Easy,B,m,m,1,474
PLY75,103,EasyHard,1,144,4,0.079,89.02,Easy,A,c,c,1,1478
PLY75,103,EasyHard,1,145,1,0.01,56.09,Easy,A,c,c,1,1403
PLY75,103,EasyHard,1,146,2,0.033,67.07,Easy,A,c,c,1,2994
PLY75,103,EasyHard,1,147,4,0.079,89.02,Easy,A,c,c,1,1115
PLY75,103,EasyHard,1,148,26,0.107,10,Easy,B,m,c,0,1422
PLY75,103,EasyHard,1,149,26,0.107,10,Easy,B,m,m,1,1508
PLY75,103,EasyHard,1,150,27,0.13,20.97,Easy,B,m,m,1,679
PLY75,103,EasyHard,2,1,10,0.118,92.31,Medium,A,c,m,0,2085
PLY75,103,EasyHard,2,2,22,0.114,28.65,Medium,B,m,m,1,945
PLY75,103,EasyHard,2,3,6,0.026,48.41,Medium,A,c,c,1,667
PLY75,103,EasyHard,2,4,24,0.16,50.61,Medium,B,m,m,1,1152
PLY75,103,EasyHard,2,5,25,0.183,61.58,Medium,B,m,m,1,465
PLY75,103,EasyHard,2,6,10,0.118,92.31,Medium,A,c,c,1,974
PLY75,103,EasyHard,2,7,23,0.137,39.63,Medium,B,m,m,1,1286
PLY75,103,EasyHard,2,8,8,0.072,70.36,Medium,A,c,c,1,691
PLY75,103,EasyHard,2,9,22,0.114,28.65,Medium,B,m,c,0,2887
PLY75,103,EasyHard,2,10,23,0.137,39.63,Medium,B,m,m,1,1123
PLY75,103,EasyHard,2,11,9,0.095,81.34,Medium,A,c,c,1,1158
PLY75,103,EasyHard,2,12,24,0.16,50.61,Medium,B,m,m,1,711
PLY75,103,EasyHard,2,13,25,0.183,61.58,Medium,B,m,m,1,842
PLY75,103,EasyHard,2,14,8,0.072,70.36,Medium,A,c,c,1,728
PLY75,103,EasyHard,2,15,23,0.137,39.63,Medium,B,m,m,1,1658
PLY75,103,EasyHard,2,16,7,0.049,59.39,Medium,A,c,c,1,760
PLY75,103,EasyHard,2,17,7,0.049,59.39,Medium,A,c,c,1,600
PLY75,103,EasyHard,2,18,10,0.118,92.31,Medium,A,c,c,1,2143
PLY75,103,EasyHard,2,19,8,0.072,70.36,Medium,A,c,c,1,585
PLY75,103,EasyHard,2,20,22,0.114,28.65,Medium,B,m,c,0,769
PLY75,103,EasyHard,2,21,23,0.137,39.63,Medium,B,m,m,1,786
PLY75,103,EasyHard,2,22,10,0.118,92.31,Medium,A,c,m,0,722
PLY75,103,EasyHard,2,23,22,0.114,28.65,Medium,B,m,c,0,1861
PLY75,103,EasyHard,2,24,10,0.118,92.31,Medium,A,c,m,0,2442
PLY75,103,EasyHard,2,25,9,0.095,81.34,Medium,A,c,c,1,1305
PLY75,103,EasyHard,2,26,25,0.183,61.58,Medium,B,m,m,1,804
PLY75,103,EasyHard,2,27,7,0.049,59.39,Medium,A,c,c,1,627
PLY75,103,EasyHard,2,28,22,0.114,28.65,Medium,B,m,c,0,585
PLY75,103,EasyHard,2,29,22,0.114,28.65,Medium,B,m,c,0,3041
PLY75,103,EasyHard,2,30,7,0.049,59.39,Medium,A,c,c,1,904
PLY75,103,EasyHard,2,31,6,0.026,48.41,Medium,A,c,c,1,675
PLY75,103,EasyHard,2,32,9,0.095,81.34,Medium,A,c,c,1,2087
PLY75,103,EasyHard,2,33,8,0.072,70.36,Medium,A,c,c,1,482
PLY75,103,EasyHard,2,34,6,0.026,48.41,Medium,A,c,c,1,638
PLY75,103,EasyHard,2,35,8,0.072,70.36,Medium,A,c,c,1,708
PLY75,103,EasyHard,2,36,21,0.091,17.68,Medium,B,m,c,0,855
PLY75,103,EasyHard,2,37,7,0.049,59.39,Medium,A,c,c,1,756
PLY75,103,EasyHard,2,38,6,0.026,48.41,Medium,A,c,c,1,469
PLY75,103,EasyHard,2,39,25,0.183,61.58,Medium,B,m,m,1,673
PLY75,103,EasyHard,2,40,9,0.095,81.34,Medium,A,c,m,0,1542
PLY75,103,EasyHard,2,41,21,0.091,17.68,Medium,B,m,c,0,824
PLY75,103,EasyHard,2,42,7,0.049,59.39,Medium,A,c,c,1,1910
PLY75,103,EasyHard,2,43,23,0.137,39.63,Medium,B,m,c,0,3130
PLY75,103,EasyHard,2,44,8,0.072,70.36,Medium,A,c,m,0,1853
PLY75,103,EasyHard,2,45,9,0.095,81.34,Medium,A,c,c,1,3074
PLY75,103,EasyHard,2,46,25,0.183,61.58,Medium,B,m,m,1,1016
PLY75,103,EasyHard,2,47,25,0.183,61.58,Medium,B,m,m,1,575
PLY75,103,EasyHard,2,48,23,0.137,39.63,Medium,B,m,m,1,454
PLY75,103,EasyHard,2,49,22,0.114,28.65,Medium,B,m,m,1,515
PLY75,103,EasyHard,2,50,8,0.072,70.36,Medium,A,c,m,0,2334
PLY75,103,EasyHard,2,51,24,0.16,50.61,Medium,B,m,m,1,785
PLY75,103,EasyHard,2,52,10,0.118,92.31,Medium,A,c,m,0,978
PLY75,103,EasyHard,2,53,24,0.16,50.61,Medium,B,m,m,1,698
PLY75,103,EasyHard,2,54,22,0.114,28.65,Medium,B,m,m,1,542
PLY75,103,EasyHard,2,55,10,0.118,92.31,Medium,A,c,c,1,1527
PLY75,103,EasyHard,2,56,10,0.118,92.31,Medium,A,c,c,1,538
PLY75,103,EasyHard,2,57,22,0.114,28.65,Medium,B,m,m,1,692
PLY75,103,EasyHard,2,58,10,0.118,92.31,Medium,A,c,c,1,568
PLY75,103,EasyHard,2,59,6,0.026,48.41,Medium,A,c,c,1,1793
PLY75,103,EasyHard,2,60,25,0.183,61.58,Medium,B,m,m,1,1497
PLY75,103,EasyHard,2,61,7,0.049,59.39,Medium,A,c,m,0,1997
PLY75,103,EasyHard,2,62,6,0.026,48.41,Medium,A,c,c,1,701
PLY75,103,EasyHard,2,63,23,0.137,39.63,Medium,B,m,m,1,2064
PLY75,103,EasyHard,2,64,21,0.091,17.68,Medium,B,m,m,1,910
PLY75,103,EasyHard,2,65,10,0.118,92.31,Medium,A,c,m,0,2200
PLY75,103,EasyHard,2,66,24,0.16,50.61,Medium,B,m,m,1,655
PLY75,103,EasyHard,2,67,23,0.137,39.63,Medium,B,m,m,1,500
PLY75,103,EasyHard,2,68,8,0.072,70.36,Medium,A,c,c,1,1376
PLY75,103,EasyHard,2,69,22,0.114,28.65,Medium,B,m,m,1,617
PLY75,103,EasyHard,2,70,21,0.091,17.68,Medium,B,m,m,1,528
PLY75,103,EasyHard,2,71,8,0.072,70.36,Medium,A,c,m,0,2170
PLY75,103,EasyHard,2,72,23,0.137,39.63,Medium,B,m,m,1,611
PLY75,103,EasyHard,2,73,24,0.16,50.61,Medium,B,m,m,1,505
PLY75,103,EasyHard,2,74,10,0.118,92.31,Medium,A,c,c,1,836
PLY75,103,EasyHard,2,75,21,0.091,17.68,Medium,B,m,m,1,515
PLY75,103,EasyHard,2,76,6,0.026,48.41,Medium,A,c,c,1,1038
PLY75,103,EasyHard,2,77,7,0.049,59.39,Medium,A,c,c,1,1492
PLY75,103,EasyHard,2,78,7,0.049,59.39,Medium,A,c,c,1,664
PLY75,103,EasyHard,2,79,25,0.183,61.58,Medium,B,m,m,1,1117
PLY75,103,EasyHard,2,80,6,0.026,48.41,Medium,A,c,c,1,592
PLY75,103,EasyHard,2,81,6,0.026,48.41,Medium,A,c,c,1,663
PLY75,103,EasyHard,2,82,8,0.072,70.36,Medium,A,c,c,1,860
PLY75,103,EasyHard,2,83,7,0.049,59.39,Medium,A,c,c,1,489
PLY75,103,EasyHard,2,84,9,0.095,81.34,Medium,A,c,c,1,596
PLY75,103,EasyHard,2,85,6,0.026,48.41,Medium,A,c,c,1,588
PLY75,103,EasyHard,2,86,21,0.091,17.68,Medium,B,m,m,1,3652
PLY75,103,EasyHard,2,87,7,0.049,59.39,Medium,A,c,m,0,1698
PLY75,103,EasyHard,2,88,25,0.183,61.58,Medium,B,m,m,1,973
PLY75,103,EasyHard,2,89,9,0.095,81.34,Medium,A,c,c,1,1877
PLY75,103,EasyHard,2,90,7,0.049,59.39,Medium,A,c,c,1,602
PLY75,103,EasyHard,2,91,23,0.137,39.63,Medium,B,m,m,1,3825
PLY75,103,EasyHard,2,92,10,0.118,92.31,Medium,A,c,c,1,1065
PLY75,103,EasyHard,2,93,22,0.114,28.65,Medium,B,m,m,1,606
PLY75,103,EasyHard,2,94,24,0.16,50.61,Medium,B,m,m,1,901
PLY75,103,EasyHard,2,95,10,0.118,92.31,Medium,A,c,c,1,976
PLY75,103,EasyHard,2,96,9,0.095,81.34,Medium,A,c,c,1,1128
PLY75,103,EasyHard,2,97,21,0.091,17.68,Medium,B,m,m,1,1035
PLY75,103,EasyHard,2,98,9,0.095,81.34,Medium,A,c,c,1,1488
PLY75,103,EasyHard,2,99,9,0.095,81.34,Medium,A,c,c,1,596
PLY75,103,EasyHard,2,100,24,0.16,50.61,Medium,B,m,m,1,620
PLY75,103,EasyHard,2,101,9,0.095,81.34,Medium,A,c,c,1,1058
PLY75,103,EasyHard,2,102,9,0.095,81.34,Medium,A,c,c,1,632
PLY75,103,EasyHard,2,103,21,0.091,17.68,Medium,B,m,m,1,525
PLY75,103,EasyHard,2,104,9,0.095,81.34,Medium,A,c,c,1,1847
PLY75,103,EasyHard,2,105,24,0.16,50.61,Medium,B,m,m,1,573
PLY75,103,EasyHard,2,106,24,0.16,50.61,Medium,B,m,m,1,518
PLY75,103,EasyHard,2,107,23,0.137,39.63,Medium,B,m,m,1,1856
PLY75,103,EasyHard,2,108,10,0.118,92.31,Medium,A,c,c,1,838
PLY75,103,EasyHard,2,109,22,0.114,28.65,Medium,B,m,m,1,500
PLY75,103,EasyHard,2,110,8,0.072,70.36,Medium,A,c,m,0,767
PLY75,103,EasyHard,2,111,24,0.16,50.61,Medium,B,m,m,1,640
PLY75,103,EasyHard,2,112,25,0.183,61.58,Medium,B,m,m,1,534
PLY75,103,EasyHard,2,113,23,0.137,39.63,Medium,B,m,m,1,448
PLY75,103,EasyHard,2,114,9,0.095,81.34,Medium,A,c,c,1,925
PLY75,103,EasyHard,2,115,8,0.072,70.36,Medium,A,c,c,1,616
PLY75,103,EasyHard,2,116,6,0.026,48.41,Medium,A,c,c,1,686
PLY75,103,EasyHard,2,117,7,0.049,59.39,Medium,A,c,c,1,706
PLY75,103,EasyHard,2,118,25,0.183,61.58,Medium,B,m,m,1,1381
PLY75,103,EasyHard,2,119,8,0.072,70.36,Medium,A,c,c,1,1070
PLY75,103,EasyHard,2,120,7,0.049,59.39,Medium,A,c,c,1,659
PLY75,103,EasyHard,2,121,21,0.091,17.68,Medium,B,m,c,0,1448
PLY75,103,EasyHard,2,122,22,0.114,28.65,Medium,B,m,m,1,2654
PLY75,103,EasyHard,2,123,24,0.16,50.61,Medium,B,m,m,1,675
PLY75,103,EasyHard,2,124,25,0.183,61.58,Medium,B,m,m,1,456
PLY75,103,EasyHard,2,125,21,0.091,17.68,Medium,B,m,c,0,1157
PLY75,103,EasyHard,2,126,8,0.072,70.36,Medium,A,c,c,1,1302
PLY75,103,EasyHard,2,127,6,0.026,48.41,Medium,A,c,c,1,817
PLY75,103,EasyHard,2,128,10,0.118,92.31,Medium,A,c,c,1,944
PLY75,103,EasyHard,2,129,6,0.026,48.41,Medium,A,c,c,1,650
PLY75,103,EasyHard,2,130,8,0.072,70.36,Medium,A,c,c,1,687
PLY75,103,EasyHard,2,131,21,0.091,17.68,Medium,B,m,m,1,756
PLY75,103,EasyHard,2,132,21,0.091,17.68,Medium,B,m,m,1,469
PLY75,103,EasyHard,2,133,24,0.16,50.61,Medium,B,m,m,1,576
PLY75,103,EasyHard,2,134,23,0.137,39.63,Medium,B,m,m,1,440
PLY75,103,EasyHard,2,135,25,0.183,61.58,Medium,B,m,m,1,470
PLY75,103,EasyHard,2,136,22,0.114,28.65,Medium,B,m,m,1,610
PLY75,103,EasyHard,2,137,6,0.026,48.41,Medium,A,c,c,1,569
PLY75,103,EasyHard,2,138,21,0.091,17.68,Medium,B,m,c,0,1090
PLY75,103,EasyHard,2,139,25,0.183,61.58,Medium,B,m,m,1,902
PLY75,103,EasyHard,2,140,22,0.114,28.65,Medium,B,m,m,1,769
PLY75,103,EasyHard,2,141,24,0.16,50.61,Medium,B,m,m,1,546
PLY75,103,EasyHard,2,142,21,0.091,17.68,Medium,B,m,m,1,620
PLY75,103,EasyHard,2,143,25,0.183,61.58,Medium,B,m,m,1,498
PLY75,103,EasyHard,2,144,6,0.026,48.41,Medium,A,c,c,1,926
PLY75,103,EasyHard,2,145,23,0.137,39.63,Medium,B,m,m,1,584
PLY75,103,EasyHard,2,146,24,0.16,50.61,Medium,B,m,m,1,481
PLY75,103,EasyHard,2,147,21,0.091,17.68,Medium,B,m,m,1,653
PLY75,103,EasyHard,2,148,23,0.137,39.63,Medium,B,m,m,1,850
PLY75,103,EasyHard,2,149,7,0.049,59.39,Medium,A,c,c,1,1359
PLY75,103,EasyHard,2,150,9,0.095,81.34,Medium,A,c,c,1,1432
PLY75,103,EasyHard,3,1,15,0.135,84.63,Hard,A,c,m,0,962
PLY75,103,EasyHard,3,2,17,0.098,36.34,Hard,B,m,c,0,1899
PLY75,103,EasyHard,3,3,16,0.074,25.36,Hard,B,m,c,0,639
PLY75,103,EasyHard,3,4,18,0.121,47.31,Hard,B,m,m,1,725
PLY75,103,EasyHard,3,5,15,0.135,84.63,Hard,A,c,c,1,999
PLY75,103,EasyHard,3,6,17,0.098,36.34,Hard,B,m,m,1,494
PLY75,103,EasyHard,3,7,13,0.088,62.68,Hard,A,c,m,0,442
PLY75,103,EasyHard,3,8,11,0.042,40.73,Hard,A,c,c,1,680
PLY75,103,EasyHard,3,9,14,0.111,73.65,Hard,A,c,c,1,764
PLY75,103,EasyHard,3,10,13,0.088,62.68,Hard,A,c,c,1,509
PLY75,103,EasyHard,3,11,11,0.042,40.73,Hard,A,c,c,1,615
PLY75,103,EasyHard,3,12,11,0.042,40.73,Hard,A,c,c,1,542
PLY75,103,EasyHard,3,13,15,0.135,84.63,Hard,A,c,m,0,808
PLY75,103,EasyHard,3,14,12,0.065,51.7,Hard,A,c,c,1,806
PLY75,103,EasyHard,3,15,17,0.098,36.34,Hard,B,m,c,0,757
PLY75,103,EasyHard,3,16,18,0.121,47.31,Hard,B,m,m,1,2518
PLY75,103,EasyHard,3,17,17,0.098,36.34,Hard,B,m,m,1,513
PLY75,103,EasyHard,3,18,12,0.065,51.7,Hard,A,c,m,0,524
PLY75,103,EasyHard,3,19,20,0.167,69.26,Hard,B,m,m,1,679
PLY75,103,EasyHard,3,20,20,0.167,69.26,Hard,B,m,m,1,475
PLY75,103,EasyHard,3,21,12,0.065,51.7,Hard,A,c,c,1,695
PLY75,103,EasyHard,3,22,20,0.167,69.26,Hard,B,m,m,1,539
PLY75,103,EasyHard,3,23,18,0.121,47.31,Hard,B,m,m,1,1349
PLY75,103,EasyHard,3,24,13,0.088,62.68,Hard,A,c,m,0,575
PLY75,103,EasyHard,3,25,16,0.074,25.36,Hard,B,m,c,0,647
PLY75,103,EasyHard,3,26,13,0.088,62.68,Hard,A,c,c,1,717
PLY75,103,EasyHard,3,27,20,0.167,69.26,Hard,B,m,m,1,976
PLY75,103,EasyHard,3,28,18,0.121,47.31,Hard,B,m,c,0,1144
PLY75,103,EasyHard,3,29,19,0.144,58.29,Hard,B,m,m,1,1482
PLY75,103,EasyHard,3,30,20,0.167,69.26,Hard,B,m,m,1,463
PLY75,103,EasyHard,3,31,13,0.088,62.68,Hard,A,c,c,1,955
PLY75,103,EasyHard,3,32,19,0.144,58.29,Hard,B,m,m,1,436
PLY75,103,EasyHard,3,33,11,0.042,40.73,Hard,A,c,c,1,466
PLY75,103,EasyHard,3,34,17,0.098,36.34,Hard,B,m,c,0,1471
PLY75,103,EasyHard,3,35,14,0.111,73.65,Hard,A,c,c,1,804
PLY75,103,EasyHard,3,36,15,0.135,84.63,Hard,A,c,m,0,579
PLY75,103,EasyHard,3,37,12,0.065,51.7,Hard,A,c,c,1,1803
PLY75,103,EasyHard,3,38,17,0.098,36.34,Hard,B,m,m,1,2467
PLY75,103,EasyHard,3,39,12,0.065,51.7,Hard,A,c,c,1,544
PLY75,103,EasyHard,3,40,15,0.135,84.63,Hard,A,c,m,0,1050
PLY75,103,EasyHard,3,41,13,0.088,62.68,Hard,A,c,m,0,2559
PLY75,103,EasyHard,3,42,20,0.167,69.26,Hard,B,m,m,1,2377
PLY75,103,EasyHard,3,43,11,0.042,40.73,Hard,A,c,c,1,1914
PLY75,103,EasyHard,3,44,14,0.111,73.65,Hard,A,c,c,1,1342
PLY75,103,EasyHard,3,45,11,0.042,40.73,Hard,A,c,c,1,728
PLY75,103,EasyHard,3,46,12,0.065,51.7,Hard,A,c,m,0,714
PLY75,103,EasyHard,3,47,11,0.042,40.73,Hard,A,c,c,1,1356
PLY75,103,EasyHard,3,48,19,0.144,58.29,Hard,B,m,m,1,645
PLY75,103,EasyHard,3,49,11,0.042,40.73,Hard,A,c,c,1,1562
PLY75,103,EasyHard,3,50,12,0.065,51.7,Hard,A,c,c,1,1276
PLY75,103,EasyHard,3,51,17,0.098,36.34,Hard,B,m,c,0,1080
PLY75,103,EasyHard,3,52,17,0.098,36.34,Hard,B,m,m,1,797
PLY75,103,EasyHard,3,53,19,0.144,58.29,Hard,B,m,m,1,781
PLY75,103,EasyHard,3,54,18,0.121,47.31,Hard,B,m,m,1,781
PLY75,103,EasyHard,3,55,15,0.135,84.63,Hard,A,c,m,0,525
PLY75,103,EasyHard,3,56,17,0.098,36.34,Hard,B,m,m,1,1704
PLY75,103,EasyHard,3,57,16,0.074,25.36,Hard,B,m,c,0,2019
PLY75,103,EasyHard,3,58,20,0.167,69.26,Hard,B,m,m,1,611
PLY75,103,EasyHard,3,59,18,0.121,47.31,Hard,B,m,m,1,650
PLY75,103,EasyHard,3,60,20,0.167,69.26,Hard,B,m,m,1,527
PLY75,103,EasyHard,3,61,19,0.144,58.29,Hard,B,m,m,1,409
PLY75,103,EasyHard,3,62,17,0.098,36.34,Hard,B,m,c,0,1400
PLY75,103,EasyHard,3,63,16,0.074,25.36,Hard,B,m,m,1,623
PLY75,103,EasyHard,3,64,20,0.167,69.26,Hard,B,m,m,1,533
PLY75,103,EasyHard,3,65,14,0.111,73.65,Hard,A,c,m,0,607
PLY75,103,EasyHard,3,66,20,0.167,69.26,Hard,B,m,m,1,534
PLY75,103,EasyHard,3,67,18,0.121,47.31,Hard,B,m,m,1,992
PLY75,103,EasyHard,3,68,15,0.135,84.63,Hard,A,c,m,0,504
PLY75,103,EasyHard,3,69,17,0.098,36.34,Hard,B,m,m,1,1203
PLY75,103,EasyHard,3,70,20,0.167,69.26,Hard,B,m,m,1,482
PLY75,103,EasyHard,3,71,15,0.135,84.63,Hard,A,c,c,1,895
PLY75,103,EasyHard,3,72,15,0.135,84.63,Hard,A,c,c,1,475
PLY75,103,EasyHard,3,73,16,0.074,25.36,Hard,B,m,m,1,599
PLY75,103,EasyHard,3,74,14,0.111,73.65,Hard,A,c,m,0,2414
PLY75,103,EasyHard,3,75,13,0.088,62.68,Hard,A,c,m,0,686
PLY75,103,EasyHard,3,76,13,0.088,62.68,Hard,A,c,c,1,1202
PLY75,103,EasyHard,3,77,11,0.042,40.73,Hard,A,c,c,1,657
PLY75,103,EasyHard,3,78,14,0.111,73.65,Hard,A,c,c,1,598
PLY75,103,EasyHard,3,79,16,0.074,25.36,Hard,B,m,c,0,1134
PLY75,103,EasyHard,3,80,14,0.111,73.65,Hard,A,c,c,1,864
PLY75,103,EasyHard,3,81,13,0.088,62.68,Hard,A,c,c,1,1118
PLY75,103,EasyHard,3,82,12,0.065,51.7,Hard,A,c,m,0,640
PLY75,103,EasyHard,3,83,20,0.167,69.26,Hard,B,m,m,1,725
PLY75,103,EasyHard,3,84,11,0.042,40.73,Hard,A,c,c,1,552
PLY75,103,EasyHard,3,85,17,0.098,36.34,Hard,B,m,c,0,945
PLY75,103,EasyHard,3,86,14,0.111,73.65,Hard,A,c,m,0,3179
PLY75,103,EasyHard,3,87,19,0.144,58.29,Hard,B,m,m,1,652
PLY75,103,EasyHard,3,88,11,0.042,40.73,Hard,A,c,c,1,705
PLY75,103,EasyHard,3,89,12,0.065,51.7,Hard,A,c,m,0,1428
PLY75,103,EasyHard,3,90,14,0.111,73.65,Hard,A,c,c,1,2362
PLY75,103,EasyHard,3,91,11,0.042,40.73,Hard,A,c,c,1,619
PLY75,103,EasyHard,3,92,11,0.042,40.73,Hard,A,c,c,1,434
PLY75,103,EasyHard,3,93,16,0.074,25.36,Hard,B,m,c,0,832
PLY75,103,EasyHard,3,94,12,0.065,51.7,Hard,A,c,m,0,702
PLY75,103,EasyHard,3,95,13,0.088,62.68,Hard,A,c,c,1,897
PLY75,103,EasyHard,3,96,18,0.121,47.31,Hard,B,m,m,1,8556
PLY75,103,EasyHard,3,97,19,0.144,58.29,Hard,B,m,m,1,680
PLY75,103,EasyHard,3,98,15,0.135,84.63,Hard,A,c,m,0,1869
PLY75,103,EasyHard,3,99,16,0.074,25.36,Hard,B,m,c,0,1250
PLY75,103,EasyHard,3,100,15,0.135,84.63,Hard,A,c,m,0,527
PLY75,103,EasyHard,3,101,15,0.135,84.63,Hard,A,c,m,0,586
PLY75,103,EasyHard,3,102,20,0.167,69.26,Hard,B,m,m,1,1314
PLY75,103,EasyHard,3,103,12,0.065,51.7,Hard,A,c,c,1,1133
PLY75,103,EasyHard,3,104,17,0.098,36.34,Hard,B,m,c,0,704
PLY75,103,EasyHard,3,105,19,0.144,58.29,Hard,B,m,c,0,627
PLY75,103,EasyHard,3,106,14,0.111,73.65,Hard,A,c,c,1,793
PLY75,103,EasyHard,3,107,16,0.074,25.36,Hard,B,m,c,0,1177
PLY75,103,EasyHard,3,108,12,0.065,51.7,Hard,A,c,m,0,2442
PLY75,103,EasyHard,3,109,19,0.144,58.29,Hard,B,m,m,1,1080
PLY75,103,EasyHard,3,110,12,0.065,51.7,Hard,A,c,c,1,860
PLY75,103,EasyHard,3,111,16,0.074,25.36,Hard,B,m,c,0,506
PLY75,103,EasyHard,3,112,14,0.111,73.65,Hard,A,c,m,0,2772
PLY75,103,EasyHard,3,113,13,0.088,62.68,Hard,A,c,c,1,709
PLY75,103,EasyHard,3,114,14,0.111,73.65,Hard,A,c,c,1,600
PLY75,103,EasyHard,3,115,17,0.098,36.34,Hard,B,m,c,0,591
PLY75,103,EasyHard,3,116,19,0.144,58.29,Hard,B,m,c,0,950
PLY75,103,EasyHard,3,117,18,0.121,47.31,Hard,B,m,m,1,5280
PLY75,103,EasyHard,3,118,19,0.144,58.29,Hard,B,m,m,1,1533
PLY75,103,EasyHard,3,119,13,0.088,62.68,Hard,A,c,c,1,784
PLY75,103,EasyHard,3,120,15,0.135,84.63,Hard,A,c,m,0,1744
PLY75,103,EasyHard,3,121,11,0.042,40.73,Hard,A,c,c,1,1610
PLY75,103,EasyHard,3,122,15,0.135,84.63,Hard,A,c,c,1,4186
PLY75,103,EasyHard,3,123,16,0.074,25.36,Hard,B,m,c,0,1731
PLY75,103,EasyHard,3,124,15,0.135,84.63,Hard,A,c,c,1,2174
PLY75,103,EasyHard,3,125,18,0.121,47.31,Hard,B,m,c,0,1047
PLY75,103,EasyHard,3,126,19,0.144,58.29,Hard,B,m,m,1,1291
PLY75,103,EasyHard,3,127,18,0.121,47.31,Hard,B,m,c,0,2087
PLY75,103,EasyHard,3,128,16,0.074,25.36,Hard,B,m,c,0,2228
PLY75,103,EasyHard,3,129,12,0.065,51.7,Hard,A,c,m,0,1659
PLY75,103,EasyHard,3,130,14,0.111,73.65,Hard,A,c,c,1,1240
PLY75,103,EasyHard,3,131,18,0.121,47.31,Hard,B,m,c,0,678
PLY75,103,EasyHard,3,132,19,0.144,58.29,Hard,B,m,m,1,1162
PLY75,103,EasyHard,3,133,19,0.144,58.29,Hard,B,m,m,1,1499
PLY75,103,EasyHard,3,134,13,0.088,62.68,Hard,A,c,c,1,2127
PLY75,103,EasyHard,3,135,20,0.167,69.26,Hard,B,m,m,1,794
PLY75,103,EasyHard,3,136,16,0.074,25.36,Hard,B,m,c,0,810
PLY75,103,EasyHard,3,137,13,0.088,62.68,Hard,A,c,m,0,809
PLY75,103,EasyHard,3,138,18,0.121,47.31,Hard,B,m,m,1,648
PLY75,103,EasyHard,3,139,16,0.074,25.36,Hard,B,m,c,0,589
PLY75,103,EasyHard,3,140,14,0.111,73.65,Hard,A,c,m,0,693
PLY75,103,EasyHard,3,141,11,0.042,40.73,Hard,A,c,m,0,3432
PLY75,103,EasyHard,3,142,18,0.121,47.31,Hard,B,m,m,1,639
PLY75,103,EasyHard,3,143,18,0.121,47.31,Hard,B,m,m,1,693
PLY75,103,EasyHard,3,144,19,0.144,58.29,Hard,B,m,m,1,569
PLY75,103,EasyHard,3,145,20,0.167,69.26,Hard,B,m,m,1,481
PLY75,103,EasyHard,3,146,17,0.098,36.34,Hard,B,m,c,0,589
PLY75,103,EasyHard,3,147,12,0.065,51.7,Hard,A,c,m,0,741
PLY75,103,EasyHard,3,148,13,0.088,62.68,Hard,A,c,m,0,567
PLY75,103,EasyHard,3,149,14,0.111,73.65,Hard,A,c,m,0,1280
PLY75,103,EasyHard,3,150,16,0.074,25.36,Hard,B,m,m,1,3068
PLY75,103,EasyHard,4,1,3,0.056,78.04,Easy,A,c,c,1,1100
PLY75,103,EasyHard,4,2,27,0.13,20.97,Easy,B,m,m,1,464
PLY75,103,EasyHard,4,3,21,0.091,17.68,Medium,B,m,c,0,973
PLY75,103,EasyHard,4,4,22,0.114,28.65,Medium,B,m,m,1,453
PLY75,103,EasyHard,4,5,22,0.114,28.65,Medium,B,m,m,1,578
PLY75,103,EasyHard,4,6,18,0.121,47.31,Hard,B,m,m,1,538
PLY75,103,EasyHard,4,7,7,0.049,59.39,Medium,A,c,c,1,484
PLY75,103,EasyHard,4,8,29,0.176,42.92,Easy,B,m,m,1,512
PLY75,103,EasyHard,4,9,17,0.098,36.34,Hard,B,m,m,1,811
PLY75,103,EasyHard,4,10,11,0.042,40.73,Hard,A,c,c,1,650
PLY75,103,EasyHard,4,11,3,0.056,78.04,Easy,A,c,c,1,848
PLY75,103,EasyHard,4,12,14,0.111,73.65,Hard,A,c,m,0,718
PLY75,103,EasyHard,4,13,22,0.114,28.65,Medium,B,m,m,1,625
PLY75,103,EasyHard,4,14,9,0.095,81.34,Medium,A,c,m,0,423
PLY75,103,EasyHard,4,15,14,0.111,73.65,Hard,A,c,m,0,566
PLY75,103,EasyHard,4,16,21,0.091,17.68,Medium,B,m,m,1,478
PLY75,103,EasyHard,4,17,7,0.049,59.39,Medium,A,c,c,1,683
PLY75,103,EasyHard,4,18,28,0.153,31.95,Easy,B,m,m,1,575
PLY75,103,EasyHard,4,19,30,0.2,53.9,Easy,B,m,m,1,488
PLY75,103,EasyHard,4,20,6,0.026,48.41,Medium,A,c,c,1,2691
PLY75,103,EasyHard,4,21,19,0.144,58.29,Hard,B,m,m,1,503
PLY75,103,EasyHard,4,22,26,0.107,10,Easy,B,m,m,1,1618
PLY75,103,EasyHard,4,23,24,0.16,50.61,Medium,B,m,m,1,450
PLY75,103,EasyHard,4,24,26,0.107,10,Easy,B,m,c,0,1535
PLY75,103,EasyHard,4,25,10,0.118,92.31,Medium,A,c,m,0,593
PLY75,103,EasyHard,4,26,29,0.176,42.92,Easy,B,m,m,1,505
PLY75,103,EasyHard,4,27,30,0.2,53.9,Easy,B,m,m,1,420
PLY75,103,EasyHard,4,28,7,0.049,59.39,Medium,A,c,c,1,546
PLY75,103,EasyHard,4,29,23,0.137,39.63,Medium,B,m,m,1,396
PLY75,103,EasyHard,4,30,22,0.114,28.65,Medium,B,m,m,1,604
PLY75,103,EasyHard,4,31,25,0.183,61.58,Medium,B,m,m,1,547
PLY75,103,EasyHard,4,32,16,0.074,25.36,Hard,B,m,c,0,1292
PLY75,103,EasyHard,4,33,6,0.026,48.41,Medium,A,c,c,1,696
PLY75,103,EasyHard,4,34,4,0.079,89.02,Easy,A,c,c,1,860
PLY75,103,EasyHard,4,35,28,0.153,31.95,Easy,B,m,m,1,473
PLY75,103,EasyHard,4,36,20,0.167,69.26,Hard,B,m,m,1,469
PLY75,103,EasyHard,4,37,29,0.176,42.92,Easy,B,m,m,1,370
PLY75,103,EasyHard,4,38,19,0.144,58.29,Hard,B,m,m,1,467
PLY75,103,EasyHard,4,39,13,0.088,62.68,Hard,A,c,m,0,430
PLY75,103,EasyHard,4,40,23,0.137,39.63,Medium,B,m,m,1,461
PLY75,103,EasyHard,4,41,18,0.121,47.31,Hard,B,m,m,1,458
PLY75,103,EasyHard,4,42,26,0.107,10,Easy,B,m,m,1,471
PLY75,103,EasyHard,4,43,14,0.111,73.65,Hard,A,c,m,0,595
PLY75,103,EasyHard,4,44,6,0.026,48.41,Medium,A,c,c,1,523
PLY75,103,EasyHard,4,45,19,0.144,58.29,Hard,B,m,m,1,597
PLY75,103,EasyHard,4,46,23,0.137,39.63,Medium,B,m,m,1,493
PLY75,103,EasyHard,4,47,21,0.091,17.68,Medium,B,m,m,1,632
PLY75,103,EasyHard,4,48,5,0.102,100,Easy,A,c,c,1,1294
PLY75,103,EasyHard,4,49,17,0.098,36.34,Hard,B,m,m,1,474
PLY75,103,EasyHard,4,50,1,0.01,56.09,Easy,A,c,c,1,630
PLY75,103,EasyHard,4,51,20,0.167,69.26,Hard,B,m,m,1,509
PLY75,103,EasyHard,4,52,9,0.095,81.34,Medium,A,c,m,0,504
PLY75,103,EasyHard,4,53,15,0.135,84.63,Hard,A,c,m,0,707
PLY75,103,EasyHard,4,54,11,0.042,40.73,Hard,A,c,m,0,374
PLY75,103,EasyHard,4,55,2,0.033,67.07,Easy,A,c,c,1,518
PLY75,103,EasyHard,4,56,8,0.072,70.36,Medium,A,c,c,1,1441
PLY75,103,EasyHard,4,57,18,0.121,47.31,Hard,B,m,m,1,887
PLY75,103,EasyHard,4,58,6,0.026,48.41,Medium,A,c,c,1,530
PLY75,103,EasyHard,4,59,1,0.01,56.09,Easy,A,c,c,1,461
PLY75,103,EasyHard,4,60,27,0.13,20.97,Easy,B,m,m,1,570
PLY75,103,EasyHard,4,61,13,0.088,62.68,Hard,A,c,m,0,1538
PLY75,103,EasyHard,4,62,4,0.079,89.02,Easy,A,c,c,1,1636
PLY75,103,EasyHard,4,63,6,0.026,48.41,Medium,A,c,c,1,483
PLY75,103,EasyHard,4,64,25,0.183,61.58,Medium,B,m,m,1,463
PLY75,103,EasyHard,4,65,24,0.16,50.61,Medium,B,m,m,1,348
PLY75,103,EasyHard,4,66,7,0.049,59.39,Medium,A,c,c,1,734
PLY75,103,EasyHard,4,67,2,0.033,67.07,Easy,A,c,c,1,496
PLY75,103,EasyHard,4,68,5,0.102,100,Easy,A,c,m,0,588
PLY75,103,EasyHard,4,69,22,0.114,28.65,Medium,B,m,m,1,675
PLY75,103,EasyHard,4,70,1,0.01,56.09,Easy,A,c,c,1,632
PLY75,103,EasyHard,4,71,16,0.074,25.36,Hard,B,m,m,1,462
PLY75,103,EasyHard,4,72,12,0.065,51.7,Hard,A,c,m,0,1499
PLY75,103,EasyHard,4,73,13,0.088,62.68,Hard,A,c,m,0,1086
PLY75,103,EasyHard,4,74,26,0.107,10,Easy,B,m,m,1,722
PLY75,103,EasyHard,4,75,4,0.079,89.02,Easy,A,c,m,0,773
PLY75,103,EasyHard,4,76,2,0.033,67.07,Easy,A,c,c,1,708
PLY75,103,EasyHard,4,77,8,0.072,70.36,Medium,A,c,c,1,1639
PLY75,103,EasyHard,4,78,4,0.079,89.02,Easy,A,c,c,1,501
PLY75,103,EasyHard,4,79,12,0.065,51.7,Hard,A,c,c,1,848
PLY75,103,EasyHard,4,80,5,0.102,100,Easy,A,c,c,1,2734
PLY75,103,EasyHard,4,81,9,0.095,81.34,Medium,A,c,m,0,1376
PLY75,103,EasyHard,4,82,28,0.153,31.95,Easy,B,m,m,1,553
PLY75,103,EasyHard,4,83,15,0.135,84.63,Hard,A,c,m,0,594
PLY75,103,EasyHard,4,84,14,0.111,73.65,Hard,A,c,m,0,602
PLY75,103,EasyHard,4,85,30,0.2,53.9,Easy,B,m,m,1,609
PLY75,103,EasyHard,4,86,17,0.098,36.34,Hard,B,m,c,0,936
PLY75,103,EasyHard,4,87,3,0.056,78.04,Easy,A,c,c,1,770
PLY75,103,EasyHard,4,88,5,0.102,100,Easy,A,c,c,1,2675
PLY75,103,EasyHard,4,89,3,0.056,78.04,Easy,A,c,c,1,744
PLY75,103,EasyHard,4,90,23,0.137,39.63,Medium,B,m,m,1,473
PLY75,103,EasyHard,4,91,5,0.102,100,Easy,A,c,c,1,742
PLY75,103,EasyHard,4,92,18,0.121,47.31,Hard,B,m,c,0,1559
PLY75,103,EasyHard,4,93,21,0.091,17.68,Medium,B,m,c,0,952
PLY75,103,EasyHard,4,94,11,0.042,40.73,Hard,A,c,c,1,721
PLY75,103,EasyHard,4,95,24,0.16,50.61,Medium,B,m,m,1,515
PLY75,103,EasyHard,4,96,29,0.176,42.92,Easy,B,m,m,1,414
PLY75,103,EasyHard,4,97,19,0.144,58.29,Hard,B,m,m,1,445
PLY75,103,EasyHard,4,98,30,0.2,53.9,Easy,B,m,m,1,539
PLY75,103,EasyHard,4,99,20,0.167,69.26,Hard,B,m,m,1,485
PLY75,103,EasyHard,4,100,17,0.098,36.34,Hard,B,m,m,1,593
PLY75,103,EasyHard,4,101,4,0.079,89.02,Easy,A,c,c,1,521
PLY75,103,EasyHard,4,102,9,0.095,81.34,Medium,A,c,c,1,995
PLY75,103,EasyHard,4,103,30,0.2,53.9,Easy,B,m,m,1,539
PLY75,103,EasyHard,4,104,12,0.065,51.7,Hard,A,c,c,1,900
PLY75,103,EasyHard,4,105,28,0.153,31.95,Easy,B,m,m,1,512
PLY75,103,EasyHard,4,106,3,0.056,78.04,Easy,A,c,c,1,523
PLY75,103,EasyHard,4,107,16,0.074,25.36,Hard,B,m,c,0,549
PLY75,103,EasyHard,4,108,11,0.042,40.73,Hard,A,c,c,1,559
PLY75,103,EasyHard,4,109,10,0.118,92.31,Medium,A,c,m,0,744
PLY75,103,EasyHard,4,110,13,0.088,62.68,Hard,A,c,m,0,601
PLY75,103,EasyHard,4,111,14,0.111,73.65,Hard,A,c,m,0,480
PLY75,103,EasyHard,4,112,1,0.01,56.09,Easy,A,c,c,1,669
PLY75,103,EasyHard,4,113,10,0.118,92.31,Medium,A,c,c,1,945
PLY75,103,EasyHard,4,114,25,0.183,61.58,Medium,B,m,m,1,426
PLY75,103,EasyHard,4,115,10,0.118,92.31,Medium,A,c,c,1,569
