"date"	"cond"	"cb"	"subj"	"phase"	"blk"	"trial"	"stim"	"resp"	"cresp"	"rt"	"stim2"
"08-11-2014"	"rule"	1	12	1	1	1	"mushrooms"	-1	0	0	5
"08-11-2014"	"rule"	1	12	1	1	2	"cheese and garlic"	1	0	1727	3
"08-11-2014"	"rule"	1	12	1	1	3	"seafood and red meat"	-1	0	0	9
"08-11-2014"	"rule"	1	12	1	1	4	"seafood"	0	1	1431	7
"08-11-2014"	"rule"	1	12	1	1	5	"banana"	1	1	1810	13
"08-11-2014"	"rule"	1	12	1	1	6	"peanuts"	0	0	1605	20
"08-11-2014"	"rule"	1	12	1	1	7	"milk"	0	0	1510	4
"08-11-2014"	"rule"	1	12	1	1	8	"milk and mushrooms"	0	1	1465	6
"08-11-2014"	"rule"	1	12	1	1	9	"peanuts"	0	0	1337	20
"08-11-2014"	"rule"	1	12	1	1	10	"olive oil and coffee"	0	1	1786	12
"08-11-2014"	"rule"	1	12	1	1	11	"mushrooms"	1	0	1532	5
"08-11-2014"	"rule"	1	12	1	1	12	"avocado"	0	0	957	19
"08-11-2014"	"rule"	1	12	1	1	13	"orange squash and bread"	0	0	1560	18
"08-11-2014"	"rule"	1	12	1	1	14	"coffee"	0	0	850	11
"08-11-2014"	"rule"	1	12	1	1	15	"eggs"	0	1	695	14
"08-11-2014"	"rule"	1	12	1	1	16	"seafood"	0	1	1006	7
"08-11-2014"	"rule"	1	12	1	1	17	"cheese"	1	1	1174	1
"08-11-2014"	"rule"	1	12	1	1	18	"olive oil and coffee"	0	1	1031	12
"08-11-2014"	"rule"	1	12	1	1	19	"orange squash and bread"	0	0	973	18
"08-11-2014"	"rule"	1	12	1	1	20	"cheese"	1	1	874	1
"08-11-2014"	"rule"	1	12	1	1	21	"milk"	1	0	613	4
"08-11-2014"	"rule"	1	12	1	1	22	"olive oil"	1	0	957	10
"08-11-2014"	"rule"	1	12	1	1	23	"coffee"	0	0	1332	11
"08-11-2014"	"rule"	1	12	1	1	24	"pasta and chocolate"	0	1	1658	24
"08-11-2014"	"rule"	1	12	1	1	25	"olive oil"	1	0	1567	10
"08-11-2014"	"rule"	1	12	1	1	26	"cheese and garlic"	0	0	2519	3
"08-11-2014"	"rule"	1	12	1	1	27	"banana"	0	1	1017	13
"08-11-2014"	"rule"	1	12	1	1	28	"garlic"	0	1	2945	2
"08-11-2014"	"rule"	1	12	1	1	29	"milk and mushrooms"	1	1	2092	6
"08-11-2014"	"rule"	1	12	1	1	30	"pasta and chocolate"	0	1	2270	24
"08-11-2014"	"rule"	1	12	1	1	31	"red meat"	0	1	1093	8
"08-11-2014"	"rule"	1	12	1	1	32	"avocado"	0	0	1035	19
"08-11-2014"	"rule"	1	12	1	1	33	"seafood and red meat"	0	0	1797	9
"08-11-2014"	"rule"	1	12	1	1	34	"garlic"	0	1	952	2
"08-11-2014"	"rule"	1	12	1	1	35	"eggs"	1	1	2119	14
"08-11-2014"	"rule"	1	12	1	1	36	"red meat"	1	1	1539	8
"08-11-2014"	"rule"	1	12	1	2	1	"seafood and red meat"	1	0	2904	9
"08-11-2014"	"rule"	1	12	1	2	2	"garlic"	0	1	1002	2
"08-11-2014"	"rule"	1	12	1	2	3	"banana"	0	1	828	13
"08-11-2014"	"rule"	1	12	1	2	4	"milk and mushrooms"	1	1	2258	6
"08-11-2014"	"rule"	1	12	1	2	5	"seafood"	1	1	1020	7
"08-11-2014"	"rule"	1	12	1	2	6	"olive oil and coffee"	1	1	1042	12
"08-11-2014"	"rule"	1	12	1	2	7	"red meat"	1	1	1107	8
"08-11-2014"	"rule"	1	12	1	2	8	"red meat"	1	1	1156	8
"08-11-2014"	"rule"	1	12	1	2	9	"seafood"	1	1	1269	7
"08-11-2014"	"rule"	1	12	1	2	10	"mushrooms"	1	0	1318	5
"08-11-2014"	"rule"	1	12	1	2	11	"orange squash and bread"	0	0	2092	18
"08-11-2014"	"rule"	1	12	1	2	12	"avocado"	0	0	870	19
"08-11-2014"	"rule"	1	12	1	2	13	"cheese and garlic"	0	0	1066	3
"08-11-2014"	"rule"	1	12	1	2	14	"coffee"	0	0	997	11
"08-11-2014"	"rule"	1	12	1	2	15	"olive oil and coffee"	1	1	1169	12
"08-11-2014"	"rule"	1	12	1	2	16	"milk and mushrooms"	1	1	678	6
"08-11-2014"	"rule"	1	12	1	2	17	"cheese"	1	1	1339	1
"08-11-2014"	"rule"	1	12	1	2	18	"peanuts"	0	0	1489	20
"08-11-2014"	"rule"	1	12	1	2	19	"milk"	1	0	1001	4
"08-11-2014"	"rule"	1	12	1	2	20	"peanuts"	0	0	1561	20
"08-11-2014"	"rule"	1	12	1	2	21	"avocado"	0	0	1537	19
"08-11-2014"	"rule"	1	12	1	2	22	"coffee"	1	0	1678	11
"08-11-2014"	"rule"	1	12	1	2	23	"olive oil"	1	0	959	10
"08-11-2014"	"rule"	1	12	1	2	24	"eggs"	1	1	876	14
"08-11-2014"	"rule"	1	12	1	2	25	"orange squash and bread"	0	0	1932	18
"08-11-2014"	"rule"	1	12	1	2	26	"cheese and garlic"	1	0	1639	3
"08-11-2014"	"rule"	1	12	1	2	27	"cheese"	1	1	1583	1
"08-11-2014"	"rule"	1	12	1	2	28	"eggs"	1	1	707	14
"08-11-2014"	"rule"	1	12	1	2	29	"garlic"	1	1	660	2
"08-11-2014"	"rule"	1	12	1	2	30	"milk"	1	0	1743	4
"08-11-2014"	"rule"	1	12	1	2	31	"pasta and chocolate"	0	1	1229	24
"08-11-2014"	"rule"	1	12	1	2	32	"banana"	0	1	1731	13
"08-11-2014"	"rule"	1	12	1	2	33	"mushrooms"	1	0	961	5
"08-11-2014"	"rule"	1	12	1	2	34	"olive oil"	1	0	911	10
"08-11-2014"	"rule"	1	12	1	2	35	"seafood and red meat"	1	0	1185	9
"08-11-2014"	"rule"	1	12	1	2	36	"pasta and chocolate"	0	1	1206	24
"08-11-2014"	"rule"	1	12	1	3	1	"cheese"	0	1	2549	1
"08-11-2014"	"rule"	1	12	1	3	2	"seafood"	1	1	1517	7
"08-11-2014"	"rule"	1	12	1	3	3	"eggs"	1	1	1228	14
"08-11-2014"	"rule"	1	12	1	3	4	"milk and mushrooms"	1	1	1571	6
"08-11-2014"	"rule"	1	12	1	3	5	"peanuts"	1	0	1672	20
"08-11-2014"	"rule"	1	12	1	3	6	"coffee"	0	0	1183	11
"08-11-2014"	"rule"	1	12	1	3	7	"cheese and garlic"	1	0	1722	3
"08-11-2014"	"rule"	1	12	1	3	8	"milk"	1	0	847	4
"08-11-2014"	"rule"	1	12	1	3	9	"red meat"	1	1	896	8
"08-11-2014"	"rule"	1	12	1	3	10	"eggs"	1	1	606	14
"08-11-2014"	"rule"	1	12	1	3	11	"seafood and red meat"	1	0	968	9
"08-11-2014"	"rule"	1	12	1	3	12	"cheese and garlic"	1	0	740	3
"08-11-2014"	"rule"	1	12	1	3	13	"peanuts"	0	0	1898	20
"08-11-2014"	"rule"	1	12	1	3	14	"garlic"	1	1	2273	2
"08-11-2014"	"rule"	1	12	1	3	15	"mushrooms"	1	0	989	5
"08-11-2014"	"rule"	1	12	1	3	16	"banana"	1	1	965	13
"08-11-2014"	"rule"	1	12	1	3	17	"olive oil and coffee"	1	1	1027	12
"08-11-2014"	"rule"	1	12	1	3	18	"olive oil"	0	0	1352	10
"08-11-2014"	"rule"	1	12	1	3	19	"seafood and red meat"	0	0	1111	9
"08-11-2014"	"rule"	1	12	1	3	20	"mushrooms"	1	0	1740	5
"08-11-2014"	"rule"	1	12	1	3	21	"red meat"	1	1	1814	8
"08-11-2014"	"rule"	1	12	1	3	22	"orange squash and bread"	0	0	1610	18
"08-11-2014"	"rule"	1	12	1	3	23	"coffee"	0	0	1296	11
"08-11-2014"	"rule"	1	12	1	3	24	"avocado"	0	0	1454	19
"08-11-2014"	"rule"	1	12	1	3	25	"milk and mushrooms"	0	1	2166	6
"08-11-2014"	"rule"	1	12	1	3	26	"pasta and chocolate"	0	1	825	24
"08-11-2014"	"rule"	1	12	1	3	27	"cheese"	0	1	2408	1
"08-11-2014"	"rule"	1	12	1	3	28	"garlic"	0	1	1550	2
"08-11-2014"	"rule"	1	12	1	3	29	"milk"	1	0	714	4
"08-11-2014"	"rule"	1	12	1	3	30	"avocado"	0	0	764	19
"08-11-2014"	"rule"	1	12	1	3	31	"olive oil"	1	0	1542	10
"08-11-2014"	"rule"	1	12	1	3	32	"olive oil and coffee"	1	1	2094	12
"08-11-2014"	"rule"	1	12	1	3	33	"orange squash and bread"	0	0	868	18
"08-11-2014"	"rule"	1	12	1	3	34	"pasta and chocolate"	1	1	2128	24
"08-11-2014"	"rule"	1	12	1	3	35	"banana"	1	1	1203	13
"08-11-2014"	"rule"	1	12	1	3	36	"seafood"	1	1	1720	7
"08-11-2014"	"rule"	1	12	1	4	1	"eggs"	1	1	1452	14
"08-11-2014"	"rule"	1	12	1	4	2	"avocado"	0	0	1937	19
"08-11-2014"	"rule"	1	12	1	4	3	"avocado"	0	0	1685	19
"08-11-2014"	"rule"	1	12	1	4	4	"olive oil and coffee"	1	1	1806	12
"08-11-2014"	"rule"	1	12	1	4	5	"olive oil and coffee"	1	1	936	12
"08-11-2014"	"rule"	1	12	1	4	6	"cheese and garlic"	0	0	1757	3
"08-11-2014"	"rule"	1	12	1	4	7	"milk and mushrooms"	1	1	1807	6
"08-11-2014"	"rule"	1	12	1	4	8	"seafood"	0	1	1594	7
"08-11-2014"	"rule"	1	12	1	4	9	"pasta and chocolate"	0	1	2053	24
"08-11-2014"	"rule"	1	12	1	4	10	"banana"	1	1	1349	13
"08-11-2014"	"rule"	1	12	1	4	11	"orange squash and bread"	0	0	1589	18
"08-11-2014"	"rule"	1	12	1	4	12	"seafood and red meat"	1	0	2100	9
"08-11-2014"	"rule"	1	12	1	4	13	"coffee"	1	0	1086	11
"08-11-2014"	"rule"	1	12	1	4	14	"garlic"	1	1	2766	2
"08-11-2014"	"rule"	1	12	1	4	15	"olive oil"	1	0	1481	10
"08-11-2014"	"rule"	1	12	1	4	16	"pasta and chocolate"	0	1	1793	24
"08-11-2014"	"rule"	1	12	1	4	17	"orange squash and bread"	0	0	910	18
"08-11-2014"	"rule"	1	12	1	4	18	"garlic"	0	1	2339	2
"08-11-2014"	"rule"	1	12	1	4	19	"cheese and garlic"	0	0	5	3
"08-11-2014"	"rule"	1	12	1	4	20	"eggs"	1	1	915	14
"08-11-2014"	"rule"	1	12	1	4	21	"cheese"	1	1	917	1
"08-11-2014"	"rule"	1	12	1	4	22	"banana"	1	1	908	13
"08-11-2014"	"rule"	1	12	1	4	23	"red meat"	0	1	2184	8
"08-11-2014"	"rule"	1	12	1	4	24	"seafood"	1	1	929	7
"08-11-2014"	"rule"	1	12	1	4	25	"milk"	1	0	933	4
"08-11-2014"	"rule"	1	12	1	4	26	"seafood and red meat"	1	0	1630	9
"08-11-2014"	"rule"	1	12	1	4	27	"milk and mushrooms"	1	1	1403	6
"08-11-2014"	"rule"	1	12	1	4	28	"mushrooms"	1	0	1164	5
"08-11-2014"	"rule"	1	12	1	4	29	"cheese"	1	1	754	1
"08-11-2014"	"rule"	1	12	1	4	30	"red meat"	1	1	2554	8
"08-11-2014"	"rule"	1	12	1	4	31	"peanuts"	1	0	1010	20
"08-11-2014"	"rule"	1	12	1	4	32	"milk"	1	0	858	4
"08-11-2014"	"rule"	1	12	1	4	33	"coffee"	1	0	746	11
"08-11-2014"	"rule"	1	12	1	4	34	"peanuts"	1	0	797	20
"08-11-2014"	"rule"	1	12	1	4	35	"mushrooms"	1	0	1605	5
"08-11-2014"	"rule"	1	12	1	4	36	"olive oil"	1	0	777	10
"08-11-2014"	"rule"	1	12	1	5	1	"milk and mushrooms"	0	1	90	6
"08-11-2014"	"rule"	1	12	1	5	2	"mushrooms"	1	0	1287	5
"08-11-2014"	"rule"	1	12	1	5	3	"cheese"	1	1	812	1
"08-11-2014"	"rule"	1	12	1	5	4	"olive oil"	1	0	872	10
"08-11-2014"	"rule"	1	12	1	5	5	"orange squash and bread"	0	0	852	18
"08-11-2014"	"rule"	1	12	1	5	6	"avocado"	0	0	837	19
"08-11-2014"	"rule"	1	12	1	5	7	"seafood"	1	1	2084	7
"08-11-2014"	"rule"	1	12	1	5	8	"pasta and chocolate"	0	1	1499	24
"08-11-2014"	"rule"	1	12	1	5	9	"avocado"	0	0	728	19
"08-11-2014"	"rule"	1	12	1	5	10	"seafood and red meat"	0	0	2246	9
"08-11-2014"	"rule"	1	12	1	5	11	"milk and mushrooms"	1	1	1785	6
"08-11-2014"	"rule"	1	12	1	5	12	"olive oil and coffee"	0	1	1657	12
"08-11-2014"	"rule"	1	12	1	5	13	"milk"	1	0	870	4
"08-11-2014"	"rule"	1	12	1	5	14	"red meat"	0	1	1952	8
"08-11-2014"	"rule"	1	12	1	5	15	"banana"	1	1	800	13
"08-11-2014"	"rule"	1	12	1	5	16	"olive oil and coffee"	1	1	1808	12
"08-11-2014"	"rule"	1	12	1	5	17	"olive oil"	0	0	1063	10
"08-11-2014"	"rule"	1	12	1	5	18	"garlic"	0	1	189	2
"08-11-2014"	"rule"	1	12	1	5	19	"red meat"	1	1	1666	8
"08-11-2014"	"rule"	1	12	1	5	20	"cheese and garlic"	0	0	1783	3
"08-11-2014"	"rule"	1	12	1	5	21	"orange squash and bread"	0	0	1538	18
"08-11-2014"	"rule"	1	12	1	5	22	"banana"	0	1	1773	13
"08-11-2014"	"rule"	1	12	1	5	23	"coffee"	1	0	1176	11
"08-11-2014"	"rule"	1	12	1	5	24	"peanuts"	1	0	1400	20
"08-11-2014"	"rule"	1	12	1	5	25	"pasta and chocolate"	0	1	772	24
"08-11-2014"	"rule"	1	12	1	5	26	"cheese"	1	1	2099	1
"08-11-2014"	"rule"	1	12	1	5	27	"seafood"	0	1	1435	7
"08-11-2014"	"rule"	1	12	1	5	28	"coffee"	1	0	1109	11
"08-11-2014"	"rule"	1	12	1	5	29	"seafood and red meat"	0	0	1397	9
"08-11-2014"	"rule"	1	12	1	5	30	"garlic"	1	1	954	2
"08-11-2014"	"rule"	1	12	1	5	31	"cheese and garlic"	0	0	1653	3
"08-11-2014"	"rule"	1	12	1	5	32	"eggs"	1	1	2434	14
"08-11-2014"	"rule"	1	12	1	5	33	"eggs"	1	1	935	14
"08-11-2014"	"rule"	1	12	1	5	34	"milk"	1	0	782	4
"08-11-2014"	"rule"	1	12	1	5	35	"peanuts"	1	0	1159	20
"08-11-2014"	"rule"	1	12	1	5	36	"mushrooms"	1	0	853	5
"08-11-2014"	"rule"	1	12	1	6	1	"garlic"	0	1	2325	2
"08-11-2014"	"rule"	1	12	1	6	2	"orange squash and bread"	0	0	800	18
"08-11-2014"	"rule"	1	12	1	6	3	"peanuts"	1	0	1533	20
"08-11-2014"	"rule"	1	12	1	6	4	"seafood"	0	1	1462	7
"08-11-2014"	"rule"	1	12	1	6	5	"peanuts"	0	0	1999	20
"08-11-2014"	"rule"	1	12	1	6	6	"olive oil"	1	0	1167	10
"08-11-2014"	"rule"	1	12	1	6	7	"mushrooms"	1	0	769	5
"08-11-2014"	"rule"	1	12	1	6	8	"milk"	1	0	672	4
"08-11-2014"	"rule"	1	12	1	6	9	"avocado"	0	0	896	19
"08-11-2014"	"rule"	1	12	1	6	10	"banana"	1	1	2077	13
"08-11-2014"	"rule"	1	12	1	6	11	"seafood and red meat"	0	0	1555	9
"08-11-2014"	"rule"	1	12	1	6	12	"banana"	-1	1	0	13
"08-11-2014"	"rule"	1	12	1	6	13	"eggs"	1	1	815	14
"08-11-2014"	"rule"	1	12	1	6	14	"red meat"	1	1	2067	8
"08-11-2014"	"rule"	1	12	1	6	15	"avocado"	0	0	732	19
"08-11-2014"	"rule"	1	12	1	6	16	"mushrooms"	1	0	1777	5
"08-11-2014"	"rule"	1	12	1	6	17	"pasta and chocolate"	1	1	1327	24
"08-11-2014"	"rule"	1	12	1	6	18	"pasta and chocolate"	1	1	720	24
"08-11-2014"	"rule"	1	12	1	6	19	"milk and mushrooms"	1	1	1266	6
"08-11-2014"	"rule"	1	12	1	6	20	"seafood"	0	1	2274	7
"08-11-2014"	"rule"	1	12	1	6	21	"cheese and garlic"	1	0	1015	3
"08-11-2014"	"rule"	1	12	1	6	22	"eggs"	1	1	666	14
"08-11-2014"	"rule"	1	12	1	6	23	"orange squash and bread"	0	0	1056	18
"08-11-2014"	"rule"	1	12	1	6	24	"cheese"	1	1	1179	1
"08-11-2014"	"rule"	1	12	1	6	25	"milk and mushrooms"	1	1	1251	6
"08-11-2014"	"rule"	1	12	1	6	26	"olive oil"	1	0	1019	10
"08-11-2014"	"rule"	1	12	1	6	27	"cheese"	1	1	1094	1
"08-11-2014"	"rule"	1	12	1	6	28	"coffee"	1	0	1155	11
"08-11-2014"	"rule"	1	12	1	6	29	"seafood and red meat"	0	0	1589	9
"08-11-2014"	"rule"	1	12	1	6	30	"garlic"	0	1	1365	2
"08-11-2014"	"rule"	1	12	1	6	31	"milk"	0	0	1038	4
"08-11-2014"	"rule"	1	12	1	6	32	"red meat"	1	1	1547	8
"08-11-2014"	"rule"	1	12	1	6	33	"olive oil and coffee"	1	1	1373	12
"08-11-2014"	"rule"	1	12	1	6	34	"olive oil and coffee"	1	1	766	12
"08-11-2014"	"rule"	1	12	1	6	35	"coffee"	1	0	1584	11
"08-11-2014"	"rule"	1	12	1	6	36	"cheese and garlic"	1	0	1599	3
"08-11-2014"	"rule"	1	12	2	7	1	"olive oil"	1	0	1671	10
"08-11-2014"	"rule"	1	12	2	7	2	"banana and eggs"	1	0	1328	15
"08-11-2014"	"rule"	1	12	2	7	3	"peanuts"	1	0	2359	20
"08-11-2014"	"rule"	1	12	2	7	4	"bread"	1	1	1272	17
"08-11-2014"	"rule"	1	12	2	7	5	"milk and mushrooms"	1	1	2019	6
"08-11-2014"	"rule"	1	12	2	7	6	"cheese and garlic"	1	0	1625	3
"08-11-2014"	"rule"	1	12	2	7	7	"avocado and peanuts"	1	1	1495	21
"08-11-2014"	"rule"	1	12	2	7	8	"avocado and peanuts"	1	1	1052	21
"08-11-2014"	"rule"	1	12	2	7	9	"garlic"	1	1	1247	2
"08-11-2014"	"rule"	1	12	2	7	10	"orange squash"	0	1	1013	16
"08-11-2014"	"rule"	1	12	2	7	11	"chocolate"	0	0	1504	23
"08-11-2014"	"rule"	1	12	2	7	12	"seafood"	1	1	1653	7
"08-11-2014"	"rule"	1	12	2	7	13	"milk"	1	0	823	4
"08-11-2014"	"rule"	1	12	2	7	14	"bread"	1	1	1016	17
"08-11-2014"	"rule"	1	12	2	7	15	"orange squash and bread"	0	0	792	18
"08-11-2014"	"rule"	1	12	2	7	16	"pasta"	1	0	1265	22
"08-11-2014"	"rule"	1	12	2	7	17	"orange squash"	0	1	994	16
"08-11-2014"	"rule"	1	12	2	7	18	"banana"	0	1	2363	13
"08-11-2014"	"rule"	1	12	2	7	19	"olive oil and coffee"	1	1	1572	12
"08-11-2014"	"rule"	1	12	2	7	20	"cheese"	1	1	1331	1
"08-11-2014"	"rule"	1	12	2	7	21	"pasta"	0	0	1986	22
"08-11-2014"	"rule"	1	12	2	7	22	"red meat"	1	1	2032	8
"08-11-2014"	"rule"	1	12	2	7	23	"banana and eggs"	1	0	1681	15
"08-11-2014"	"rule"	1	12	2	7	24	"seafood and red meat"	1	0	2585	9
"08-11-2014"	"rule"	1	12	2	7	25	"pasta and chocolate"	1	1	1533	24
"08-11-2014"	"rule"	1	12	2	7	26	"avocado"	0	0	1181	19
"08-11-2014"	"rule"	1	12	2	7	27	"coffee"	1	0	1376	11
"08-11-2014"	"rule"	1	12	2	7	28	"chocolate"	0	0	2244	23
"08-11-2014"	"rule"	1	12	2	7	29	"eggs"	1	1	1499	14
"08-11-2014"	"rule"	1	12	2	7	30	"mushrooms"	1	0	2393	5
"08-11-2014"	"rule"	1	12	2	8	1	"avocado and peanuts"	0	1	2604	21
"08-11-2014"	"rule"	1	12	2	8	2	"mushrooms"	1	0	1190	5
"08-11-2014"	"rule"	1	12	2	8	3	"pasta and chocolate"	1	1	1567	24
"08-11-2014"	"rule"	1	12	2	8	4	"seafood"	1	1	848	7
"08-11-2014"	"rule"	1	12	2	8	5	"banana"	1	1	763	13
"08-11-2014"	"rule"	1	12	2	8	6	"cheese"	1	1	1025	1
"08-11-2014"	"rule"	1	12	2	8	7	"banana and eggs"	1	0	1129	15
"08-11-2014"	"rule"	1	12	2	8	8	"eggs"	1	1	1034	14
"08-11-2014"	"rule"	1	12	2	8	9	"chocolate"	0	0	1642	23
"08-11-2014"	"rule"	1	12	2	8	10	"orange squash and bread"	0	0	1151	18
"08-11-2014"	"rule"	1	12	2	8	11	"orange squash"	0	1	1046	16
"08-11-2014"	"rule"	1	12	2	8	12	"pasta"	0	0	927	22
"08-11-2014"	"rule"	1	12	2	8	13	"milk and mushrooms"	1	1	1111	6
"08-11-2014"	"rule"	1	12	2	8	14	"olive oil and coffee"	1	1	1381	12
"08-11-2014"	"rule"	1	12	2	8	15	"bread"	0	1	1215	17
"08-11-2014"	"rule"	1	12	2	8	16	"chocolate"	0	0	1037	23
"08-11-2014"	"rule"	1	12	2	8	17	"banana and eggs"	1	0	1299	15
"08-11-2014"	"rule"	1	12	2	8	18	"garlic"	1	1	918	2
"08-11-2014"	"rule"	1	12	2	8	19	"pasta"	0	0	688	22
"08-11-2014"	"rule"	1	12	2	8	20	"coffee"	1	0	1236	11
"08-11-2014"	"rule"	1	12	2	8	21	"olive oil"	1	0	1722	10
"08-11-2014"	"rule"	1	12	2	8	22	"cheese and garlic"	1	0	1242	3
"08-11-2014"	"rule"	1	12	2	8	23	"bread"	0	1	937	17
"08-11-2014"	"rule"	1	12	2	8	24	"milk"	0	0	1124	4
"08-11-2014"	"rule"	1	12	2	8	25	"avocado"	0	0	705	19
"08-11-2014"	"rule"	1	12	2	8	26	"red meat"	1	1	1712	8
"08-11-2014"	"rule"	1	12	2	8	27	"peanuts"	0	0	2113	20
"08-11-2014"	"rule"	1	12	2	8	28	"seafood and red meat"	0	0	2207	9
"08-11-2014"	"rule"	1	12	2	8	29	"orange squash"	0	1	953	16
"08-11-2014"	"rule"	1	12	2	8	30	"avocado and peanuts"	1	1	2100	21
"08-11-2014"	"rule"	1	12	2	9	1	"coffee"	0	0	1845	11
"08-11-2014"	"rule"	1	12	2	9	2	"milk and mushrooms"	1	1	1309	6
"08-11-2014"	"rule"	1	12	2	9	3	"bread"	0	1	1616	17
"08-11-2014"	"rule"	1	12	2	9	4	"banana"	0	1	1367	13
"08-11-2014"	"rule"	1	12	2	9	5	"bread"	0	1	1201	17
"08-11-2014"	"rule"	1	12	2	9	6	"avocado"	0	0	822	19
"08-11-2014"	"rule"	1	12	2	9	7	"seafood"	1	1	1782	7
"08-11-2014"	"rule"	1	12	2	9	8	"orange squash and bread"	0	0	919	18
"08-11-2014"	"rule"	1	12	2	9	9	"avocado and peanuts"	1	1	2568	21
"08-11-2014"	"rule"	1	12	2	9	10	"garlic"	0	1	2156	2
"08-11-2014"	"rule"	1	12	2	9	11	"cheese and garlic"	1	0	1530	3
"08-11-2014"	"rule"	1	12	2	9	12	"olive oil and coffee"	1	1	1433	12
"08-11-2014"	"rule"	1	12	2	9	13	"peanuts"	0	0	1208	20
"08-11-2014"	"rule"	1	12	2	9	14	"orange squash"	0	1	1001	16
"08-11-2014"	"rule"	1	12	2	9	15	"pasta"	0	0	1220	22
"08-11-2014"	"rule"	1	12	2	9	16	"chocolate"	0	0	1278	23
"08-11-2014"	"rule"	1	12	2	9	17	"pasta"	0	0	840	22
"08-11-2014"	"rule"	1	12	2	9	18	"milk"	0	0	1724	4
"08-11-2014"	"rule"	1	12	2	9	19	"seafood and red meat"	1	0	1580	9
"08-11-2014"	"rule"	1	12	2	9	20	"mushrooms"	1	0	2020	5
"08-11-2014"	"rule"	1	12	2	9	21	"avocado and peanuts"	1	1	1610	21
"08-11-2014"	"rule"	1	12	2	9	22	"cheese"	1	1	1290	1
"08-11-2014"	"rule"	1	12	2	9	23	"red meat"	1	1	2468	8
"08-11-2014"	"rule"	1	12	2	9	24	"eggs"	1	1	1160	14
"08-11-2014"	"rule"	1	12	2	9	25	"banana and eggs"	1	0	1854	15
"08-11-2014"	"rule"	1	12	2	9	26	"chocolate"	0	0	1072	23
"08-11-2014"	"rule"	1	12	2	9	27	"pasta and chocolate"	1	1	2792	24
"08-11-2014"	"rule"	1	12	2	9	28	"olive oil"	1	0	922	10
"08-11-2014"	"rule"	1	12	2	9	29	"orange squash"	0	1	824	16
"08-11-2014"	"rule"	1	12	2	9	30	"banana and eggs"	1	0	2276	15
"08-11-2014"	"rule"	1	12	2	10	1	"orange squash"	0	1	775	16
"08-11-2014"	"rule"	1	12	2	10	2	"chocolate"	0	0	947	23
"08-11-2014"	"rule"	1	12	2	10	3	"banana and eggs"	1	0	1267	15
"08-11-2014"	"rule"	1	12	2	10	4	"cheese and garlic"	1	0	1009	3
"08-11-2014"	"rule"	1	12	2	10	5	"avocado and peanuts"	1	1	2017	21
"08-11-2014"	"rule"	1	12	2	10	6	"eggs"	1	1	1127	14
"08-11-2014"	"rule"	1	12	2	10	7	"cheese"	1	1	665	1
"08-11-2014"	"rule"	1	12	2	10	8	"garlic"	1	1	1310	2
"08-11-2014"	"rule"	1	12	2	10	9	"pasta"	0	0	1163	22
"08-11-2014"	"rule"	1	12	2	10	10	"seafood and red meat"	1	0	923	9
"08-11-2014"	"rule"	1	12	2	10	11	"pasta and chocolate"	1	1	1349	24
"08-11-2014"	"rule"	1	12	2	10	12	"chocolate"	0	0	1113	23
"08-11-2014"	"rule"	1	12	2	10	13	"banana"	0	1	1668	13
"08-11-2014"	"rule"	1	12	2	10	14	"avocado and peanuts"	1	1	1311	21
"08-11-2014"	"rule"	1	12	2	10	15	"mushrooms"	1	0	2385	5
"08-11-2014"	"rule"	1	12	2	10	16	"olive oil"	1	0	1232	10
"08-11-2014"	"rule"	1	12	2	10	17	"orange squash and bread"	0	0	789	18
"08-11-2014"	"rule"	1	12	2	10	18	"seafood"	1	1	815	7
"08-11-2014"	"rule"	1	12	2	10	19	"olive oil and coffee"	1	1	1424	12
"08-11-2014"	"rule"	1	12	2	10	20	"pasta"	0	0	696	22
"08-11-2014"	"rule"	1	12	2	10	21	"red meat"	1	1	900	8
"08-11-2014"	"rule"	1	12	2	10	22	"orange squash"	0	1	1459	16
"08-11-2014"	"rule"	1	12	2	10	23	"bread"	0	1	1564	17
"08-11-2014"	"rule"	1	12	2	10	24	"bread"	0	1	1119	17
"08-11-2014"	"rule"	1	12	2	10	25	"milk"	0	0	1065	4
"08-11-2014"	"rule"	1	12	2	10	26	"coffee"	1	0	1532	11
"08-11-2014"	"rule"	1	12	2	10	27	"banana and eggs"	1	0	1114	15
"08-11-2014"	"rule"	1	12	2	10	28	"avocado"	1	0	1583	19
"08-11-2014"	"rule"	1	12	2	10	29	"peanuts"	0	0	2184	20
"08-11-2014"	"rule"	1	12	2	10	30	"milk and mushrooms"	1	1	908	6
"08-12-2014"	"rule"	1	16	1	1	1	"milk"	-1	0	0	4
"08-12-2014"	"rule"	1	16	1	1	2	"seafood and red meat"	1	0	1931	9
"08-12-2014"	"rule"	1	16	1	1	3	"banana"	1	1	1975	13
"08-12-2014"	"rule"	1	16	1	1	4	"orange squash and bread"	1	0	1585	18
"08-12-2014"	"rule"	1	16	1	1	5	"orange squash and bread"	1	0	1807	18
"08-12-2014"	"rule"	1	16	1	1	6	"olive oil and coffee"	1	1	1547	12
"08-12-2014"	"rule"	1	16	1	1	7	"cheese and garlic"	1	0	1298	3
"08-12-2014"	"rule"	1	16	1	1	8	"seafood and red meat"	0	0	1547	9
"08-12-2014"	"rule"	1	16	1	1	9	"eggs"	1	1	1317	14
"08-12-2014"	"rule"	1	16	1	1	10	"seafood"	1	1	1796	7
"08-12-2014"	"rule"	1	16	1	1	11	"garlic"	1	1	1803	2
"08-12-2014"	"rule"	1	16	1	1	12	"pasta and chocolate"	1	1	1134	24
"08-12-2014"	"rule"	1	16	1	1	13	"pasta and chocolate"	1	1	1786	24
"08-12-2014"	"rule"	1	16	1	1	14	"milk"	0	0	2299	4
"08-12-2014"	"rule"	1	16	1	1	15	"red meat"	0	1	2393	8
"08-12-2014"	"rule"	1	16	1	1	16	"olive oil"	1	0	1810	10
"08-12-2014"	"rule"	1	16	1	1	17	"cheese"	1	1	1131	1
"08-12-2014"	"rule"	1	16	1	1	18	"avocado"	0	0	1448	19
"08-12-2014"	"rule"	1	16	1	1	19	"olive oil and coffee"	1	1	2311	12
"08-12-2014"	"rule"	1	16	1	1	20	"olive oil"	0	0	786	10
"08-12-2014"	"rule"	1	16	1	1	21	"avocado"	0	0	708	19
"08-12-2014"	"rule"	1	16	1	1	22	"peanuts"	1	0	1320	20
"08-12-2014"	"rule"	1	16	1	1	23	"milk and mushrooms"	1	1	1588	6
"08-12-2014"	"rule"	1	16	1	1	24	"peanuts"	0	0	2418	20
"08-12-2014"	"rule"	1	16	1	1	25	"red meat"	1	1	2070	8
"08-12-2014"	"rule"	1	16	1	1	26	"garlic"	1	1	1620	2
"08-12-2014"	"rule"	1	16	1	1	27	"mushrooms"	1	0	1375	5
"08-12-2014"	"rule"	1	16	1	1	28	"eggs"	1	1	1316	14
"08-12-2014"	"rule"	1	16	1	1	29	"mushrooms"	0	0	811	5
"08-12-2014"	"rule"	1	16	1	1	30	"cheese"	1	1	893	1
"08-12-2014"	"rule"	1	16	1	1	31	"banana"	1	1	1370	13
"08-12-2014"	"rule"	1	16	1	1	32	"coffee"	1	0	1917	11
"08-12-2014"	"rule"	1	16	1	1	33	"milk and mushrooms"	1	1	1277	6
"08-12-2014"	"rule"	1	16	1	1	34	"seafood"	1	1	824	7
"08-12-2014"	"rule"	1	16	1	1	35	"cheese and garlic"	1	0	2546	3
"08-12-2014"	"rule"	1	16	1	1	36	"coffee"	0	0	2496	11
"08-12-2014"	"rule"	1	16	1	2	1	"coffee"	0	0	1842	11
"08-12-2014"	"rule"	1	16	1	2	2	"orange squash and bread"	1	0	2006	18
"08-12-2014"	"rule"	1	16	1	2	3	"avocado"	0	0	731	19
"08-12-2014"	"rule"	1	16	1	2	4	"seafood and red meat"	1	0	964	9
"08-12-2014"	"rule"	1	16	1	2	5	"seafood and red meat"	0	0	1396	9
"08-12-2014"	"rule"	1	16	1	2	6	"seafood"	1	1	943	7
"08-12-2014"	"rule"	1	16	1	2	7	"cheese and garlic"	0	0	2552	3
"08-12-2014"	"rule"	1	16	1	2	8	"garlic"	1	1	1086	2
"08-12-2014"	"rule"	1	16	1	2	9	"cheese"	0	1	927	1
"08-12-2014"	"rule"	1	16	1	2	10	"red meat"	1	1	1436	8
"08-12-2014"	"rule"	1	16	1	2	11	"peanuts"	0	0	2135	20
"08-12-2014"	"rule"	1	16	1	2	12	"pasta and chocolate"	1	1	1106	24
"08-12-2014"	"rule"	1	16	1	2	13	"cheese"	-1	1	0	1
"08-12-2014"	"rule"	1	16	1	2	14	"milk and mushrooms"	0	1	1272	6
"08-12-2014"	"rule"	1	16	1	2	15	"banana"	1	1	1001	13
"08-12-2014"	"rule"	1	16	1	2	16	"olive oil and coffee"	1	1	1487	12
"08-12-2014"	"rule"	1	16	1	2	17	"eggs"	1	1	1055	14
"08-12-2014"	"rule"	1	16	1	2	18	"eggs"	1	1	543	14
"08-12-2014"	"rule"	1	16	1	2	19	"milk"	0	0	1541	4
"08-12-2014"	"rule"	1	16	1	2	20	"mushrooms"	0	0	1300	5
"08-12-2014"	"rule"	1	16	1	2	21	"red meat"	1	1	1528	8
"08-12-2014"	"rule"	1	16	1	2	22	"milk and mushrooms"	0	1	1349	6
"08-12-2014"	"rule"	1	16	1	2	23	"cheese and garlic"	0	0	1649	3
"08-12-2014"	"rule"	1	16	1	2	24	"garlic"	1	1	694	2
"08-12-2014"	"rule"	1	16	1	2	25	"peanuts"	1	0	1189	20
"08-12-2014"	"rule"	1	16	1	2	26	"coffee"	1	0	1881	11
"08-12-2014"	"rule"	1	16	1	2	27	"pasta and chocolate"	1	1	1064	24
"08-12-2014"	"rule"	1	16	1	2	28	"milk"	1	0	1243	4
"08-12-2014"	"rule"	1	16	1	2	29	"orange squash and bread"	0	0	1432	18
"08-12-2014"	"rule"	1	16	1	2	30	"seafood"	1	1	960	7
"08-12-2014"	"rule"	1	16	1	2	31	"olive oil"	0	0	1180	10
"08-12-2014"	"rule"	1	16	1	2	32	"olive oil"	0	0	741	10
"08-12-2014"	"rule"	1	16	1	2	33	"avocado"	0	0	910	19
"08-12-2014"	"rule"	1	16	1	2	34	"mushrooms"	0	0	1105	5
"08-12-2014"	"rule"	1	16	1	2	35	"olive oil and coffee"	1	1	1588	12
"08-12-2014"	"rule"	1	16	1	2	36	"banana"	1	1	872	13
"08-12-2014"	"rule"	1	16	1	3	1	"pasta and chocolate"	1	1	1284	24
"08-12-2014"	"rule"	1	16	1	3	2	"banana"	1	1	730	13
"08-12-2014"	"rule"	1	16	1	3	3	"olive oil"	0	0	850	10
"08-12-2014"	"rule"	1	16	1	3	4	"seafood"	1	1	918	7
"08-12-2014"	"rule"	1	16	1	3	5	"coffee"	0	0	1673	11
"08-12-2014"	"rule"	1	16	1	3	6	"mushrooms"	0	0	1672	5
"08-12-2014"	"rule"	1	16	1	3	7	"cheese"	1	1	715	1
"08-12-2014"	"rule"	1	16	1	3	8	"milk and mushrooms"	1	1	1883	6
"08-12-2014"	"rule"	1	16	1	3	9	"cheese and garlic"	0	0	1950	3
"08-12-2014"	"rule"	1	16	1	3	10	"milk and mushrooms"	1	1	1708	6
"08-12-2014"	"rule"	1	16	1	3	11	"coffee"	0	0	1242	11
"08-12-2014"	"rule"	1	16	1	3	12	"olive oil and coffee"	0	1	1059	12
"08-12-2014"	"rule"	1	16	1	3	13	"seafood and red meat"	0	0	1422	9
"08-12-2014"	"rule"	1	16	1	3	14	"eggs"	1	1	2162	14
"08-12-2014"	"rule"	1	16	1	3	15	"peanuts"	0	0	1190	20
"08-12-2014"	"rule"	1	16	1	3	16	"cheese and garlic"	0	0	1546	3
"08-12-2014"	"rule"	1	16	1	3	17	"garlic"	1	1	646	2
"08-12-2014"	"rule"	1	16	1	3	18	"olive oil"	0	0	773	10
"08-12-2014"	"rule"	1	16	1	3	19	"avocado"	0	0	700	19
"08-12-2014"	"rule"	1	16	1	3	20	"peanuts"	0	0	1171	20
"08-12-2014"	"rule"	1	16	1	3	21	"orange squash and bread"	0	0	1226	18
"08-12-2014"	"rule"	1	16	1	3	22	"garlic"	1	1	1132	2
"08-12-2014"	"rule"	1	16	1	3	23	"milk"	0	0	1180	4
"08-12-2014"	"rule"	1	16	1	3	24	"eggs"	1	1	1029	14
"08-12-2014"	"rule"	1	16	1	3	25	"cheese"	1	1	852	1
"08-12-2014"	"rule"	1	16	1	3	26	"olive oil and coffee"	1	1	1160	12
"08-12-2014"	"rule"	1	16	1	3	27	"mushrooms"	0	0	1563	5
"08-12-2014"	"rule"	1	16	1	3	28	"pasta and chocolate"	1	1	1318	24
"08-12-2014"	"rule"	1	16	1	3	29	"avocado"	0	0	888	19
"08-12-2014"	"rule"	1	16	1	3	30	"milk"	1	0	1593	4
"08-12-2014"	"rule"	1	16	1	3	31	"red meat"	1	1	737	8
"08-12-2014"	"rule"	1	16	1	3	32	"orange squash and bread"	0	0	706	18
"08-12-2014"	"rule"	1	16	1	3	33	"seafood"	1	1	757	7
"08-12-2014"	"rule"	1	16	1	3	34	"seafood and red meat"	0	0	1783	9
"08-12-2014"	"rule"	1	16	1	3	35	"red meat"	1	1	747	8
"08-12-2014"	"rule"	1	16	1	3	36	"banana"	1	1	1403	13
"08-12-2014"	"rule"	1	16	1	4	1	"milk and mushrooms"	0	1	2765	6
"08-12-2014"	"rule"	1	16	1	4	2	"garlic"	1	1	1807	2
"08-12-2014"	"rule"	1	16	1	4	3	"seafood and red meat"	0	0	983	9
"08-12-2014"	"rule"	1	16	1	4	4	"milk"	0	0	1545	4
"08-12-2014"	"rule"	1	16	1	4	5	"mushrooms"	0	0	1175	5
"08-12-2014"	"rule"	1	16	1	4	6	"seafood"	1	1	1201	7
"08-12-2014"	"rule"	1	16	1	4	7	"olive oil and coffee"	0	1	906	12
"08-12-2014"	"rule"	1	16	1	4	8	"red meat"	1	1	756	8
"08-12-2014"	"rule"	1	16	1	4	9	"seafood"	1	1	812	7
"08-12-2014"	"rule"	1	16	1	4	10	"olive oil"	0	0	1080	10
"08-12-2014"	"rule"	1	16	1	4	11	"orange squash and bread"	0	0	1178	18
"08-12-2014"	"rule"	1	16	1	4	12	"avocado"	0	0	758	19
"08-12-2014"	"rule"	1	16	1	4	13	"milk"	1	0	951	4
"08-12-2014"	"rule"	1	16	1	4	14	"pasta and chocolate"	0	1	980	24
"08-12-2014"	"rule"	1	16	1	4	15	"cheese and garlic"	1	0	2070	3
"08-12-2014"	"rule"	1	16	1	4	16	"banana"	1	1	673	13
"08-12-2014"	"rule"	1	16	1	4	17	"cheese"	1	1	965	1
"08-12-2014"	"rule"	1	16	1	4	18	"banana"	1	1	1052	13
"08-12-2014"	"rule"	1	16	1	4	19	"avocado"	0	0	629	19
"08-12-2014"	"rule"	1	16	1	4	20	"orange squash and bread"	0	0	951	18
"08-12-2014"	"rule"	1	16	1	4	21	"eggs"	1	1	1422	14
"08-12-2014"	"rule"	1	16	1	4	22	"coffee"	0	0	730	11
"08-12-2014"	"rule"	1	16	1	4	23	"cheese"	1	1	668	1
"08-12-2014"	"rule"	1	16	1	4	24	"coffee"	0	0	754	11
"08-12-2014"	"rule"	1	16	1	4	25	"peanuts"	0	0	1266	20
"08-12-2014"	"rule"	1	16	1	4	26	"olive oil and coffee"	1	1	1297	12
"08-12-2014"	"rule"	1	16	1	4	27	"seafood and red meat"	0	0	895	9
"08-12-2014"	"rule"	1	16	1	4	28	"peanuts"	0	0	767	20
"08-12-2014"	"rule"	1	16	1	4	29	"milk and mushrooms"	0	1	2038	6
"08-12-2014"	"rule"	1	16	1	4	30	"mushrooms"	0	0	1486	5
"08-12-2014"	"rule"	1	16	1	4	31	"cheese and garlic"	0	0	1324	3
"08-12-2014"	"rule"	1	16	1	4	32	"garlic"	1	1	894	2
"08-12-2014"	"rule"	1	16	1	4	33	"olive oil"	0	0	904	10
"08-12-2014"	"rule"	1	16	1	4	34	"eggs"	1	1	797	14
"08-12-2014"	"rule"	1	16	1	4	35	"pasta and chocolate"	1	1	1159	24
"08-12-2014"	"rule"	1	16	1	4	36	"red meat"	1	1	971	8
"08-12-2014"	"rule"	1	16	1	5	1	"red meat"	1	1	1034	8
"08-12-2014"	"rule"	1	16	1	5	2	"red meat"	1	1	564	8
"08-12-2014"	"rule"	1	16	1	5	3	"eggs"	1	1	1102	14
"08-12-2014"	"rule"	1	16	1	5	4	"eggs"	1	1	511	14
"08-12-2014"	"rule"	1	16	1	5	5	"banana"	1	1	550	13
"08-12-2014"	"rule"	1	16	1	5	6	"peanuts"	0	0	1045	20
"08-12-2014"	"rule"	1	16	1	5	7	"olive oil and coffee"	1	1	1165	12
"08-12-2014"	"rule"	1	16	1	5	8	"milk and mushrooms"	0	1	1767	6
"08-12-2014"	"rule"	1	16	1	5	9	"olive oil"	0	0	930	10
"08-12-2014"	"rule"	1	16	1	5	10	"coffee"	0	0	958	11
"08-12-2014"	"rule"	1	16	1	5	11	"garlic"	1	1	837	2
"08-12-2014"	"rule"	1	16	1	5	12	"cheese and garlic"	0	0	988	3
"08-12-2014"	"rule"	1	16	1	5	13	"banana"	1	1	839	13
"08-12-2014"	"rule"	1	16	1	5	14	"cheese"	1	1	821	1
"08-12-2014"	"rule"	1	16	1	5	15	"seafood and red meat"	0	0	955	9
"08-12-2014"	"rule"	1	16	1	5	16	"cheese"	1	1	734	1
"08-12-2014"	"rule"	1	16	1	5	17	"olive oil"	0	0	743	10
"08-12-2014"	"rule"	1	16	1	5	18	"orange squash and bread"	0	0	943	18
"08-12-2014"	"rule"	1	16	1	5	19	"pasta and chocolate"	1	1	1376	24
"08-12-2014"	"rule"	1	16	1	5	20	"orange squash and bread"	0	0	952	18
"08-12-2014"	"rule"	1	16	1	5	21	"seafood"	1	1	882	7
"08-12-2014"	"rule"	1	16	1	5	22	"milk"	0	0	1166	4
"08-12-2014"	"rule"	1	16	1	5	23	"peanuts"	0	0	1000	20
"08-12-2014"	"rule"	1	16	1	5	24	"olive oil and coffee"	1	1	1230	12
"08-12-2014"	"rule"	1	16	1	5	25	"cheese and garlic"	0	0	1106	3
"08-12-2014"	"rule"	1	16	1	5	26	"garlic"	1	1	882	2
"08-12-2014"	"rule"	1	16	1	5	27	"coffee"	0	0	1063	11
"08-12-2014"	"rule"	1	16	1	5	28	"seafood"	1	1	888	7
"08-12-2014"	"rule"	1	16	1	5	29	"avocado"	0	0	769	19
"08-12-2014"	"rule"	1	16	1	5	30	"milk and mushrooms"	1	1	1713	6
"08-12-2014"	"rule"	1	16	1	5	31	"milk"	0	0	1192	4
"08-12-2014"	"rule"	1	16	1	5	32	"mushrooms"	0	0	1497	5
"08-12-2014"	"rule"	1	16	1	5	33	"avocado"	0	0	666	19
"08-12-2014"	"rule"	1	16	1	5	34	"pasta and chocolate"	1	1	1011	24
"08-12-2014"	"rule"	1	16	1	5	35	"mushrooms"	0	0	1249	5
"08-12-2014"	"rule"	1	16	1	5	36	"seafood and red meat"	0	0	1023	9
"08-12-2014"	"rule"	1	16	1	6	1	"red meat"	1	1	849	8
"08-12-2014"	"rule"	1	16	1	6	2	"coffee"	0	0	891	11
"08-12-2014"	"rule"	1	16	1	6	3	"seafood and red meat"	0	0	1130	9
"08-12-2014"	"rule"	1	16	1	6	4	"pasta and chocolate"	1	1	1107	24
"08-12-2014"	"rule"	1	16	1	6	5	"peanuts"	0	0	871	20
"08-12-2014"	"rule"	1	16	1	6	6	"milk"	0	0	804	4
"08-12-2014"	"rule"	1	16	1	6	7	"eggs"	1	1	1102	14
"08-12-2014"	"rule"	1	16	1	6	8	"seafood and red meat"	0	0	1025	9
"08-12-2014"	"rule"	1	16	1	6	9	"garlic"	1	1	898	2
"08-12-2014"	"rule"	1	16	1	6	10	"orange squash and bread"	0	0	1677	18
"08-12-2014"	"rule"	1	16	1	6	11	"cheese"	1	1	961	1
"08-12-2014"	"rule"	1	16	1	6	12	"banana"	1	1	744	13
"08-12-2014"	"rule"	1	16	1	6	13	"olive oil"	0	0	797	10
"08-12-2014"	"rule"	1	16	1	6	14	"milk"	0	0	1110	4
"08-12-2014"	"rule"	1	16	1	6	15	"red meat"	1	1	996	8
"08-12-2014"	"rule"	1	16	1	6	16	"mushrooms"	0	0	850	5
"08-12-2014"	"rule"	1	16	1	6	17	"coffee"	0	0	676	11
"08-12-2014"	"rule"	1	16	1	6	18	"garlic"	1	1	1228	2
"08-12-2014"	"rule"	1	16	1	6	19	"cheese"	1	1	719	1
"08-12-2014"	"rule"	1	16	1	6	20	"olive oil and coffee"	1	1	1042	12
"08-12-2014"	"rule"	1	16	1	6	21	"avocado"	0	0	833	19
"08-12-2014"	"rule"	1	16	1	6	22	"peanuts"	0	0	839	20
"08-12-2014"	"rule"	1	16	1	6	23	"seafood"	1	1	698	7
"08-12-2014"	"rule"	1	16	1	6	24	"cheese and garlic"	0	0	1321	3
"08-12-2014"	"rule"	1	16	1	6	25	"seafood"	1	1	815	7
"08-12-2014"	"rule"	1	16	1	6	26	"olive oil"	0	0	781	10
"08-12-2014"	"rule"	1	16	1	6	27	"milk and mushrooms"	1	1	1361	6
"08-12-2014"	"rule"	1	16	1	6	28	"mushrooms"	0	0	719	5
"08-12-2014"	"rule"	1	16	1	6	29	"pasta and chocolate"	1	1	1021	24
"08-12-2014"	"rule"	1	16	1	6	30	"banana"	1	1	789	13
"08-12-2014"	"rule"	1	16	1	6	31	"milk and mushrooms"	1	1	1352	6
"08-12-2014"	"rule"	1	16	1	6	32	"avocado"	0	0	1273	19
"08-12-2014"	"rule"	1	16	1	6	33	"cheese and garlic"	0	0	1165	3
"08-12-2014"	"rule"	1	16	1	6	34	"olive oil and coffee"	1	1	972	12
"08-12-2014"	"rule"	1	16	1	6	35	"eggs"	1	1	1287	14
"08-12-2014"	"rule"	1	16	1	6	36	"orange squash and bread"	0	0	1758	18
"08-12-2014"	"rule"	1	16	2	7	1	"banana"	1	1	1428	13
"08-12-2014"	"rule"	1	16	2	7	2	"bread"	1	1	2306	17
"08-12-2014"	"rule"	1	16	2	7	3	"mushrooms"	0	0	826	5
"08-12-2014"	"rule"	1	16	2	7	4	"cheese"	1	1	702	1
"08-12-2014"	"rule"	1	16	2	7	5	"banana and eggs"	0	0	1903	15
"08-12-2014"	"rule"	1	16	2	7	6	"milk and mushrooms"	0	1	836	6
"08-12-2014"	"rule"	1	16	2	7	7	"chocolate"	0	0	2163	23
"08-12-2014"	"rule"	1	16	2	7	8	"coffee"	0	0	836	11
"08-12-2014"	"rule"	1	16	2	7	9	"orange squash"	1	1	1431	16
"08-12-2014"	"rule"	1	16	2	7	10	"pasta"	0	0	1421	22
"08-12-2014"	"rule"	1	16	2	7	11	"cheese and garlic"	0	0	1157	3
"08-12-2014"	"rule"	1	16	2	7	12	"avocado and peanuts"	1	1	1621	21
"08-12-2014"	"rule"	1	16	2	7	13	"seafood"	1	1	970	7
"08-12-2014"	"rule"	1	16	2	7	14	"chocolate"	0	0	1238	23
"08-12-2014"	"rule"	1	16	2	7	15	"seafood and red meat"	0	0	1068	9
"08-12-2014"	"rule"	1	16	2	7	16	"pasta"	0	0	1240	22
"08-12-2014"	"rule"	1	16	2	7	17	"avocado and peanuts"	1	1	1415	21
"08-12-2014"	"rule"	1	16	2	7	18	"milk"	0	0	1005	4
"08-12-2014"	"rule"	1	16	2	7	19	"olive oil and coffee"	1	1	986	12
"08-12-2014"	"rule"	1	16	2	7	20	"peanuts"	0	0	737	20
"08-12-2014"	"rule"	1	16	2	7	21	"avocado"	0	0	1026	19
"08-12-2014"	"rule"	1	16	2	7	22	"bread"	1	1	1209	17
"08-12-2014"	"rule"	1	16	2	7	23	"red meat"	1	1	825	8
"08-12-2014"	"rule"	1	16	2	7	24	"olive oil"	0	0	807	10
"08-12-2014"	"rule"	1	16	2	7	25	"pasta and chocolate"	1	1	1136	24
"08-12-2014"	"rule"	1	16	2	7	26	"banana and eggs"	0	0	1595	15
"08-12-2014"	"rule"	1	16	2	7	27	"garlic"	1	1	861	2
"08-12-2014"	"rule"	1	16	2	7	28	"orange squash"	1	1	930	16
"08-12-2014"	"rule"	1	16	2	7	29	"eggs"	1	1	1192	14
"08-12-2014"	"rule"	1	16	2	7	30	"orange squash and bread"	0	0	1071	18
"08-12-2014"	"rule"	1	16	2	8	1	"pasta and chocolate"	1	1	1135	24
"08-12-2014"	"rule"	1	16	2	8	2	"orange squash and bread"	0	0	1157	18
"08-12-2014"	"rule"	1	16	2	8	3	"garlic"	1	1	649	2
"08-12-2014"	"rule"	1	16	2	8	4	"orange squash"	1	1	2201	16
"08-12-2014"	"rule"	1	16	2	8	5	"cheese"	1	1	664	1
"08-12-2014"	"rule"	1	16	2	8	6	"banana and eggs"	0	0	1385	15
"08-12-2014"	"rule"	1	16	2	8	7	"eggs"	1	1	691	14
"08-12-2014"	"rule"	1	16	2	8	8	"olive oil"	0	0	724	10
"08-12-2014"	"rule"	1	16	2	8	9	"banana and eggs"	0	0	936	15
"08-12-2014"	"rule"	1	16	2	8	10	"banana"	1	1	634	13
"08-12-2014"	"rule"	1	16	2	8	11	"avocado and peanuts"	1	1	1389	21
"08-12-2014"	"rule"	1	16	2	8	12	"olive oil and coffee"	1	1	1036	12
"08-12-2014"	"rule"	1	16	2	8	13	"cheese and garlic"	0	0	927	3
"08-12-2014"	"rule"	1	16	2	8	14	"avocado"	0	0	1078	19
"08-12-2014"	"rule"	1	16	2	8	15	"seafood and red meat"	0	0	1275	9
"08-12-2014"	"rule"	1	16	2	8	16	"coffee"	0	0	876	11
"08-12-2014"	"rule"	1	16	2	8	17	"bread"	1	1	911	17
"08-12-2014"	"rule"	1	16	2	8	18	"avocado and peanuts"	1	1	978	21
"08-12-2014"	"rule"	1	16	2	8	19	"pasta"	0	0	1274	22
"08-12-2014"	"rule"	1	16	2	8	20	"milk and mushrooms"	1	1	1796	6
"08-12-2014"	"rule"	1	16	2	8	21	"red meat"	1	1	988	8
"08-12-2014"	"rule"	1	16	2	8	22	"orange squash"	1	1	901	16
"08-12-2014"	"rule"	1	16	2	8	23	"peanuts"	0	0	959	20
"08-12-2014"	"rule"	1	16	2	8	24	"seafood"	1	1	849	7
"08-12-2014"	"rule"	1	16	2	8	25	"bread"	1	1	905	17
"08-12-2014"	"rule"	1	16	2	8	26	"mushrooms"	0	0	998	5
"08-12-2014"	"rule"	1	16	2	8	27	"milk"	0	0	754	4
"08-12-2014"	"rule"	1	16	2	8	28	"chocolate"	0	0	956	23
"08-12-2014"	"rule"	1	16	2	8	29	"chocolate"	0	0	724	23
"08-12-2014"	"rule"	1	16	2	8	30	"pasta"	0	0	965	22
"08-12-2014"	"rule"	1	16	2	9	1	"pasta"	0	0	806	22
"08-12-2014"	"rule"	1	16	2	9	2	"avocado"	0	0	716	19
"08-12-2014"	"rule"	1	16	2	9	3	"chocolate"	0	0	887	23
"08-12-2014"	"rule"	1	16	2	9	4	"seafood"	1	1	638	7
"08-12-2014"	"rule"	1	16	2	9	5	"banana and eggs"	0	0	1255	15
"08-12-2014"	"rule"	1	16	2	9	6	"olive oil and coffee"	1	1	967	12
"08-12-2014"	"rule"	1	16	2	9	7	"cheese"	1	1	843	1
"08-12-2014"	"rule"	1	16	2	9	8	"coffee"	0	0	740	11
"08-12-2014"	"rule"	1	16	2	9	9	"orange squash"	1	1	780	16
"08-12-2014"	"rule"	1	16	2	9	10	"banana and eggs"	0	0	1329	15
"08-12-2014"	"rule"	1	16	2	9	11	"eggs"	1	1	887	14
"08-12-2014"	"rule"	1	16	2	9	12	"seafood and red meat"	0	0	960	9
"08-12-2014"	"rule"	1	16	2	9	13	"peanuts"	0	0	1038	20
"08-12-2014"	"rule"	1	16	2	9	14	"avocado and peanuts"	1	1	1033	21
"08-12-2014"	"rule"	1	16	2	9	15	"red meat"	1	1	655	8
"08-12-2014"	"rule"	1	16	2	9	16	"pasta and chocolate"	1	1	1286	24
"08-12-2014"	"rule"	1	16	2	9	17	"garlic"	1	1	965	2
"08-12-2014"	"rule"	1	16	2	9	18	"orange squash and bread"	0	0	1106	18
"08-12-2014"	"rule"	1	16	2	9	19	"milk"	0	0	877	4
"08-12-2014"	"rule"	1	16	2	9	20	"bread"	1	1	759	17
"08-12-2014"	"rule"	1	16	2	9	21	"avocado and peanuts"	1	1	898	21
"08-12-2014"	"rule"	1	16	2	9	22	"milk and mushrooms"	1	1	1148	6
"08-12-2014"	"rule"	1	16	2	9	23	"olive oil"	0	0	854	10
"08-12-2014"	"rule"	1	16	2	9	24	"pasta"	0	0	833	22
"08-12-2014"	"rule"	1	16	2	9	25	"mushrooms"	0	0	936	5
"08-12-2014"	"rule"	1	16	2	9	26	"bread"	1	1	667	17
"08-12-2014"	"rule"	1	16	2	9	27	"chocolate"	0	0	852	23
"08-12-2014"	"rule"	1	16	2	9	28	"cheese and garlic"	0	0	1248	3
"08-12-2014"	"rule"	1	16	2	9	29	"orange squash"	1	1	687	16
"08-12-2014"	"rule"	1	16	2	9	30	"banana"	1	1	1144	13
"08-12-2014"	"rule"	1	16	2	10	1	"chocolate"	0	0	899	23
"08-12-2014"	"rule"	1	16	2	10	2	"cheese and garlic"	0	0	980	3
"08-12-2014"	"rule"	1	16	2	10	3	"orange squash and bread"	0	0	1968	18
"08-12-2014"	"rule"	1	16	2	10	4	"avocado and peanuts"	1	1	840	21
"08-12-2014"	"rule"	1	16	2	10	5	"olive oil and coffee"	1	1	994	12
"08-12-2014"	"rule"	1	16	2	10	6	"milk"	-1	0	0	4
"08-12-2014"	"rule"	1	16	2	10	7	"garlic"	1	1	1210	2
"08-12-2014"	"rule"	1	16	2	10	8	"chocolate"	0	0	844	23
"08-12-2014"	"rule"	1	16	2	10	9	"pasta and chocolate"	1	1	802	24
"08-12-2014"	"rule"	1	16	2	10	10	"pasta"	0	0	798	22
"08-12-2014"	"rule"	1	16	2	10	11	"coffee"	0	0	1166	11
"08-12-2014"	"rule"	1	16	2	10	12	"avocado"	0	0	802	19
"08-12-2014"	"rule"	1	16	2	10	13	"orange squash"	1	1	746	16
"08-12-2014"	"rule"	1	16	2	10	14	"banana and eggs"	0	0	1075	15
"08-12-2014"	"rule"	1	16	2	10	15	"bread"	1	1	665	17
"08-12-2014"	"rule"	1	16	2	10	16	"eggs"	1	1	1746	14
"08-12-2014"	"rule"	1	16	2	10	17	"milk and mushrooms"	1	1	978	6
"08-12-2014"	"rule"	1	16	2	10	18	"mushrooms"	0	0	750	5
"08-12-2014"	"rule"	1	16	2	10	19	"seafood"	1	1	746	7
"08-12-2014"	"rule"	1	16	2	10	20	"pasta"	0	0	782	22
"08-12-2014"	"rule"	1	16	2	10	21	"banana"	1	1	705	13
"08-12-2014"	"rule"	1	16	2	10	22	"banana and eggs"	0	0	1863	15
"08-12-2014"	"rule"	1	16	2	10	23	"peanuts"	0	0	815	20
"08-12-2014"	"rule"	1	16	2	10	24	"avocado and peanuts"	1	1	888	21
"08-12-2014"	"rule"	1	16	2	10	25	"orange squash"	1	1	944	16
"08-12-2014"	"rule"	1	16	2	10	26	"bread"	1	1	822	17
"08-12-2014"	"rule"	1	16	2	10	27	"seafood and red meat"	0	0	901	9
"08-12-2014"	"rule"	1	16	2	10	28	"olive oil"	0	0	686	10
"08-12-2014"	"rule"	1	16	2	10	29	"red meat"	1	1	689	8
"08-12-2014"	"rule"	1	16	2	10	30	"cheese"	1	1	910	1
"08-14-2014"	"rule"	1	20	1	1	1	"coffee"	1	0	2730	11
"08-14-2014"	"rule"	1	20	1	1	2	"avocado"	1	0	1245	19
"08-14-2014"	"rule"	1	20	1	1	3	"garlic"	1	1	1442	2
"08-14-2014"	"rule"	1	20	1	1	4	"cheese"	1	1	1017	1
"08-14-2014"	"rule"	1	20	1	1	5	"milk and mushrooms"	1	1	2765	6
"08-14-2014"	"rule"	1	20	1	1	6	"pasta and chocolate"	0	1	1526	24
"08-14-2014"	"rule"	1	20	1	1	7	"peanuts"	1	0	1354	20
"08-14-2014"	"rule"	1	20	1	1	8	"cheese and garlic"	0	0	1516	3
"08-14-2014"	"rule"	1	20	1	1	9	"red meat"	1	1	1333	8
"08-14-2014"	"rule"	1	20	1	1	10	"milk"	0	0	2125	4
"08-14-2014"	"rule"	1	20	1	1	11	"coffee"	0	0	1770	11
"08-14-2014"	"rule"	1	20	1	1	12	"eggs"	1	1	1620	14
"08-14-2014"	"rule"	1	20	1	1	13	"olive oil and coffee"	0	1	2227	12
"08-14-2014"	"rule"	1	20	1	1	14	"seafood"	1	1	1151	7
"08-14-2014"	"rule"	1	20	1	1	15	"olive oil and coffee"	0	1	1626	12
"08-14-2014"	"rule"	1	20	1	1	16	"banana"	1	1	1125	13
"08-14-2014"	"rule"	1	20	1	1	17	"olive oil"	1	0	2194	10
"08-14-2014"	"rule"	1	20	1	1	18	"orange squash and bread"	0	0	1978	18
"08-14-2014"	"rule"	1	20	1	1	19	"seafood and red meat"	0	0	2043	9
"08-14-2014"	"rule"	1	20	1	1	20	"olive oil"	1	0	1495	10
"08-14-2014"	"rule"	1	20	1	1	21	"cheese"	1	1	1728	1
"08-14-2014"	"rule"	1	20	1	1	22	"mushrooms"	1	0	1198	5
"08-14-2014"	"rule"	1	20	1	1	23	"milk"	1	0	1913	4
"08-14-2014"	"rule"	1	20	1	1	24	"red meat"	1	1	1389	8
"08-14-2014"	"rule"	1	20	1	1	25	"cheese and garlic"	0	0	1367	3
"08-14-2014"	"rule"	1	20	1	1	26	"seafood"	1	1	2076	7
"08-14-2014"	"rule"	1	20	1	1	27	"peanuts"	0	0	1652	20
"08-14-2014"	"rule"	1	20	1	1	28	"milk and mushrooms"	1	1	2885	6
"08-14-2014"	"rule"	1	20	1	1	29	"orange squash and bread"	0	0	1807	18
"08-14-2014"	"rule"	1	20	1	1	30	"garlic"	1	1	1473	2
"08-14-2014"	"rule"	1	20	1	1	31	"pasta and chocolate"	1	1	2674	24
"08-14-2014"	"rule"	1	20	1	1	32	"mushrooms"	0	0	1233	5
"08-14-2014"	"rule"	1	20	1	1	33	"avocado"	0	0	1729	19
"08-14-2014"	"rule"	1	20	1	1	34	"seafood and red meat"	1	0	2556	9
"08-14-2014"	"rule"	1	20	1	1	35	"banana"	0	1	1392	13
"08-14-2014"	"rule"	1	20	1	1	36	"eggs"	0	1	1504	14
"08-14-2014"	"rule"	1	20	1	2	1	"red meat"	0	1	1918	8
"08-14-2014"	"rule"	1	20	1	2	2	"milk"	0	0	914	4
"08-14-2014"	"rule"	1	20	1	2	3	"coffee"	1	0	1688	11
"08-14-2014"	"rule"	1	20	1	2	4	"garlic"	1	1	1034	2
"08-14-2014"	"rule"	1	20	1	2	5	"eggs"	1	1	2028	14
"08-14-2014"	"rule"	1	20	1	2	6	"garlic"	1	1	1003	2
"08-14-2014"	"rule"	1	20	1	2	7	"peanuts"	1	0	1441	20
"08-14-2014"	"rule"	1	20	1	2	8	"banana"	1	1	956	13
"08-14-2014"	"rule"	1	20	1	2	9	"cheese"	1	1	1200	1
"08-14-2014"	"rule"	1	20	1	2	10	"cheese and garlic"	0	0	786	3
"08-14-2014"	"rule"	1	20	1	2	11	"seafood and red meat"	0	0	1609	9
"08-14-2014"	"rule"	1	20	1	2	12	"orange squash and bread"	1	0	2028	18
"08-14-2014"	"rule"	1	20	1	2	13	"pasta and chocolate"	1	1	1849	24
"08-14-2014"	"rule"	1	20	1	2	14	"milk"	0	0	1682	4
"08-14-2014"	"rule"	1	20	1	2	15	"milk and mushrooms"	1	1	1416	6
"08-14-2014"	"rule"	1	20	1	2	16	"olive oil and coffee"	1	1	1943	12
"08-14-2014"	"rule"	1	20	1	2	17	"orange squash and bread"	0	0	2506	18
"08-14-2014"	"rule"	1	20	1	2	18	"eggs"	0	1	1843	14
"08-14-2014"	"rule"	1	20	1	2	19	"mushrooms"	0	0	1994	5
"08-14-2014"	"rule"	1	20	1	2	20	"red meat"	1	1	912	8
"08-14-2014"	"rule"	1	20	1	2	21	"avocado"	0	0	1576	19
"08-14-2014"	"rule"	1	20	1	2	22	"cheese"	1	1	2613	1
"08-14-2014"	"rule"	1	20	1	2	23	"seafood and red meat"	0	0	1640	9
"08-14-2014"	"rule"	1	20	1	2	24	"mushrooms"	1	0	1135	5
"08-14-2014"	"rule"	1	20	1	2	25	"olive oil"	1	0	1097	10
"08-14-2014"	"rule"	1	20	1	2	26	"cheese and garlic"	0	0	1656	3
"08-14-2014"	"rule"	1	20	1	2	27	"seafood"	1	1	1434	7
"08-14-2014"	"rule"	1	20	1	2	28	"banana"	1	1	1706	13
"08-14-2014"	"rule"	1	20	1	2	29	"peanuts"	0	0	791	20
"08-14-2014"	"rule"	1	20	1	2	30	"olive oil"	1	0	991	10
"08-14-2014"	"rule"	1	20	1	2	31	"seafood"	1	1	1394	7
"08-14-2014"	"rule"	1	20	1	2	32	"pasta and chocolate"	0	1	1139	24
"08-14-2014"	"rule"	1	20	1	2	33	"milk and mushrooms"	0	1	2175	6
"08-14-2014"	"rule"	1	20	1	2	34	"olive oil and coffee"	0	1	2834	12
"08-14-2014"	"rule"	1	20	1	2	35	"coffee"	0	0	1264	11
"08-14-2014"	"rule"	1	20	1	2	36	"avocado"	0	0	1963	19
"08-14-2014"	"rule"	1	20	1	3	1	"eggs"	1	1	2767	14
"08-14-2014"	"rule"	1	20	1	3	2	"avocado"	0	0	2013	19
"08-14-2014"	"rule"	1	20	1	3	3	"banana"	1	1	1630	13
"08-14-2014"	"rule"	1	20	1	3	4	"seafood and red meat"	0	0	1544	9
"08-14-2014"	"rule"	1	20	1	3	5	"orange squash and bread"	0	0	2238	18
"08-14-2014"	"rule"	1	20	1	3	6	"eggs"	0	1	2354	14
"08-14-2014"	"rule"	1	20	1	3	7	"orange squash and bread"	0	0	1705	18
"08-14-2014"	"rule"	1	20	1	3	8	"banana"	1	1	1148	13
"08-14-2014"	"rule"	1	20	1	3	9	"pasta and chocolate"	0	1	2336	24
"08-14-2014"	"rule"	1	20	1	3	10	"cheese and garlic"	0	0	1339	3
"08-14-2014"	"rule"	1	20	1	3	11	"milk and mushrooms"	0	1	2651	6
"08-14-2014"	"rule"	1	20	1	3	12	"red meat"	1	1	1059	8
"08-14-2014"	"rule"	1	20	1	3	13	"avocado"	0	0	2615	19
"08-14-2014"	"rule"	1	20	1	3	14	"cheese"	1	1	1234	1
"08-14-2014"	"rule"	1	20	1	3	15	"seafood and red meat"	0	0	2106	9
"08-14-2014"	"rule"	1	20	1	3	16	"red meat"	1	1	800	8
"08-14-2014"	"rule"	1	20	1	3	17	"peanuts"	0	0	1846	20
"08-14-2014"	"rule"	1	20	1	3	18	"coffee"	0	0	1949	11
"08-14-2014"	"rule"	1	20	1	3	19	"garlic"	1	1	804	2
"08-14-2014"	"rule"	1	20	1	3	20	"garlic"	1	1	848	2
"08-14-2014"	"rule"	1	20	1	3	21	"coffee"	0	0	1329	11
"08-14-2014"	"rule"	1	20	1	3	22	"milk"	0	0	1520	4
"08-14-2014"	"rule"	1	20	1	3	23	"olive oil and coffee"	1	1	1883	12
"08-14-2014"	"rule"	1	20	1	3	24	"seafood"	1	1	1104	7
"08-14-2014"	"rule"	1	20	1	3	25	"mushrooms"	1	0	2081	5
"08-14-2014"	"rule"	1	20	1	3	26	"milk"	0	0	1254	4
"08-14-2014"	"rule"	1	20	1	3	27	"cheese"	1	1	1431	1
"08-14-2014"	"rule"	1	20	1	3	28	"pasta and chocolate"	1	1	1760	24
"08-14-2014"	"rule"	1	20	1	3	29	"peanuts"	0	0	1091	20
"08-14-2014"	"rule"	1	20	1	3	30	"seafood"	1	1	1080	7
"08-14-2014"	"rule"	1	20	1	3	31	"mushrooms"	0	0	1673	5
"08-14-2014"	"rule"	1	20	1	3	32	"olive oil and coffee"	1	1	1425	12
"08-14-2014"	"rule"	1	20	1	3	33	"olive oil"	0	0	1507	10
"08-14-2014"	"rule"	1	20	1	3	34	"cheese and garlic"	0	0	1455	3
"08-14-2014"	"rule"	1	20	1	3	35	"olive oil"	0	0	1693	10
"08-14-2014"	"rule"	1	20	1	3	36	"milk and mushrooms"	1	1	2182	6
"08-14-2014"	"rule"	1	20	1	4	1	"banana"	0	1	1764	13
"08-14-2014"	"rule"	1	20	1	4	2	"eggs"	0	1	2045	14
"08-14-2014"	"rule"	1	20	1	4	3	"coffee"	0	0	997	11
"08-14-2014"	"rule"	1	20	1	4	4	"peanuts"	0	0	1472	20
"08-14-2014"	"rule"	1	20	1	4	5	"olive oil"	0	0	1002	10
"08-14-2014"	"rule"	1	20	1	4	6	"cheese and garlic"	0	0	1867	3
"08-14-2014"	"rule"	1	20	1	4	7	"avocado"	0	0	2023	19
"08-14-2014"	"rule"	1	20	1	4	8	"cheese"	1	1	939	1
"08-14-2014"	"rule"	1	20	1	4	9	"seafood"	1	1	874	7
"08-14-2014"	"rule"	1	20	1	4	10	"seafood and red meat"	0	0	1090	9
"08-14-2014"	"rule"	1	20	1	4	11	"milk and mushrooms"	1	1	2175	6
"08-14-2014"	"rule"	1	20	1	4	12	"olive oil"	0	0	1162	10
"08-14-2014"	"rule"	1	20	1	4	13	"milk"	0	0	1363	4
"08-14-2014"	"rule"	1	20	1	4	14	"olive oil and coffee"	1	1	1511	12
"08-14-2014"	"rule"	1	20	1	4	15	"mushrooms"	0	0	1924	5
"08-14-2014"	"rule"	1	20	1	4	16	"garlic"	1	1	1284	2
"08-14-2014"	"rule"	1	20	1	4	17	"seafood"	1	1	1746	7
"08-14-2014"	"rule"	1	20	1	4	18	"banana"	1	1	1328	13
"08-14-2014"	"rule"	1	20	1	4	19	"orange squash and bread"	-1	0	0	18
"08-14-2014"	"rule"	1	20	1	4	20	"seafood and red meat"	0	0	1165	9
"08-14-2014"	"rule"	1	20	1	4	21	"cheese and garlic"	0	0	1629	3
"08-14-2014"	"rule"	1	20	1	4	22	"cheese"	1	1	865	1
"08-14-2014"	"rule"	1	20	1	4	23	"olive oil and coffee"	1	1	2035	12
"08-14-2014"	"rule"	1	20	1	4	24	"red meat"	1	1	893	8
"08-14-2014"	"rule"	1	20	1	4	25	"peanuts"	0	0	1330	20
"08-14-2014"	"rule"	1	20	1	4	26	"avocado"	0	0	2245	19
"08-14-2014"	"rule"	1	20	1	4	27	"red meat"	1	1	917	8
"08-14-2014"	"rule"	1	20	1	4	28	"pasta and chocolate"	1	1	1969	24
"08-14-2014"	"rule"	1	20	1	4	29	"milk"	0	0	1404	4
"08-14-2014"	"rule"	1	20	1	4	30	"pasta and chocolate"	1	1	1528	24
"08-14-2014"	"rule"	1	20	1	4	31	"orange squash and bread"	1	0	1900	18
"08-14-2014"	"rule"	1	20	1	4	32	"garlic"	1	1	1479	2
"08-14-2014"	"rule"	1	20	1	4	33	"mushrooms"	0	0	1556	5
"08-14-2014"	"rule"	1	20	1	4	34	"eggs"	0	1	1692	14
"08-14-2014"	"rule"	1	20	1	4	35	"milk and mushrooms"	1	1	1560	6
"08-14-2014"	"rule"	1	20	1	4	36	"coffee"	0	0	1140	11
"08-14-2014"	"rule"	1	20	1	5	1	"cheese"	1	1	1354	1
"08-14-2014"	"rule"	1	20	1	5	2	"red meat"	1	1	868	8
"08-14-2014"	"rule"	1	20	1	5	3	"mushrooms"	0	0	1272	5
"08-14-2014"	"rule"	1	20	1	5	4	"avocado"	0	0	1336	19
"08-14-2014"	"rule"	1	20	1	5	5	"cheese"	1	1	1443	1
"08-14-2014"	"rule"	1	20	1	5	6	"olive oil"	0	0	1087	10
"08-14-2014"	"rule"	1	20	1	5	7	"orange squash and bread"	0	0	1701	18
"08-14-2014"	"rule"	1	20	1	5	8	"coffee"	0	0	1097	11
"08-14-2014"	"rule"	1	20	1	5	9	"pasta and chocolate"	1	1	1498	24
"08-14-2014"	"rule"	1	20	1	5	10	"milk and mushrooms"	1	1	2312	6
"08-14-2014"	"rule"	1	20	1	5	11	"seafood"	1	1	756	7
"08-14-2014"	"rule"	1	20	1	5	12	"peanuts"	0	0	1060	20
"08-14-2014"	"rule"	1	20	1	5	13	"milk"	0	0	1092	4
"08-14-2014"	"rule"	1	20	1	5	14	"red meat"	1	1	797	8
"08-14-2014"	"rule"	1	20	1	5	15	"banana"	1	1	1111	13
"08-14-2014"	"rule"	1	20	1	5	16	"pasta and chocolate"	1	1	1786	24
"08-14-2014"	"rule"	1	20	1	5	17	"milk and mushrooms"	1	1	1748	6
"08-14-2014"	"rule"	1	20	1	5	18	"seafood and red meat"	0	0	1762	9
"08-14-2014"	"rule"	1	20	1	5	19	"mushrooms"	0	0	1426	5
"08-14-2014"	"rule"	1	20	1	5	20	"peanuts"	0	0	921	20
"08-14-2014"	"rule"	1	20	1	5	21	"orange squash and bread"	1	0	2534	18
"08-14-2014"	"rule"	1	20	1	5	22	"olive oil and coffee"	1	1	1776	12
"08-14-2014"	"rule"	1	20	1	5	23	"banana"	1	1	1141	13
"08-14-2014"	"rule"	1	20	1	5	24	"avocado"	0	0	1213	19
"08-14-2014"	"rule"	1	20	1	5	25	"milk"	0	0	953	4
"08-14-2014"	"rule"	1	20	1	5	26	"coffee"	0	0	808	11
"08-14-2014"	"rule"	1	20	1	5	27	"eggs"	1	1	1456	14
"08-14-2014"	"rule"	1	20	1	5	28	"garlic"	1	1	716	2
"08-14-2014"	"rule"	1	20	1	5	29	"cheese and garlic"	0	0	1214	3
"08-14-2014"	"rule"	1	20	1	5	30	"eggs"	1	1	1188	14
"08-14-2014"	"rule"	1	20	1	5	31	"olive oil"	0	0	1068	10
"08-14-2014"	"rule"	1	20	1	5	32	"seafood"	1	1	842	7
"08-14-2014"	"rule"	1	20	1	5	33	"seafood and red meat"	0	0	1257	9
"08-14-2014"	"rule"	1	20	1	5	34	"garlic"	1	1	898	2
"08-14-2014"	"rule"	1	20	1	5	35	"cheese and garlic"	0	0	965	3
"08-14-2014"	"rule"	1	20	1	5	36	"olive oil and coffee"	1	1	1635	12
"08-14-2014"	"rule"	1	20	1	6	1	"cheese"	1	1	1457	1
"08-14-2014"	"rule"	1	20	1	6	2	"garlic"	1	1	738	2
"08-14-2014"	"rule"	1	20	1	6	3	"milk"	0	0	1295	4
"08-14-2014"	"rule"	1	20	1	6	4	"coffee"	0	0	1031	11
"08-14-2014"	"rule"	1	20	1	6	5	"olive oil"	0	0	1179	10
"08-14-2014"	"rule"	1	20	1	6	6	"red meat"	1	1	852	8
"08-14-2014"	"rule"	1	20	1	6	7	"pasta and chocolate"	1	1	1584	24
"08-14-2014"	"rule"	1	20	1	6	8	"milk"	0	0	1187	4
"08-14-2014"	"rule"	1	20	1	6	9	"avocado"	0	0	1053	19
"08-14-2014"	"rule"	1	20	1	6	10	"eggs"	1	1	929	14
"08-14-2014"	"rule"	1	20	1	6	11	"mushrooms"	0	0	1777	5
"08-14-2014"	"rule"	1	20	1	6	12	"seafood"	1	1	761	7
"08-14-2014"	"rule"	1	20	1	6	13	"seafood and red meat"	0	0	931	9
"08-14-2014"	"rule"	1	20	1	6	14	"avocado"	0	0	1535	19
"08-14-2014"	"rule"	1	20	1	6	15	"banana"	1	1	1286	13
"08-14-2014"	"rule"	1	20	1	6	16	"seafood and red meat"	0	0	1022	9
"08-14-2014"	"rule"	1	20	1	6	17	"orange squash and bread"	0	0	2007	18
"08-14-2014"	"rule"	1	20	1	6	18	"milk and mushrooms"	1	1	2013	6
"08-14-2014"	"rule"	1	20	1	6	19	"banana"	1	1	850	13
"08-14-2014"	"rule"	1	20	1	6	20	"pasta and chocolate"	1	1	1517	24
"08-14-2014"	"rule"	1	20	1	6	21	"red meat"	1	1	828	8
"08-14-2014"	"rule"	1	20	1	6	22	"olive oil"	0	0	1144	10
"08-14-2014"	"rule"	1	20	1	6	23	"olive oil and coffee"	1	1	1037	12
"08-14-2014"	"rule"	1	20	1	6	24	"garlic"	1	1	1164	2
"08-14-2014"	"rule"	1	20	1	6	25	"seafood"	1	1	769	7
"08-14-2014"	"rule"	1	20	1	6	26	"mushrooms"	0	0	1333	5
"08-14-2014"	"rule"	1	20	1	6	27	"milk and mushrooms"	1	1	1234	6
"08-14-2014"	"rule"	1	20	1	6	28	"peanuts"	0	0	1123	20
"08-14-2014"	"rule"	1	20	1	6	29	"cheese and garlic"	0	0	1576	3
"08-14-2014"	"rule"	1	20	1	6	30	"olive oil and coffee"	1	1	1932	12
"08-14-2014"	"rule"	1	20	1	6	31	"cheese"	1	1	1106	1
"08-14-2014"	"rule"	1	20	1	6	32	"cheese and garlic"	0	0	1329	3
"08-14-2014"	"rule"	1	20	1	6	33	"eggs"	1	1	1183	14
"08-14-2014"	"rule"	1	20	1	6	34	"orange squash and bread"	0	0	1738	18
"08-14-2014"	"rule"	1	20	1	6	35	"peanuts"	0	0	1555	20
"08-14-2014"	"rule"	1	20	1	6	36	"coffee"	0	0	1156	11
"08-14-2014"	"rule"	1	20	2	7	1	"chocolate"	-1	0	0	23
"08-14-2014"	"rule"	1	20	2	7	2	"coffee"	0	0	1497	11
"08-14-2014"	"rule"	1	20	2	7	3	"mushrooms"	0	0	792	5
"08-14-2014"	"rule"	1	20	2	7	4	"eggs"	1	1	935	14
"08-14-2014"	"rule"	1	20	2	7	5	"garlic"	1	1	919	2
"08-14-2014"	"rule"	1	20	2	7	6	"red meat"	1	1	830	8
"08-14-2014"	"rule"	1	20	2	7	7	"orange squash and bread"	0	0	1917	18
"08-14-2014"	"rule"	1	20	2	7	8	"pasta and chocolate"	1	1	1622	24
"08-14-2014"	"rule"	1	20	2	7	9	"olive oil"	0	0	962	10
"08-14-2014"	"rule"	1	20	2	7	10	"bread"	1	1	1985	17
"08-14-2014"	"rule"	1	20	2	7	11	"orange squash"	1	1	884	16
"08-14-2014"	"rule"	1	20	2	7	12	"avocado and peanuts"	1	1	2624	21
"08-14-2014"	"rule"	1	20	2	7	13	"orange squash"	1	1	1168	16
"08-14-2014"	"rule"	1	20	2	7	14	"milk and mushrooms"	1	1	1817	6
"08-14-2014"	"rule"	1	20	2	7	15	"pasta"	1	0	1995	22
"08-14-2014"	"rule"	1	20	2	7	16	"bread"	1	1	1510	17
"08-14-2014"	"rule"	1	20	2	7	17	"cheese and garlic"	0	0	1811	3
"08-14-2014"	"rule"	1	20	2	7	18	"chocolate"	0	0	2077	23
"08-14-2014"	"rule"	1	20	2	7	19	"pasta"	0	0	1223	22
"08-14-2014"	"rule"	1	20	2	7	20	"banana and eggs"	0	0	2306	15
"08-14-2014"	"rule"	1	20	2	7	21	"seafood and red meat"	0	0	2210	9
"08-14-2014"	"rule"	1	20	2	7	22	"peanuts"	0	0	1383	20
"08-14-2014"	"rule"	1	20	2	7	23	"avocado and peanuts"	1	1	2047	21
"08-14-2014"	"rule"	1	20	2	7	24	"avocado"	0	0	1289	19
"08-14-2014"	"rule"	1	20	2	7	25	"olive oil and coffee"	1	1	1470	12
"08-14-2014"	"rule"	1	20	2	7	26	"banana"	1	1	1543	13
"08-14-2014"	"rule"	1	20	2	7	27	"seafood"	1	1	948	7
"08-14-2014"	"rule"	1	20	2	7	28	"cheese"	1	1	1684	1
"08-14-2014"	"rule"	1	20	2	7	29	"banana and eggs"	0	0	1290	15
"08-14-2014"	"rule"	1	20	2	7	30	"milk"	0	0	1344	4
"08-14-2014"	"rule"	1	20	2	8	1	"cheese"	1	1	1303	1
"08-14-2014"	"rule"	1	20	2	8	2	"chocolate"	0	0	2107	23
"08-14-2014"	"rule"	1	20	2	8	3	"milk"	0	0	977	4
"08-14-2014"	"rule"	1	20	2	8	4	"garlic"	1	1	2183	2
"08-14-2014"	"rule"	1	20	2	8	5	"olive oil and coffee"	1	1	1459	12
"08-14-2014"	"rule"	1	20	2	8	6	"peanuts"	0	0	1194	20
"08-14-2014"	"rule"	1	20	2	8	7	"mushrooms"	0	0	1534	5
"08-14-2014"	"rule"	1	20	2	8	8	"avocado"	0	0	1085	19
"08-14-2014"	"rule"	1	20	2	8	9	"cheese and garlic"	0	0	1082	3
"08-14-2014"	"rule"	1	20	2	8	10	"pasta"	0	0	1903	22
"08-14-2014"	"rule"	1	20	2	8	11	"eggs"	1	1	820	14
"08-14-2014"	"rule"	1	20	2	8	12	"avocado and peanuts"	1	1	2154	21
"08-14-2014"	"rule"	1	20	2	8	13	"orange squash and bread"	0	0	2061	18
"08-14-2014"	"rule"	1	20	2	8	14	"pasta"	0	0	973	22
"08-14-2014"	"rule"	1	20	2	8	15	"bread"	1	1	1960	17
"08-14-2014"	"rule"	1	20	2	8	16	"orange squash"	1	1	874	16
"08-14-2014"	"rule"	1	20	2	8	17	"avocado and peanuts"	1	1	1965	21
"08-14-2014"	"rule"	1	20	2	8	18	"banana and eggs"	0	0	1560	15
"08-14-2014"	"rule"	1	20	2	8	19	"chocolate"	0	0	1355	23
"08-14-2014"	"rule"	1	20	2	8	20	"red meat"	1	1	1226	8
"08-14-2014"	"rule"	1	20	2	8	21	"milk and mushrooms"	1	1	2545	6
"08-14-2014"	"rule"	1	20	2	8	22	"coffee"	0	0	1006	11
"08-14-2014"	"rule"	1	20	2	8	23	"seafood and red meat"	0	0	1768	9
"08-14-2014"	"rule"	1	20	2	8	24	"bread"	1	1	2570	17
"08-14-2014"	"rule"	1	20	2	8	25	"pasta and chocolate"	1	1	2186	24
"08-14-2014"	"rule"	1	20	2	8	26	"seafood"	1	1	713	7
"08-14-2014"	"rule"	1	20	2	8	27	"olive oil"	0	0	1224	10
"08-14-2014"	"rule"	1	20	2	8	28	"banana and eggs"	1	0	2244	15
"08-14-2014"	"rule"	1	20	2	8	29	"orange squash"	1	1	1060	16
"08-14-2014"	"rule"	1	20	2	8	30	"banana"	1	1	585	13
"08-14-2014"	"rule"	1	20	2	9	1	"seafood and red meat"	0	0	1323	9
"08-14-2014"	"rule"	1	20	2	9	2	"banana and eggs"	0	0	1697	15
"08-14-2014"	"rule"	1	20	2	9	3	"seafood"	1	1	856	7
"08-14-2014"	"rule"	1	20	2	9	4	"garlic"	1	1	1415	2
"08-14-2014"	"rule"	1	20	2	9	5	"cheese"	1	1	1420	1
"08-14-2014"	"rule"	1	20	2	9	6	"pasta"	0	0	1551	22
"08-14-2014"	"rule"	1	20	2	9	7	"bread"	1	1	1505	17
"08-14-2014"	"rule"	1	20	2	9	8	"chocolate"	0	0	948	23
"08-14-2014"	"rule"	1	20	2	9	9	"chocolate"	0	0	963	23
"08-14-2014"	"rule"	1	20	2	9	10	"bread"	1	1	1282	17
"08-14-2014"	"rule"	1	20	2	9	11	"olive oil"	0	0	1119	10
"08-14-2014"	"rule"	1	20	2	9	12	"pasta"	0	0	1367	22
"08-14-2014"	"rule"	1	20	2	9	13	"mushrooms"	0	0	1176	5
"08-14-2014"	"rule"	1	20	2	9	14	"orange squash"	1	1	970	16
"08-14-2014"	"rule"	1	20	2	9	15	"avocado and peanuts"	1	1	1898	21
"08-14-2014"	"rule"	1	20	2	9	16	"pasta and chocolate"	1	1	2090	24
"08-14-2014"	"rule"	1	20	2	9	17	"olive oil and coffee"	1	1	1521	12
"08-14-2014"	"rule"	1	20	2	9	18	"avocado"	0	0	1725	19
"08-14-2014"	"rule"	1	20	2	9	19	"banana"	1	1	768	13
"08-14-2014"	"rule"	1	20	2	9	20	"milk"	0	0	1089	4
"08-14-2014"	"rule"	1	20	2	9	21	"orange squash and bread"	0	0	2231	18
"08-14-2014"	"rule"	1	20	2	9	22	"orange squash"	1	1	806	16
"08-14-2014"	"rule"	1	20	2	9	23	"avocado and peanuts"	1	1	2108	21
"08-14-2014"	"rule"	1	20	2	9	24	"peanuts"	0	0	1102	20
"08-14-2014"	"rule"	1	20	2	9	25	"milk and mushrooms"	1	1	1216	6
"08-14-2014"	"rule"	1	20	2	9	26	"eggs"	1	1	892	14
"08-14-2014"	"rule"	1	20	2	9	27	"red meat"	1	1	823	8
"08-14-2014"	"rule"	1	20	2	9	28	"cheese and garlic"	0	0	1474	3
"08-14-2014"	"rule"	1	20	2	9	29	"banana and eggs"	0	0	1920	15
"08-14-2014"	"rule"	1	20	2	9	30	"coffee"	0	0	1105	11
"08-14-2014"	"rule"	1	20	2	10	1	"orange squash"	1	1	1334	16
"08-14-2014"	"rule"	1	20	2	10	2	"orange squash and bread"	0	0	812	18
"08-14-2014"	"rule"	1	20	2	10	3	"red meat"	1	1	767	8
"08-14-2014"	"rule"	1	20	2	10	4	"mushrooms"	0	0	1260	5
"08-14-2014"	"rule"	1	20	2	10	5	"bread"	1	1	863	17
"08-14-2014"	"rule"	1	20	2	10	6	"orange squash"	1	1	814	16
"08-14-2014"	"rule"	1	20	2	10	7	"eggs"	1	1	1431	14
"08-14-2014"	"rule"	1	20	2	10	8	"pasta and chocolate"	1	1	1785	24
"08-14-2014"	"rule"	1	20	2	10	9	"cheese"	1	1	1457	1
"08-14-2014"	"rule"	1	20	2	10	10	"olive oil"	0	0	933	10
"08-14-2014"	"rule"	1	20	2	10	11	"olive oil and coffee"	1	1	1520	12
"08-14-2014"	"rule"	1	20	2	10	12	"banana and eggs"	0	0	2003	15
"08-14-2014"	"rule"	1	20	2	10	13	"pasta"	0	0	1645	22
"08-14-2014"	"rule"	1	20	2	10	14	"coffee"	0	0	862	11
"08-14-2014"	"rule"	1	20	2	10	15	"avocado"	0	0	851	19
"08-14-2014"	"rule"	1	20	2	10	16	"cheese and garlic"	0	0	1665	3
"08-14-2014"	"rule"	1	20	2	10	17	"garlic"	1	1	735	2
"08-14-2014"	"rule"	1	20	2	10	18	"peanuts"	0	0	1215	20
"08-14-2014"	"rule"	1	20	2	10	19	"avocado and peanuts"	1	1	1684	21
"08-14-2014"	"rule"	1	20	2	10	20	"avocado and peanuts"	1	1	1035	21
"08-14-2014"	"rule"	1	20	2	10	21	"banana"	1	1	1111	13
"08-14-2014"	"rule"	1	20	2	10	22	"chocolate"	0	0	1096	23
"08-14-2014"	"rule"	1	20	2	10	23	"milk and mushrooms"	1	1	1184	6
"08-14-2014"	"rule"	1	20	2	10	24	"bread"	1	1	2032	17
"08-14-2014"	"rule"	1	20	2	10	25	"seafood"	1	1	798	7
"08-14-2014"	"rule"	1	20	2	10	26	"chocolate"	0	0	782	23
"08-14-2014"	"rule"	1	20	2	10	27	"banana and eggs"	0	0	1641	15
"08-14-2014"	"rule"	1	20	2	10	28	"pasta"	0	0	1933	22
"08-14-2014"	"rule"	1	20	2	10	29	"milk"	0	0	848	4
"08-14-2014"	"rule"	1	20	2	10	30	"seafood and red meat"	0	0	1478	9
"08-28-2014"	"rule"	1	25	1	1	1	"garlic"	-1	1	0	2
"08-28-2014"	"rule"	1	25	1	1	2	"milk and mushrooms"	1	1	1794	6
"08-28-2014"	"rule"	1	25	1	1	3	"pasta and chocolate"	0	1	2053	24
"08-28-2014"	"rule"	1	25	1	1	4	"milk"	1	0	729	4
"08-28-2014"	"rule"	1	25	1	1	5	"peanuts"	0	0	816	20
"08-28-2014"	"rule"	1	25	1	1	6	"eggs"	1	1	1371	14
"08-28-2014"	"rule"	1	25	1	1	7	"seafood and red meat"	1	0	1056	9
"08-28-2014"	"rule"	1	25	1	1	8	"milk and mushrooms"	0	1	1266	6
"08-28-2014"	"rule"	1	25	1	1	9	"milk"	1	0	1022	4
"08-28-2014"	"rule"	1	25	1	1	10	"banana"	0	1	1035	13
"08-28-2014"	"rule"	1	25	1	1	11	"cheese and garlic"	1	0	866	3
"08-28-2014"	"rule"	1	25	1	1	12	"olive oil and coffee"	1	1	1344	12
"08-28-2014"	"rule"	1	25	1	1	13	"seafood and red meat"	0	0	1136	9
"08-28-2014"	"rule"	1	25	1	1	14	"mushrooms"	1	0	847	5
"08-28-2014"	"rule"	1	25	1	1	15	"olive oil"	0	0	940	10
"08-28-2014"	"rule"	1	25	1	1	16	"cheese"	1	1	1053	1
"08-28-2014"	"rule"	1	25	1	1	17	"orange squash and bread"	0	0	1176	18
"08-28-2014"	"rule"	1	25	1	1	18	"eggs"	1	1	727	14
"08-28-2014"	"rule"	1	25	1	1	19	"banana"	0	1	1054	13
"08-28-2014"	"rule"	1	25	1	1	20	"orange squash and bread"	0	0	949	18
"08-28-2014"	"rule"	1	25	1	1	21	"cheese and garlic"	0	0	1171	3
"08-28-2014"	"rule"	1	25	1	1	22	"coffee"	0	0	1184	11
"08-28-2014"	"rule"	1	25	1	1	23	"red meat"	0	1	858	8
"08-28-2014"	"rule"	1	25	1	1	24	"olive oil and coffee"	1	1	741	12
"08-28-2014"	"rule"	1	25	1	1	25	"avocado"	1	0	1302	19
"08-28-2014"	"rule"	1	25	1	1	26	"garlic"	0	1	576	2
"08-28-2014"	"rule"	1	25	1	1	27	"coffee"	1	0	1005	11
"08-28-2014"	"rule"	1	25	1	1	28	"cheese"	1	1	1282	1
"08-28-2014"	"rule"	1	25	1	1	29	"seafood"	1	1	646	7
"08-28-2014"	"rule"	1	25	1	1	30	"olive oil"	1	0	769	10
"08-28-2014"	"rule"	1	25	1	1	31	"seafood"	1	1	863	7
"08-28-2014"	"rule"	1	25	1	1	32	"mushrooms"	1	0	702	5
"08-28-2014"	"rule"	1	25	1	1	33	"red meat"	0	1	1161	8
"08-28-2014"	"rule"	1	25	1	1	34	"peanuts"	1	0	555	20
"08-28-2014"	"rule"	1	25	1	1	35	"avocado"	1	0	1048	19
"08-28-2014"	"rule"	1	25	1	1	36	"pasta and chocolate"	0	1	1423	24
"08-28-2014"	"rule"	1	25	1	2	1	"cheese and garlic"	1	0	1381	3
"08-28-2014"	"rule"	1	25	1	2	2	"olive oil"	0	0	903	10
"08-28-2014"	"rule"	1	25	1	2	3	"milk"	1	0	1782	4
"08-28-2014"	"rule"	1	25	1	2	4	"milk"	0	0	416	4
"08-28-2014"	"rule"	1	25	1	2	5	"banana"	0	1	584	13
"08-28-2014"	"rule"	1	25	1	2	6	"milk and mushrooms"	1	1	1001	6
"08-28-2014"	"rule"	1	25	1	2	7	"olive oil and coffee"	1	1	592	12
"08-28-2014"	"rule"	1	25	1	2	8	"cheese"	1	1	730	1
"08-28-2014"	"rule"	1	25	1	2	9	"orange squash and bread"	0	0	1204	18
"08-28-2014"	"rule"	1	25	1	2	10	"seafood and red meat"	1	0	879	9
"08-28-2014"	"rule"	1	25	1	2	11	"pasta and chocolate"	0	1	1016	24
"08-28-2014"	"rule"	1	25	1	2	12	"peanuts"	1	0	1174	20
"08-28-2014"	"rule"	1	25	1	2	13	"olive oil and coffee"	0	1	999	12
"08-28-2014"	"rule"	1	25	1	2	14	"red meat"	1	1	1145	8
"08-28-2014"	"rule"	1	25	1	2	15	"coffee"	0	0	930	11
"08-28-2014"	"rule"	1	25	1	2	16	"banana"	0	1	802	13
"08-28-2014"	"rule"	1	25	1	2	17	"cheese"	1	1	682	1
"08-28-2014"	"rule"	1	25	1	2	18	"coffee"	1	0	575	11
"08-28-2014"	"rule"	1	25	1	2	19	"cheese and garlic"	0	0	520	3
"08-28-2014"	"rule"	1	25	1	2	20	"seafood"	1	1	876	7
"08-28-2014"	"rule"	1	25	1	2	21	"mushrooms"	1	0	597	5
"08-28-2014"	"rule"	1	25	1	2	22	"eggs"	1	1	885	14
"08-28-2014"	"rule"	1	25	1	2	23	"red meat"	0	1	996	8
"08-28-2014"	"rule"	1	25	1	2	24	"avocado"	1	0	385	19
"08-28-2014"	"rule"	1	25	1	2	25	"garlic"	0	1	906	2
"08-28-2014"	"rule"	1	25	1	2	26	"seafood and red meat"	1	0	496	9
"08-28-2014"	"rule"	1	25	1	2	27	"peanuts"	0	0	421	20
"08-28-2014"	"rule"	1	25	1	2	28	"pasta and chocolate"	0	1	450	24
"08-28-2014"	"rule"	1	25	1	2	29	"eggs"	1	1	842	14
"08-28-2014"	"rule"	1	25	1	2	30	"mushrooms"	0	0	713	5
"08-28-2014"	"rule"	1	25	1	2	31	"seafood"	0	1	1596	7
"08-28-2014"	"rule"	1	25	1	2	32	"garlic"	0	1	771	2
"08-28-2014"	"rule"	1	25	1	2	33	"olive oil"	1	0	1212	10
"08-28-2014"	"rule"	1	25	1	2	34	"milk and mushrooms"	1	1	1219	6
"08-28-2014"	"rule"	1	25	1	2	35	"orange squash and bread"	0	0	1077	18
"08-28-2014"	"rule"	1	25	1	2	36	"avocado"	0	0	946	19
"08-28-2014"	"rule"	1	25	1	3	1	"milk"	1	0	1296	4
"08-28-2014"	"rule"	1	25	1	3	2	"mushrooms"	0	0	996	5
"08-28-2014"	"rule"	1	25	1	3	3	"seafood"	0	1	995	7
"08-28-2014"	"rule"	1	25	1	3	4	"eggs"	1	1	699	14
"08-28-2014"	"rule"	1	25	1	3	5	"peanuts"	0	0	1392	20
"08-28-2014"	"rule"	1	25	1	3	6	"cheese and garlic"	0	0	691	3
"08-28-2014"	"rule"	1	25	1	3	7	"avocado"	0	0	635	19
"08-28-2014"	"rule"	1	25	1	3	8	"seafood"	1	1	1267	7
"08-28-2014"	"rule"	1	25	1	3	9	"milk"	0	0	748	4
"08-28-2014"	"rule"	1	25	1	3	10	"olive oil"	0	0	732	10
"08-28-2014"	"rule"	1	25	1	3	11	"cheese"	1	1	994	1
"08-28-2014"	"rule"	1	25	1	3	12	"banana"	1	1	844	13
"08-28-2014"	"rule"	1	25	1	3	13	"pasta and chocolate"	1	1	796	24
"08-28-2014"	"rule"	1	25	1	3	14	"banana"	1	1	623	13
"08-28-2014"	"rule"	1	25	1	3	15	"pasta and chocolate"	1	1	728	24
"08-28-2014"	"rule"	1	25	1	3	16	"avocado"	1	0	546	19
"08-28-2014"	"rule"	1	25	1	3	17	"olive oil and coffee"	1	1	643	12
"08-28-2014"	"rule"	1	25	1	3	18	"olive oil and coffee"	1	1	382	12
"08-28-2014"	"rule"	1	25	1	3	19	"red meat"	1	1	963	8
"08-28-2014"	"rule"	1	25	1	3	20	"peanuts"	0	0	816	20
"08-28-2014"	"rule"	1	25	1	3	21	"red meat"	0	1	698	8
"08-28-2014"	"rule"	1	25	1	3	22	"coffee"	0	0	433	11
"08-28-2014"	"rule"	1	25	1	3	23	"seafood and red meat"	1	0	687	9
"08-28-2014"	"rule"	1	25	1	3	24	"cheese and garlic"	0	0	356	3
"08-28-2014"	"rule"	1	25	1	3	25	"coffee"	1	0	447	11
"08-28-2014"	"rule"	1	25	1	3	26	"cheese"	0	1	345	1
"08-28-2014"	"rule"	1	25	1	3	27	"milk and mushrooms"	1	1	387	6
"08-28-2014"	"rule"	1	25	1	3	28	"olive oil"	1	0	420	10
"08-28-2014"	"rule"	1	25	1	3	29	"orange squash and bread"	0	0	339	18
"08-28-2014"	"rule"	1	25	1	3	30	"orange squash and bread"	0	0	426	18
"08-28-2014"	"rule"	1	25	1	3	31	"milk and mushrooms"	0	1	629	6
"08-28-2014"	"rule"	1	25	1	3	32	"garlic"	1	1	398	2
"08-28-2014"	"rule"	1	25	1	3	33	"mushrooms"	1	0	571	5
"08-28-2014"	"rule"	1	25	1	3	34	"eggs"	0	1	915	14
"08-28-2014"	"rule"	1	25	1	3	35	"garlic"	1	1	908	2
"08-28-2014"	"rule"	1	25	1	3	36	"seafood and red meat"	1	0	1370	9
"08-28-2014"	"rule"	1	25	1	4	1	"seafood and red meat"	0	0	1818	9
"08-28-2014"	"rule"	1	25	1	4	2	"eggs"	0	1	1010	14
"08-28-2014"	"rule"	1	25	1	4	3	"peanuts"	0	0	838	20
"08-28-2014"	"rule"	1	25	1	4	4	"cheese and garlic"	1	0	753	3
"08-28-2014"	"rule"	1	25	1	4	5	"olive oil and coffee"	0	1	544	12
"08-28-2014"	"rule"	1	25	1	4	6	"milk"	1	0	849	4
"08-28-2014"	"rule"	1	25	1	4	7	"mushrooms"	0	0	926	5
"08-28-2014"	"rule"	1	25	1	4	8	"orange squash and bread"	0	0	1005	18
"08-28-2014"	"rule"	1	25	1	4	9	"red meat"	1	1	1116	8
"08-28-2014"	"rule"	1	25	1	4	10	"milk and mushrooms"	1	1	1241	6
"08-28-2014"	"rule"	1	25	1	4	11	"garlic"	1	1	1526	2
"08-28-2014"	"rule"	1	25	1	4	12	"eggs"	0	1	708	14
"08-28-2014"	"rule"	1	25	1	4	13	"avocado"	0	0	936	19
"08-28-2014"	"rule"	1	25	1	4	14	"banana"	1	1	597	13
"08-28-2014"	"rule"	1	25	1	4	15	"pasta and chocolate"	1	1	799	24
"08-28-2014"	"rule"	1	25	1	4	16	"mushrooms"	0	0	701	5
"08-28-2014"	"rule"	1	25	1	4	17	"cheese and garlic"	0	0	818	3
"08-28-2014"	"rule"	1	25	1	4	18	"cheese"	0	1	674	1
"08-28-2014"	"rule"	1	25	1	4	19	"peanuts"	1	0	367	20
"08-28-2014"	"rule"	1	25	1	4	20	"banana"	0	1	455	13
"08-28-2014"	"rule"	1	25	1	4	21	"olive oil and coffee"	1	1	817	12
"08-28-2014"	"rule"	1	25	1	4	22	"olive oil"	1	0	1055	10
"08-28-2014"	"rule"	1	25	1	4	23	"seafood"	0	1	652	7
"08-28-2014"	"rule"	1	25	1	4	24	"milk"	1	0	944	4
"08-28-2014"	"rule"	1	25	1	4	25	"cheese"	0	1	608	1
"08-28-2014"	"rule"	1	25	1	4	26	"olive oil"	1	0	459	10
"08-28-2014"	"rule"	1	25	1	4	27	"garlic"	0	1	760	2
"08-28-2014"	"rule"	1	25	1	4	28	"seafood and red meat"	1	0	1143	9
"08-28-2014"	"rule"	1	25	1	4	29	"milk and mushrooms"	0	1	321	6
"08-28-2014"	"rule"	1	25	1	4	30	"coffee"	0	0	1010	11
"08-28-2014"	"rule"	1	25	1	4	31	"coffee"	0	0	458	11
"08-28-2014"	"rule"	1	25	1	4	32	"seafood"	1	1	1396	7
"08-28-2014"	"rule"	1	25	1	4	33	"orange squash and bread"	0	0	716	18
"08-28-2014"	"rule"	1	25	1	4	34	"avocado"	0	0	1363	19
"08-28-2014"	"rule"	1	25	1	4	35	"red meat"	0	1	810	8
"08-28-2014"	"rule"	1	25	1	4	36	"pasta and chocolate"	1	1	605	24
"08-28-2014"	"rule"	1	25	1	5	1	"banana"	1	1	1551	13
"08-28-2014"	"rule"	1	25	1	5	2	"mushrooms"	0	0	777	5
"08-28-2014"	"rule"	1	25	1	5	3	"milk"	0	0	587	4
"08-28-2014"	"rule"	1	25	1	5	4	"seafood"	1	1	1536	7
"08-28-2014"	"rule"	1	25	1	5	5	"eggs"	1	1	491	14
"08-28-2014"	"rule"	1	25	1	5	6	"olive oil"	0	0	673	10
"08-28-2014"	"rule"	1	25	1	5	7	"garlic"	0	1	633	2
"08-28-2014"	"rule"	1	25	1	5	8	"eggs"	0	1	373	14
"08-28-2014"	"rule"	1	25	1	5	9	"coffee"	1	0	813	11
"08-28-2014"	"rule"	1	25	1	5	10	"cheese and garlic"	0	0	599	3
"08-28-2014"	"rule"	1	25	1	5	11	"avocado"	0	0	952	19
"08-28-2014"	"rule"	1	25	1	5	12	"seafood and red meat"	1	0	1479	9
"08-28-2014"	"rule"	1	25	1	5	13	"orange squash and bread"	0	0	560	18
"08-28-2014"	"rule"	1	25	1	5	14	"milk and mushrooms"	1	1	1527	6
"08-28-2014"	"rule"	1	25	1	5	15	"cheese and garlic"	0	0	660	3
"08-28-2014"	"rule"	1	25	1	5	16	"seafood and red meat"	1	0	756	9
"08-28-2014"	"rule"	1	25	1	5	17	"banana"	0	1	799	13
"08-28-2014"	"rule"	1	25	1	5	18	"cheese"	1	1	672	1
"08-28-2014"	"rule"	1	25	1	5	19	"avocado"	0	0	944	19
"08-28-2014"	"rule"	1	25	1	5	20	"coffee"	0	0	546	11
"08-28-2014"	"rule"	1	25	1	5	21	"orange squash and bread"	0	0	762	18
"08-28-2014"	"rule"	1	25	1	5	22	"seafood"	0	1	467	7
"08-28-2014"	"rule"	1	25	1	5	23	"olive oil and coffee"	1	1	927	12
"08-28-2014"	"rule"	1	25	1	5	24	"olive oil"	1	0	831	10
"08-28-2014"	"rule"	1	25	1	5	25	"milk"	0	0	780	4
"08-28-2014"	"rule"	1	25	1	5	26	"red meat"	0	1	1172	8
"08-28-2014"	"rule"	1	25	1	5	27	"garlic"	0	1	822	2
"08-28-2014"	"rule"	1	25	1	5	28	"pasta and chocolate"	1	1	575	24
"08-28-2014"	"rule"	1	25	1	5	29	"peanuts"	0	0	798	20
"08-28-2014"	"rule"	1	25	1	5	30	"milk and mushrooms"	1	1	1490	6
"08-28-2014"	"rule"	1	25	1	5	31	"olive oil and coffee"	1	1	807	12
"08-28-2014"	"rule"	1	25	1	5	32	"red meat"	1	1	631	8
"08-28-2014"	"rule"	1	25	1	5	33	"cheese"	1	1	593	1
"08-28-2014"	"rule"	1	25	1	5	34	"mushrooms"	0	0	864	5
"08-28-2014"	"rule"	1	25	1	5	35	"peanuts"	0	0	565	20
"08-28-2014"	"rule"	1	25	1	5	36	"pasta and chocolate"	1	1	704	24
"08-28-2014"	"rule"	1	25	1	6	1	"olive oil and coffee"	1	1	813	12
"08-28-2014"	"rule"	1	25	1	6	2	"milk"	0	0	654	4
"08-28-2014"	"rule"	1	25	1	6	3	"milk"	0	0	964	4
"08-28-2014"	"rule"	1	25	1	6	4	"cheese and garlic"	0	0	826	3
"08-28-2014"	"rule"	1	25	1	6	5	"avocado"	0	0	593	19
"08-28-2014"	"rule"	1	25	1	6	6	"eggs"	0	1	723	14
"08-28-2014"	"rule"	1	25	1	6	7	"olive oil"	0	0	981	10
"08-28-2014"	"rule"	1	25	1	6	8	"garlic"	0	1	601	2
"08-28-2014"	"rule"	1	25	1	6	9	"cheese"	0	1	824	1
"08-28-2014"	"rule"	1	25	1	6	10	"seafood and red meat"	1	0	1721	9
"08-28-2014"	"rule"	1	25	1	6	11	"seafood"	0	1	420	7
"08-28-2014"	"rule"	1	25	1	6	12	"cheese and garlic"	1	0	1089	3
"08-28-2014"	"rule"	1	25	1	6	13	"eggs"	0	1	843	14
"08-28-2014"	"rule"	1	25	1	6	14	"mushrooms"	0	0	1313	5
"08-28-2014"	"rule"	1	25	1	6	15	"red meat"	0	1	931	8
"08-28-2014"	"rule"	1	25	1	6	16	"orange squash and bread"	0	0	852	18
"08-28-2014"	"rule"	1	25	1	6	17	"pasta and chocolate"	1	1	782	24
"08-28-2014"	"rule"	1	25	1	6	18	"peanuts"	0	0	658	20
"08-28-2014"	"rule"	1	25	1	6	19	"banana"	0	1	856	13
"08-28-2014"	"rule"	1	25	1	6	20	"olive oil and coffee"	1	1	970	12
"08-28-2014"	"rule"	1	25	1	6	21	"pasta and chocolate"	1	1	627	24
"08-28-2014"	"rule"	1	25	1	6	22	"cheese"	0	1	739	1
"08-28-2014"	"rule"	1	25	1	6	23	"coffee"	1	0	815	11
"08-28-2014"	"rule"	1	25	1	6	24	"peanuts"	0	0	650	20
"08-28-2014"	"rule"	1	25	1	6	25	"milk and mushrooms"	0	1	1288	6
"08-28-2014"	"rule"	1	25	1	6	26	"milk and mushrooms"	1	1	585	6
"08-28-2014"	"rule"	1	25	1	6	27	"seafood"	0	1	1066	7
"08-28-2014"	"rule"	1	25	1	6	28	"garlic"	1	1	590	2
"08-28-2014"	"rule"	1	25	1	6	29	"olive oil"	0	0	658	10
"08-28-2014"	"rule"	1	25	1	6	30	"orange squash and bread"	0	0	644	18
"08-28-2014"	"rule"	1	25	1	6	31	"red meat"	0	1	424	8
"08-28-2014"	"rule"	1	25	1	6	32	"mushrooms"	0	0	961	5
"08-28-2014"	"rule"	1	25	1	6	33	"avocado"	0	0	565	19
"08-28-2014"	"rule"	1	25	1	6	34	"banana"	0	1	578	13
"08-28-2014"	"rule"	1	25	1	6	35	"seafood and red meat"	1	0	1039	9
"08-28-2014"	"rule"	1	25	1	6	36	"coffee"	0	0	578	11
"08-28-2014"	"rule"	1	25	2	7	1	"bread"	1	1	2023	17
"08-28-2014"	"rule"	1	25	2	7	2	"avocado and peanuts"	1	1	701	21
"08-28-2014"	"rule"	1	25	2	7	3	"pasta"	0	0	453	22
"08-28-2014"	"rule"	1	25	2	7	4	"banana and eggs"	0	0	1057	15
"08-28-2014"	"rule"	1	25	2	7	5	"garlic"	0	1	708	2
"08-28-2014"	"rule"	1	25	2	7	6	"olive oil"	0	0	746	10
"08-28-2014"	"rule"	1	25	2	7	7	"chocolate"	1	0	948	23
"08-28-2014"	"rule"	1	25	2	7	8	"seafood"	1	1	570	7
"08-28-2014"	"rule"	1	25	2	7	9	"pasta"	0	0	428	22
"08-28-2014"	"rule"	1	25	2	7	10	"orange squash"	0	1	926	16
"08-28-2014"	"rule"	1	25	2	7	11	"peanuts"	0	0	717	20
"08-28-2014"	"rule"	1	25	2	7	12	"red meat"	0	1	484	8
"08-28-2014"	"rule"	1	25	2	7	13	"bread"	1	1	492	17
"08-28-2014"	"rule"	1	25	2	7	14	"olive oil and coffee"	0	1	453	12
"08-28-2014"	"rule"	1	25	2	7	15	"milk"	0	0	426	4
"08-28-2014"	"rule"	1	25	2	7	16	"avocado"	0	0	577	19
"08-28-2014"	"rule"	1	25	2	7	17	"chocolate"	0	0	456	23
"08-28-2014"	"rule"	1	25	2	7	18	"banana"	1	1	770	13
"08-28-2014"	"rule"	1	25	2	7	19	"mushrooms"	0	0	431	5
"08-28-2014"	"rule"	1	25	2	7	20	"banana and eggs"	0	0	535	15
"08-28-2014"	"rule"	1	25	2	7	21	"eggs"	0	1	476	14
"08-28-2014"	"rule"	1	25	2	7	22	"orange squash"	1	1	731	16
"08-28-2014"	"rule"	1	25	2	7	23	"coffee"	1	0	1208	11
"08-28-2014"	"rule"	1	25	2	7	24	"avocado and peanuts"	0	1	754	21
"08-28-2014"	"rule"	1	25	2	7	25	"cheese and garlic"	0	0	541	3
"08-28-2014"	"rule"	1	25	2	7	26	"milk and mushrooms"	0	1	496	6
"08-28-2014"	"rule"	1	25	2	7	27	"cheese"	1	1	623	1
"08-28-2014"	"rule"	1	25	2	7	28	"orange squash and bread"	0	0	925	18
"08-28-2014"	"rule"	1	25	2	7	29	"pasta and chocolate"	0	1	562	24
"08-28-2014"	"rule"	1	25	2	7	30	"seafood and red meat"	1	0	660	9
"08-28-2014"	"rule"	1	25	2	8	1	"olive oil and coffee"	1	1	1677	12
"08-28-2014"	"rule"	1	25	2	8	2	"coffee"	0	0	748	11
"08-28-2014"	"rule"	1	25	2	8	3	"mushrooms"	0	0	886	5
"08-28-2014"	"rule"	1	25	2	8	4	"chocolate"	0	0	481	23
"08-28-2014"	"rule"	1	25	2	8	5	"bread"	0	1	498	17
"08-28-2014"	"rule"	1	25	2	8	6	"avocado and peanuts"	0	1	710	21
"08-28-2014"	"rule"	1	25	2	8	7	"cheese and garlic"	1	0	624	3
"08-28-2014"	"rule"	1	25	2	8	8	"seafood and red meat"	1	0	849	9
"08-28-2014"	"rule"	1	25	2	8	9	"chocolate"	0	0	811	23
"08-28-2014"	"rule"	1	25	2	8	10	"orange squash and bread"	0	0	400	18
"08-28-2014"	"rule"	1	25	2	8	11	"orange squash"	0	1	679	16
"08-28-2014"	"rule"	1	25	2	8	12	"milk and mushrooms"	0	1	414	6
"08-28-2014"	"rule"	1	25	2	8	13	"banana and eggs"	1	0	863	15
"08-28-2014"	"rule"	1	25	2	8	14	"peanuts"	1	0	456	20
"08-28-2014"	"rule"	1	25	2	8	15	"bread"	0	1	277	17
"08-28-2014"	"rule"	1	25	2	8	16	"avocado and peanuts"	0	1	426	21
"08-28-2014"	"rule"	1	25	2	8	17	"eggs"	0	1	682	14
"08-28-2014"	"rule"	1	25	2	8	18	"banana and eggs"	1	0	570	15
"08-28-2014"	"rule"	1	25	2	8	19	"pasta"	0	0	454	22
"08-28-2014"	"rule"	1	25	2	8	20	"pasta"	0	0	716	22
"08-28-2014"	"rule"	1	25	2	8	21	"seafood"	0	1	375	7
"08-28-2014"	"rule"	1	25	2	8	22	"garlic"	1	1	460	2
"08-28-2014"	"rule"	1	25	2	8	23	"cheese"	1	1	656	1
"08-28-2014"	"rule"	1	25	2	8	24	"red meat"	0	1	384	8
"08-28-2014"	"rule"	1	25	2	8	25	"olive oil"	1	0	436	10
"08-28-2014"	"rule"	1	25	2	8	26	"milk"	0	0	687	4
"08-28-2014"	"rule"	1	25	2	8	27	"pasta and chocolate"	1	1	644	24
"08-28-2014"	"rule"	1	25	2	8	28	"orange squash"	0	1	325	16
"08-28-2014"	"rule"	1	25	2	8	29	"avocado"	1	0	528	19
"08-28-2014"	"rule"	1	25	2	8	30	"banana"	0	1	413	13
"08-28-2014"	"rule"	1	25	2	9	1	"seafood"	1	1	1698	7
"08-28-2014"	"rule"	1	25	2	9	2	"banana and eggs"	0	0	382	15
"08-28-2014"	"rule"	1	25	2	9	3	"pasta"	0	0	380	22
"08-28-2014"	"rule"	1	25	2	9	4	"peanuts"	0	0	895	20
"08-28-2014"	"rule"	1	25	2	9	5	"avocado and peanuts"	0	1	529	21
"08-28-2014"	"rule"	1	25	2	9	6	"bread"	0	1	328	17
"08-28-2014"	"rule"	1	25	2	9	7	"garlic"	0	1	673	2
"08-28-2014"	"rule"	1	25	2	9	8	"milk and mushrooms"	0	1	389	6
"08-28-2014"	"rule"	1	25	2	9	9	"cheese and garlic"	1	0	647	3
"08-28-2014"	"rule"	1	25	2	9	10	"mushrooms"	0	0	768	5
"08-28-2014"	"rule"	1	25	2	9	11	"red meat"	0	1	466	8
"08-28-2014"	"rule"	1	25	2	9	12	"eggs"	0	1	644	14
"08-28-2014"	"rule"	1	25	2	9	13	"chocolate"	0	0	480	23
"08-28-2014"	"rule"	1	25	2	9	14	"pasta and chocolate"	1	1	666	24
"08-28-2014"	"rule"	1	25	2	9	15	"avocado and peanuts"	0	1	707	21
"08-28-2014"	"rule"	1	25	2	9	16	"banana"	1	1	469	13
"08-28-2014"	"rule"	1	25	2	9	17	"orange squash"	1	1	508	16
"08-28-2014"	"rule"	1	25	2	9	18	"milk"	0	0	262	4
"08-28-2014"	"rule"	1	25	2	9	19	"coffee"	0	0	554	11
"08-28-2014"	"rule"	1	25	2	9	20	"orange squash and bread"	0	0	537	18
"08-28-2014"	"rule"	1	25	2	9	21	"chocolate"	0	0	294	23
"08-28-2014"	"rule"	1	25	2	9	22	"orange squash"	0	1	443	16
"08-28-2014"	"rule"	1	25	2	9	23	"olive oil and coffee"	1	1	1115	12
"08-28-2014"	"rule"	1	25	2	9	24	"banana and eggs"	0	0	660	15
"08-28-2014"	"rule"	1	25	2	9	25	"cheese"	1	1	503	1
"08-28-2014"	"rule"	1	25	2	9	26	"olive oil"	0	0	690	10
"08-28-2014"	"rule"	1	25	2	9	27	"seafood and red meat"	0	0	476	9
"08-28-2014"	"rule"	1	25	2	9	28	"avocado"	0	0	721	19
"08-28-2014"	"rule"	1	25	2	9	29	"pasta"	0	0	1254	22
"08-28-2014"	"rule"	1	25	2	9	30	"bread"	1	1	802	17
"08-28-2014"	"rule"	1	25	2	10	1	"cheese and garlic"	0	0	575	3
"08-28-2014"	"rule"	1	25	2	10	2	"orange squash"	0	1	614	16
"08-28-2014"	"rule"	1	25	2	10	3	"pasta"	0	0	501	22
"08-28-2014"	"rule"	1	25	2	10	4	"seafood and red meat"	1	0	719	9
"08-28-2014"	"rule"	1	25	2	10	5	"milk and mushrooms"	0	1	1028	6
"08-28-2014"	"rule"	1	25	2	10	6	"cheese"	1	1	523	1
"08-28-2014"	"rule"	1	25	2	10	7	"orange squash and bread"	0	0	451	18
"08-28-2014"	"rule"	1	25	2	10	8	"coffee"	0	0	392	11
"08-28-2014"	"rule"	1	25	2	10	9	"chocolate"	1	0	537	23
"08-28-2014"	"rule"	1	25	2	10	10	"banana and eggs"	0	0	582	15
"08-28-2014"	"rule"	1	25	2	10	11	"seafood"	0	1	498	7
"08-28-2014"	"rule"	1	25	2	10	12	"pasta and chocolate"	1	1	472	24
"08-28-2014"	"rule"	1	25	2	10	13	"mushrooms"	1	0	719	5
"08-28-2014"	"rule"	1	25	2	10	14	"avocado and peanuts"	0	1	761	21
"08-28-2014"	"rule"	1	25	2	10	15	"pasta"	0	0	631	22
"08-28-2014"	"rule"	1	25	2	10	16	"olive oil"	1	0	606	10
"08-28-2014"	"rule"	1	25	2	10	17	"peanuts"	0	0	599	20
"08-28-2014"	"rule"	1	25	2	10	18	"milk"	0	0	774	4
"08-28-2014"	"rule"	1	25	2	10	19	"garlic"	0	1	438	2
"08-28-2014"	"rule"	1	25	2	10	20	"olive oil and coffee"	0	1	1195	12
"08-28-2014"	"rule"	1	25	2	10	21	"chocolate"	0	0	466	23
"08-28-2014"	"rule"	1	25	2	10	22	"banana"	0	1	456	13
"08-28-2014"	"rule"	1	25	2	10	23	"avocado and peanuts"	0	1	2034	21
"08-28-2014"	"rule"	1	25	2	10	24	"avocado"	0	0	561	19
"08-28-2014"	"rule"	1	25	2	10	25	"orange squash"	0	1	352	16
"08-28-2014"	"rule"	1	25	2	10	26	"bread"	0	1	381	17
"08-28-2014"	"rule"	1	25	2	10	27	"red meat"	0	1	774	8
"08-28-2014"	"rule"	1	25	2	10	28	"banana and eggs"	1	0	859	15
"08-28-2014"	"rule"	1	25	2	10	29	"bread"	0	1	1026	17
"08-28-2014"	"rule"	1	25	2	10	30	"eggs"	0	1	449	14
"09-15-2014"	"rule"	1	30	1	1	1	"orange squash and bread"	-1	0	0	18
"09-15-2014"	"rule"	1	30	1	1	2	"red meat"	0	1	1476	8
"09-15-2014"	"rule"	1	30	1	1	3	"red meat"	1	1	1303	8
"09-15-2014"	"rule"	1	30	1	1	4	"cheese and garlic"	0	0	1450	3
"09-15-2014"	"rule"	1	30	1	1	5	"avocado"	1	0	1427	19
"09-15-2014"	"rule"	1	30	1	1	6	"pasta and chocolate"	0	1	1404	24
"09-15-2014"	"rule"	1	30	1	1	7	"peanuts"	0	0	1171	20
"09-15-2014"	"rule"	1	30	1	1	8	"olive oil"	1	0	844	10
"09-15-2014"	"rule"	1	30	1	1	9	"seafood and red meat"	0	0	1395	9
"09-15-2014"	"rule"	1	30	1	1	10	"milk"	0	0	990	4
"09-15-2014"	"rule"	1	30	1	1	11	"coffee"	1	0	802	11
"09-15-2014"	"rule"	1	30	1	1	12	"peanuts"	1	0	1209	20
"09-15-2014"	"rule"	1	30	1	1	13	"banana"	1	1	1160	13
"09-15-2014"	"rule"	1	30	1	1	14	"olive oil and coffee"	0	1	972	12
"09-15-2014"	"rule"	1	30	1	1	15	"cheese"	0	1	877	1
"09-15-2014"	"rule"	1	30	1	1	16	"banana"	0	1	813	13
"09-15-2014"	"rule"	1	30	1	1	17	"coffee"	0	0	980	11
"09-15-2014"	"rule"	1	30	1	1	18	"avocado"	1	0	821	19
"09-15-2014"	"rule"	1	30	1	1	19	"seafood and red meat"	0	0	1191	9
"09-15-2014"	"rule"	1	30	1	1	20	"milk and mushrooms"	1	1	1567	6
"09-15-2014"	"rule"	1	30	1	1	21	"cheese and garlic"	0	0	844	3
"09-15-2014"	"rule"	1	30	1	1	22	"pasta and chocolate"	0	1	1168	24
"09-15-2014"	"rule"	1	30	1	1	23	"cheese"	1	1	813	1
"09-15-2014"	"rule"	1	30	1	1	24	"seafood"	0	1	803	7
"09-15-2014"	"rule"	1	30	1	1	25	"milk"	1	0	719	4
"09-15-2014"	"rule"	1	30	1	1	26	"garlic"	1	1	681	2
"09-15-2014"	"rule"	1	30	1	1	27	"seafood"	0	1	282	7
"09-15-2014"	"rule"	1	30	1	1	28	"mushrooms"	1	0	478	5
"09-15-2014"	"rule"	1	30	1	1	29	"orange squash and bread"	0	0	433	18
"09-15-2014"	"rule"	1	30	1	1	30	"garlic"	0	1	1263	2
"09-15-2014"	"rule"	1	30	1	1	31	"milk and mushrooms"	0	1	812	6
"09-15-2014"	"rule"	1	30	1	1	32	"eggs"	0	1	999	14
"09-15-2014"	"rule"	1	30	1	1	33	"mushrooms"	1	0	1290	5
"09-15-2014"	"rule"	1	30	1	1	34	"olive oil and coffee"	0	1	1692	12
"09-15-2014"	"rule"	1	30	1	1	35	"eggs"	1	1	1378	14
"09-15-2014"	"rule"	1	30	1	1	36	"olive oil"	1	0	1116	10
"09-15-2014"	"rule"	1	30	1	2	1	"mushrooms"	0	0	2109	5
"09-15-2014"	"rule"	1	30	1	2	2	"cheese"	1	1	1513	1
"09-15-2014"	"rule"	1	30	1	2	3	"mushrooms"	0	0	757	5
"09-15-2014"	"rule"	1	30	1	2	4	"milk and mushrooms"	1	1	1595	6
"09-15-2014"	"rule"	1	30	1	2	5	"olive oil"	0	0	1428	10
"09-15-2014"	"rule"	1	30	1	2	6	"garlic"	1	1	1191	2
"09-15-2014"	"rule"	1	30	1	2	7	"cheese and garlic"	1	0	1223	3
"09-15-2014"	"rule"	1	30	1	2	8	"eggs"	0	1	1270	14
"09-15-2014"	"rule"	1	30	1	2	9	"pasta and chocolate"	1	1	1598	24
"09-15-2014"	"rule"	1	30	1	2	10	"milk and mushrooms"	0	1	2219	6
"09-15-2014"	"rule"	1	30	1	2	11	"cheese and garlic"	1	0	1364	3
"09-15-2014"	"rule"	1	30	1	2	12	"banana"	1	1	1084	13
"09-15-2014"	"rule"	1	30	1	2	13	"coffee"	0	0	1263	11
"09-15-2014"	"rule"	1	30	1	2	14	"seafood"	0	1	1166	7
"09-15-2014"	"rule"	1	30	1	2	15	"avocado"	1	0	913	19
"09-15-2014"	"rule"	1	30	1	2	16	"milk"	0	0	1192	4
"09-15-2014"	"rule"	1	30	1	2	17	"seafood"	1	1	937	7
"09-15-2014"	"rule"	1	30	1	2	18	"avocado"	0	0	1168	19
"09-15-2014"	"rule"	1	30	1	2	19	"coffee"	0	0	1312	11
"09-15-2014"	"rule"	1	30	1	2	20	"eggs"	0	1	1352	14
"09-15-2014"	"rule"	1	30	1	2	21	"cheese"	1	1	894	1
"09-15-2014"	"rule"	1	30	1	2	22	"peanuts"	1	0	1516	20
"09-15-2014"	"rule"	1	30	1	2	23	"pasta and chocolate"	1	1	1668	24
"09-15-2014"	"rule"	1	30	1	2	24	"olive oil and coffee"	1	1	1646	12
"09-15-2014"	"rule"	1	30	1	2	25	"peanuts"	1	0	1662	20
"09-15-2014"	"rule"	1	30	1	2	26	"seafood and red meat"	1	0	1871	9
"09-15-2014"	"rule"	1	30	1	2	27	"seafood and red meat"	0	0	1076	9
"09-15-2014"	"rule"	1	30	1	2	28	"olive oil"	0	0	1598	10
"09-15-2014"	"rule"	1	30	1	2	29	"orange squash and bread"	1	0	1612	18
"09-15-2014"	"rule"	1	30	1	2	30	"milk"	0	0	1585	4
"09-15-2014"	"rule"	1	30	1	2	31	"red meat"	1	1	1329	8
"09-15-2014"	"rule"	1	30	1	2	32	"banana"	1	1	963	13
"09-15-2014"	"rule"	1	30	1	2	33	"red meat"	1	1	1082	8
"09-15-2014"	"rule"	1	30	1	2	34	"olive oil and coffee"	0	1	1020	12
"09-15-2014"	"rule"	1	30	1	2	35	"orange squash and bread"	1	0	945	18
"09-15-2014"	"rule"	1	30	1	2	36	"garlic"	1	1	1424	2
"09-15-2014"	"rule"	1	30	1	3	1	"olive oil"	1	0	1400	10
"09-15-2014"	"rule"	1	30	1	3	2	"milk and mushrooms"	1	1	1540	6
"09-15-2014"	"rule"	1	30	1	3	3	"avocado"	0	0	1055	19
"09-15-2014"	"rule"	1	30	1	3	4	"red meat"	1	1	886	8
"09-15-2014"	"rule"	1	30	1	3	5	"cheese and garlic"	1	0	1350	3
"09-15-2014"	"rule"	1	30	1	3	6	"olive oil and coffee"	1	1	1243	12
"09-15-2014"	"rule"	1	30	1	3	7	"milk and mushrooms"	0	1	1071	6
"09-15-2014"	"rule"	1	30	1	3	8	"mushrooms"	1	0	1472	5
"09-15-2014"	"rule"	1	30	1	3	9	"garlic"	1	1	1365	2
"09-15-2014"	"rule"	1	30	1	3	10	"seafood"	0	1	1096	7
"09-15-2014"	"rule"	1	30	1	3	11	"banana"	0	1	1228	13
"09-15-2014"	"rule"	1	30	1	3	12	"peanuts"	0	0	106	20
"09-15-2014"	"rule"	1	30	1	3	13	"olive oil and coffee"	1	1	1469	12
"09-15-2014"	"rule"	1	30	1	3	14	"pasta and chocolate"	1	1	1665	24
"09-15-2014"	"rule"	1	30	1	3	15	"orange squash and bread"	0	0	1103	18
"09-15-2014"	"rule"	1	30	1	3	16	"milk"	0	0	1845	4
"09-15-2014"	"rule"	1	30	1	3	17	"garlic"	1	1	1228	2
"09-15-2014"	"rule"	1	30	1	3	18	"orange squash and bread"	0	0	836	18
"09-15-2014"	"rule"	1	30	1	3	19	"coffee"	1	0	1165	11
"09-15-2014"	"rule"	1	30	1	3	20	"eggs"	1	1	1331	14
"09-15-2014"	"rule"	1	30	1	3	21	"red meat"	1	1	1184	8
"09-15-2014"	"rule"	1	30	1	3	22	"cheese and garlic"	1	0	1831	3
"09-15-2014"	"rule"	1	30	1	3	23	"seafood"	1	1	1071	7
"09-15-2014"	"rule"	1	30	1	3	24	"seafood and red meat"	0	0	917	9
"09-15-2014"	"rule"	1	30	1	3	25	"eggs"	0	1	1121	14
"09-15-2014"	"rule"	1	30	1	3	26	"milk"	0	0	1737	4
"09-15-2014"	"rule"	1	30	1	3	27	"avocado"	1	0	985	19
"09-15-2014"	"rule"	1	30	1	3	28	"seafood and red meat"	1	0	1532	9
"09-15-2014"	"rule"	1	30	1	3	29	"coffee"	0	0	1574	11
"09-15-2014"	"rule"	1	30	1	3	30	"peanuts"	0	0	1168	20
"09-15-2014"	"rule"	1	30	1	3	31	"cheese"	0	1	1762	1
"09-15-2014"	"rule"	1	30	1	3	32	"olive oil"	1	0	1930	10
"09-15-2014"	"rule"	1	30	1	3	33	"cheese"	1	1	1364	1
"09-15-2014"	"rule"	1	30	1	3	34	"banana"	1	1	952	13
"09-15-2014"	"rule"	1	30	1	3	35	"pasta and chocolate"	0	1	1649	24
"09-15-2014"	"rule"	1	30	1	3	36	"mushrooms"	1	0	971	5
"09-15-2014"	"rule"	1	30	1	4	1	"mushrooms"	0	0	2225	5
"09-15-2014"	"rule"	1	30	1	4	2	"avocado"	0	0	759	19
"09-15-2014"	"rule"	1	30	1	4	3	"seafood and red meat"	0	0	1287	9
"09-15-2014"	"rule"	1	30	1	4	4	"red meat"	1	1	1719	8
"09-15-2014"	"rule"	1	30	1	4	5	"avocado"	0	0	1041	19
"09-15-2014"	"rule"	1	30	1	4	6	"eggs"	0	1	1516	14
"09-15-2014"	"rule"	1	30	1	4	7	"coffee"	0	0	1237	11
"09-15-2014"	"rule"	1	30	1	4	8	"pasta and chocolate"	0	1	1689	24
"09-15-2014"	"rule"	1	30	1	4	9	"banana"	1	1	1383	13
"09-15-2014"	"rule"	1	30	1	4	10	"milk and mushrooms"	1	1	1282	6
"09-15-2014"	"rule"	1	30	1	4	11	"olive oil and coffee"	0	1	1236	12
"09-15-2014"	"rule"	1	30	1	4	12	"mushrooms"	1	0	959	5
"09-15-2014"	"rule"	1	30	1	4	13	"milk"	0	0	1651	4
"09-15-2014"	"rule"	1	30	1	4	14	"garlic"	0	1	992	2
"09-15-2014"	"rule"	1	30	1	4	15	"seafood"	0	1	1780	7
"09-15-2014"	"rule"	1	30	1	4	16	"cheese"	1	1	1078	1
"09-15-2014"	"rule"	1	30	1	4	17	"olive oil"	0	0	835	10
"09-15-2014"	"rule"	1	30	1	4	18	"cheese and garlic"	1	0	1330	3
"09-15-2014"	"rule"	1	30	1	4	19	"coffee"	0	0	1023	11
"09-15-2014"	"rule"	1	30	1	4	20	"cheese and garlic"	1	0	1195	3
"09-15-2014"	"rule"	1	30	1	4	21	"red meat"	1	1	1509	8
"09-15-2014"	"rule"	1	30	1	4	22	"eggs"	1	1	1419	14
"09-15-2014"	"rule"	1	30	1	4	23	"peanuts"	0	0	950	20
"09-15-2014"	"rule"	1	30	1	4	24	"olive oil and coffee"	0	1	1284	12
"09-15-2014"	"rule"	1	30	1	4	25	"garlic"	1	1	1552	2
"09-15-2014"	"rule"	1	30	1	4	26	"orange squash and bread"	0	0	1040	18
"09-15-2014"	"rule"	1	30	1	4	27	"cheese"	1	1	952	1
"09-15-2014"	"rule"	1	30	1	4	28	"milk and mushrooms"	1	1	1173	6
"09-15-2014"	"rule"	1	30	1	4	29	"milk"	1	0	1545	4
"09-15-2014"	"rule"	1	30	1	4	30	"seafood"	1	1	1035	7
"09-15-2014"	"rule"	1	30	1	4	31	"orange squash and bread"	0	0	1030	18
"09-15-2014"	"rule"	1	30	1	4	32	"seafood and red meat"	1	0	1218	9
"09-15-2014"	"rule"	1	30	1	4	33	"peanuts"	0	0	790	20
"09-15-2014"	"rule"	1	30	1	4	34	"olive oil"	0	0	832	10
"09-15-2014"	"rule"	1	30	1	4	35	"banana"	1	1	916	13
"09-15-2014"	"rule"	1	30	1	4	36	"pasta and chocolate"	1	1	1781	24
"09-15-2014"	"rule"	1	30	1	5	1	"cheese and garlic"	0	0	1845	3
"09-15-2014"	"rule"	1	30	1	5	2	"milk"	1	0	871	4
"09-15-2014"	"rule"	1	30	1	5	3	"cheese"	1	1	1038	1
"09-15-2014"	"rule"	1	30	1	5	4	"orange squash and bread"	0	0	807	18
"09-15-2014"	"rule"	1	30	1	5	5	"avocado"	0	0	802	19
"09-15-2014"	"rule"	1	30	1	5	6	"peanuts"	0	0	991	20
"09-15-2014"	"rule"	1	30	1	5	7	"olive oil and coffee"	0	1	976	12
"09-15-2014"	"rule"	1	30	1	5	8	"garlic"	1	1	1614	2
"09-15-2014"	"rule"	1	30	1	5	9	"seafood and red meat"	0	0	1029	9
"09-15-2014"	"rule"	1	30	1	5	10	"eggs"	1	1	1173	14
"09-15-2014"	"rule"	1	30	1	5	11	"coffee"	0	0	937	11
"09-15-2014"	"rule"	1	30	1	5	12	"seafood"	0	1	22	7
"09-15-2014"	"rule"	1	30	1	5	13	"mushrooms"	0	0	1029	5
"09-15-2014"	"rule"	1	30	1	5	14	"milk and mushrooms"	0	1	19	6
"09-15-2014"	"rule"	1	30	1	5	15	"banana"	1	1	945	13
"09-15-2014"	"rule"	1	30	1	5	16	"cheese and garlic"	1	0	946	3
"09-15-2014"	"rule"	1	30	1	5	17	"eggs"	0	1	830	14
"09-15-2014"	"rule"	1	30	1	5	18	"mushrooms"	0	0	859	5
"09-15-2014"	"rule"	1	30	1	5	19	"peanuts"	0	0	780	20
"09-15-2014"	"rule"	1	30	1	5	20	"avocado"	0	0	575	19
"09-15-2014"	"rule"	1	30	1	5	21	"coffee"	0	0	530	11
"09-15-2014"	"rule"	1	30	1	5	22	"banana"	1	1	728	13
"09-15-2014"	"rule"	1	30	1	5	23	"olive oil"	0	0	703	10
"09-15-2014"	"rule"	1	30	1	5	24	"seafood"	0	1	851	7
"09-15-2014"	"rule"	1	30	1	5	25	"pasta and chocolate"	0	1	1766	24
"09-15-2014"	"rule"	1	30	1	5	26	"orange squash and bread"	0	0	724	18
"09-15-2014"	"rule"	1	30	1	5	27	"seafood and red meat"	1	0	1144	9
"09-15-2014"	"rule"	1	30	1	5	28	"pasta and chocolate"	1	1	1337	24
"09-15-2014"	"rule"	1	30	1	5	29	"red meat"	0	1	965	8
"09-15-2014"	"rule"	1	30	1	5	30	"olive oil"	0	0	845	10
"09-15-2014"	"rule"	1	30	1	5	31	"cheese"	1	1	1827	1
"09-15-2014"	"rule"	1	30	1	5	32	"olive oil and coffee"	0	1	844	12
"09-15-2014"	"rule"	1	30	1	5	33	"garlic"	1	1	993	2
"09-15-2014"	"rule"	1	30	1	5	34	"red meat"	1	1	961	8
"09-15-2014"	"rule"	1	30	1	5	35	"milk"	0	0	1450	4
"09-15-2014"	"rule"	1	30	1	5	36	"milk and mushrooms"	1	1	1205	6
"09-15-2014"	"rule"	1	30	1	6	1	"seafood and red meat"	1	0	1759	9
"09-15-2014"	"rule"	1	30	1	6	2	"coffee"	0	0	925	11
"09-15-2014"	"rule"	1	30	1	6	3	"seafood"	1	1	992	7
"09-15-2014"	"rule"	1	30	1	6	4	"avocado"	0	0	675	19
"09-15-2014"	"rule"	1	30	1	6	5	"banana"	1	1	1061	13
"09-15-2014"	"rule"	1	30	1	6	6	"coffee"	0	0	1002	11
"09-15-2014"	"rule"	1	30	1	6	7	"milk"	0	0	1297	4
"09-15-2014"	"rule"	1	30	1	6	8	"eggs"	0	1	1282	14
"09-15-2014"	"rule"	1	30	1	6	9	"olive oil and coffee"	0	1	1489	12
"09-15-2014"	"rule"	1	30	1	6	10	"mushrooms"	1	0	1158	5
"09-15-2014"	"rule"	1	30	1	6	11	"cheese"	0	1	368	1
"09-15-2014"	"rule"	1	30	1	6	12	"cheese and garlic"	1	0	1422	3
"09-15-2014"	"rule"	1	30	1	6	13	"avocado"	0	0	621	19
"09-15-2014"	"rule"	1	30	1	6	14	"peanuts"	0	0	916	20
"09-15-2014"	"rule"	1	30	1	6	15	"milk and mushrooms"	0	1	1388	6
"09-15-2014"	"rule"	1	30	1	6	16	"seafood"	0	1	1245	7
"09-15-2014"	"rule"	1	30	1	6	17	"orange squash and bread"	0	0	794	18
"09-15-2014"	"rule"	1	30	1	6	18	"olive oil"	1	0	1233	10
"09-15-2014"	"rule"	1	30	1	6	19	"eggs"	1	1	982	14
"09-15-2014"	"rule"	1	30	1	6	20	"garlic"	1	1	1623	2
"09-15-2014"	"rule"	1	30	1	6	21	"olive oil and coffee"	1	1	1495	12
"09-15-2014"	"rule"	1	30	1	6	22	"olive oil"	0	0	1511	10
"09-15-2014"	"rule"	1	30	1	6	23	"pasta and chocolate"	0	1	1667	24
"09-15-2014"	"rule"	1	30	1	6	24	"garlic"	1	1	1073	2
"09-15-2014"	"rule"	1	30	1	6	25	"red meat"	0	1	1273	8
"09-15-2014"	"rule"	1	30	1	6	26	"milk and mushrooms"	1	1	1761	6
"09-15-2014"	"rule"	1	30	1	6	27	"banana"	1	1	929	13
"09-15-2014"	"rule"	1	30	1	6	28	"peanuts"	0	0	727	20
"09-15-2014"	"rule"	1	30	1	6	29	"seafood and red meat"	0	0	1057	9
"09-15-2014"	"rule"	1	30	1	6	30	"cheese and garlic"	1	0	1340	3
"09-15-2014"	"rule"	1	30	1	6	31	"milk"	0	0	1071	4
"09-15-2014"	"rule"	1	30	1	6	32	"red meat"	1	1	1051	8
"09-15-2014"	"rule"	1	30	1	6	33	"cheese"	0	1	1782	1
"09-15-2014"	"rule"	1	30	1	6	34	"pasta and chocolate"	1	1	1384	24
"09-15-2014"	"rule"	1	30	1	6	35	"orange squash and bread"	0	0	721	18
"09-15-2014"	"rule"	1	30	1	6	36	"mushrooms"	1	0	1050	5
"09-15-2014"	"rule"	1	30	2	7	1	"seafood and red meat"	1	0	1581	9
"09-15-2014"	"rule"	1	30	2	7	2	"pasta"	1	0	1360	22
"09-15-2014"	"rule"	1	30	2	7	3	"orange squash and bread"	0	0	760	18
"09-15-2014"	"rule"	1	30	2	7	4	"pasta and chocolate"	1	1	1349	24
"09-15-2014"	"rule"	1	30	2	7	5	"milk"	0	0	1018	4
"09-15-2014"	"rule"	1	30	2	7	6	"red meat"	1	1	1138	8
"09-15-2014"	"rule"	1	30	2	7	7	"chocolate"	1	0	1290	23
"09-15-2014"	"rule"	1	30	2	7	8	"avocado and peanuts"	1	1	1472	21
"09-15-2014"	"rule"	1	30	2	7	9	"banana and eggs"	1	0	1771	15
"09-15-2014"	"rule"	1	30	2	7	10	"garlic"	1	1	2012	2
"09-15-2014"	"rule"	1	30	2	7	11	"chocolate"	1	0	2122	23
"09-15-2014"	"rule"	1	30	2	7	12	"orange squash"	0	1	1085	16
"09-15-2014"	"rule"	1	30	2	7	13	"cheese"	1	1	1559	1
"09-15-2014"	"rule"	1	30	2	7	14	"bread"	0	1	1750	17
"09-15-2014"	"rule"	1	30	2	7	15	"olive oil and coffee"	0	1	1485	12
"09-15-2014"	"rule"	1	30	2	7	16	"peanuts"	0	0	890	20
"09-15-2014"	"rule"	1	30	2	7	17	"bread"	1	1	1708	17
"09-15-2014"	"rule"	1	30	2	7	18	"banana"	1	1	1194	13
"09-15-2014"	"rule"	1	30	2	7	19	"coffee"	0	0	787	11
"09-15-2014"	"rule"	1	30	2	7	20	"seafood"	0	1	1002	7
"09-15-2014"	"rule"	1	30	2	7	21	"orange squash"	1	1	1237	16
"09-15-2014"	"rule"	1	30	2	7	22	"milk and mushrooms"	0	1	1980	6
"09-15-2014"	"rule"	1	30	2	7	23	"mushrooms"	1	0	2023	5
"09-15-2014"	"rule"	1	30	2	7	24	"eggs"	1	1	999	14
"09-15-2014"	"rule"	1	30	2	7	25	"pasta"	1	0	1178	22
"09-15-2014"	"rule"	1	30	2	7	26	"avocado and peanuts"	1	1	1441	21
"09-15-2014"	"rule"	1	30	2	7	27	"olive oil"	0	0	893	10
"09-15-2014"	"rule"	1	30	2	7	28	"cheese and garlic"	1	0	1482	3
"09-15-2014"	"rule"	1	30	2	7	29	"avocado"	0	0	853	19
"09-15-2014"	"rule"	1	30	2	7	30	"banana and eggs"	1	0	1580	15
"09-15-2014"	"rule"	1	30	2	8	1	"cheese"	1	1	905	1
"09-15-2014"	"rule"	1	30	2	8	2	"red meat"	1	1	1082	8
"09-15-2014"	"rule"	1	30	2	8	3	"coffee"	0	0	1078	11
"09-15-2014"	"rule"	1	30	2	8	4	"milk and mushrooms"	0	1	2569	6
"09-15-2014"	"rule"	1	30	2	8	5	"pasta"	0	0	1907	22
"09-15-2014"	"rule"	1	30	2	8	6	"milk"	0	0	1274	4
"09-15-2014"	"rule"	1	30	2	8	7	"olive oil and coffee"	1	1	1233	12
"09-15-2014"	"rule"	1	30	2	8	8	"pasta and chocolate"	1	1	1737	24
"09-15-2014"	"rule"	1	30	2	8	9	"avocado and peanuts"	1	1	1481	21
"09-15-2014"	"rule"	1	30	2	8	10	"seafood"	0	1	1037	7
"09-15-2014"	"rule"	1	30	2	8	11	"orange squash"	1	1	1533	16
"09-15-2014"	"rule"	1	30	2	8	12	"chocolate"	0	0	2397	23
"09-15-2014"	"rule"	1	30	2	8	13	"chocolate"	0	0	1157	23
"09-15-2014"	"rule"	1	30	2	8	14	"peanuts"	0	0	1143	20
"09-15-2014"	"rule"	1	30	2	8	15	"orange squash and bread"	0	0	875	18
"09-15-2014"	"rule"	1	30	2	8	16	"bread"	1	1	856	17
"09-15-2014"	"rule"	1	30	2	8	17	"banana"	1	1	1020	13
"09-15-2014"	"rule"	1	30	2	8	18	"pasta"	0	0	1609	22
"09-15-2014"	"rule"	1	30	2	8	19	"banana and eggs"	1	0	1395	15
"09-15-2014"	"rule"	1	30	2	8	20	"olive oil"	0	0	848	10
"09-15-2014"	"rule"	1	30	2	8	21	"seafood and red meat"	1	0	1346	9
"09-15-2014"	"rule"	1	30	2	8	22	"avocado and peanuts"	1	1	1568	21
"09-15-2014"	"rule"	1	30	2	8	23	"orange squash"	1	1	1516	16
"09-15-2014"	"rule"	1	30	2	8	24	"banana and eggs"	1	0	1097	15
"09-15-2014"	"rule"	1	30	2	8	25	"eggs"	1	1	1336	14
"09-15-2014"	"rule"	1	30	2	8	26	"mushrooms"	1	0	936	5
"09-15-2014"	"rule"	1	30	2	8	27	"cheese and garlic"	1	0	1920	3
"09-15-2014"	"rule"	1	30	2	8	28	"garlic"	1	1	1182	2
"09-15-2014"	"rule"	1	30	2	8	29	"bread"	0	1	1304	17
"09-15-2014"	"rule"	1	30	2	8	30	"avocado"	0	0	907	19
"09-15-2014"	"rule"	1	30	2	9	1	"olive oil and coffee"	1	1	1244	12
"09-15-2014"	"rule"	1	30	2	9	2	"pasta"	1	0	1161	22
"09-15-2014"	"rule"	1	30	2	9	3	"seafood"	1	1	1133	7
"09-15-2014"	"rule"	1	30	2	9	4	"avocado"	0	0	692	19
"09-15-2014"	"rule"	1	30	2	9	5	"peanuts"	0	0	1068	20
"09-15-2014"	"rule"	1	30	2	9	6	"chocolate"	1	0	1089	23
"09-15-2014"	"rule"	1	30	2	9	7	"chocolate"	1	0	951	23
"09-15-2014"	"rule"	1	30	2	9	8	"banana"	1	1	880	13
"09-15-2014"	"rule"	1	30	2	9	9	"coffee"	0	0	1199	11
"09-15-2014"	"rule"	1	30	2	9	10	"seafood and red meat"	1	0	1210	9
"09-15-2014"	"rule"	1	30	2	9	11	"pasta"	1	0	852	22
"09-15-2014"	"rule"	1	30	2	9	12	"avocado and peanuts"	1	1	1467	21
"09-15-2014"	"rule"	1	30	2	9	13	"milk"	0	0	1299	4
"09-15-2014"	"rule"	1	30	2	9	14	"bread"	1	1	1365	17
"09-15-2014"	"rule"	1	30	2	9	15	"bread"	1	1	763	17
"09-15-2014"	"rule"	1	30	2	9	16	"cheese"	1	1	935	1
"09-15-2014"	"rule"	1	30	2	9	17	"orange squash"	0	1	699	16
"09-15-2014"	"rule"	1	30	2	9	18	"orange squash"	1	1	900	16
"09-15-2014"	"rule"	1	30	2	9	19	"pasta and chocolate"	1	1	1160	24
"09-15-2014"	"rule"	1	30	2	9	20	"garlic"	1	1	1355	2
"09-15-2014"	"rule"	1	30	2	9	21	"banana and eggs"	1	0	1790	15
"09-15-2014"	"rule"	1	30	2	9	22	"avocado and peanuts"	1	1	1309	21
"09-15-2014"	"rule"	1	30	2	9	23	"cheese and garlic"	1	0	1537	3
"09-15-2014"	"rule"	1	30	2	9	24	"eggs"	1	1	1485	14
"09-15-2014"	"rule"	1	30	2	9	25	"mushrooms"	1	0	1131	5
"09-15-2014"	"rule"	1	30	2	9	26	"banana and eggs"	1	0	1124	15
"09-15-2014"	"rule"	1	30	2	9	27	"orange squash and bread"	0	0	941	18
"09-15-2014"	"rule"	1	30	2	9	28	"red meat"	1	1	1153	8
"09-15-2014"	"rule"	1	30	2	9	29	"milk and mushrooms"	1	1	2131	6
"09-15-2014"	"rule"	1	30	2	9	30	"olive oil"	0	0	1066	10
"09-15-2014"	"rule"	1	30	2	10	1	"mushrooms"	0	0	2988	5
"09-15-2014"	"rule"	1	30	2	10	2	"cheese"	1	1	923	1
"09-15-2014"	"rule"	1	30	2	10	3	"banana and eggs"	0	0	1721	15
"09-15-2014"	"rule"	1	30	2	10	4	"bread"	0	1	1474	17
"09-15-2014"	"rule"	1	30	2	10	5	"red meat"	1	1	986	8
"09-15-2014"	"rule"	1	30	2	10	6	"pasta"	1	0	1206	22
"09-15-2014"	"rule"	1	30	2	10	7	"seafood and red meat"	0	0	1106	9
"09-15-2014"	"rule"	1	30	2	10	8	"cheese and garlic"	1	0	909	3
"09-15-2014"	"rule"	1	30	2	10	9	"banana and eggs"	1	0	1239	15
"09-15-2014"	"rule"	1	30	2	10	10	"chocolate"	0	0	997	23
"09-15-2014"	"rule"	1	30	2	10	11	"seafood"	0	1	933	7
"09-15-2014"	"rule"	1	30	2	10	12	"orange squash"	1	1	1012	16
"09-15-2014"	"rule"	1	30	2	10	13	"banana"	1	1	1306	13
"09-15-2014"	"rule"	1	30	2	10	14	"pasta and chocolate"	1	1	1264	24
"09-15-2014"	"rule"	1	30	2	10	15	"coffee"	0	0	931	11
"09-15-2014"	"rule"	1	30	2	10	16	"avocado and peanuts"	1	1	1257	21
"09-15-2014"	"rule"	1	30	2	10	17	"pasta"	1	0	1258	22
"09-15-2014"	"rule"	1	30	2	10	18	"orange squash and bread"	0	0	939	18
"09-15-2014"	"rule"	1	30	2	10	19	"avocado"	0	0	775	19
"09-15-2014"	"rule"	1	30	2	10	20	"orange squash"	1	1	1109	16
"09-15-2014"	"rule"	1	30	2	10	21	"chocolate"	1	0	1270	23
"09-15-2014"	"rule"	1	30	2	10	22	"avocado and peanuts"	1	1	1480	21
"09-15-2014"	"rule"	1	30	2	10	23	"olive oil and coffee"	1	1	1222	12
"09-15-2014"	"rule"	1	30	2	10	24	"milk"	0	0	1724	4
"09-15-2014"	"rule"	1	30	2	10	25	"garlic"	1	1	1358	2
"09-15-2014"	"rule"	1	30	2	10	26	"peanuts"	0	0	985	20
"09-15-2014"	"rule"	1	30	2	10	27	"milk and mushrooms"	1	1	1240	6
"09-15-2014"	"rule"	1	30	2	10	28	"eggs"	1	1	1219	14
"09-15-2014"	"rule"	1	30	2	10	29	"olive oil"	0	0	721	10
"09-15-2014"	"rule"	1	30	2	10	30	"bread"	1	1	1129	17
"09-17-2014"	"rule"	1	39	1	1	1	"milk"	-1	0	0	4
"09-17-2014"	"rule"	1	39	1	1	2	"banana"	0	1	1473	13
"09-17-2014"	"rule"	1	39	1	1	3	"cheese"	1	1	1823	1
"09-17-2014"	"rule"	1	39	1	1	4	"mushrooms"	1	0	1337	5
"09-17-2014"	"rule"	1	39	1	1	5	"eggs"	0	1	1506	14
"09-17-2014"	"rule"	1	39	1	1	6	"milk and mushrooms"	1	1	1743	6
"09-17-2014"	"rule"	1	39	1	1	7	"olive oil and coffee"	1	1	2124	12
"09-17-2014"	"rule"	1	39	1	1	8	"cheese"	1	1	2073	1
"09-17-2014"	"rule"	1	39	1	1	9	"avocado"	0	0	1301	19
"09-17-2014"	"rule"	1	39	1	1	10	"seafood"	0	1	1533	7
"09-17-2014"	"rule"	1	39	1	1	11	"pasta and chocolate"	1	1	2095	24
"09-17-2014"	"rule"	1	39	1	1	12	"mushrooms"	1	0	1883	5
"09-17-2014"	"rule"	1	39	1	1	13	"cheese and garlic"	0	0	1303	3
"09-17-2014"	"rule"	1	39	1	1	14	"olive oil and coffee"	0	1	1878	12
"09-17-2014"	"rule"	1	39	1	1	15	"orange squash and bread"	1	0	1682	18
"09-17-2014"	"rule"	1	39	1	1	16	"orange squash and bread"	0	0	1793	18
"09-17-2014"	"rule"	1	39	1	1	17	"seafood and red meat"	0	0	1915	9
"09-17-2014"	"rule"	1	39	1	1	18	"garlic"	1	1	1703	2
"09-17-2014"	"rule"	1	39	1	1	19	"coffee"	1	0	1059	11
"09-17-2014"	"rule"	1	39	1	1	20	"red meat"	1	1	1361	8
"09-17-2014"	"rule"	1	39	1	1	21	"eggs"	0	1	1075	14
"09-17-2014"	"rule"	1	39	1	1	22	"cheese and garlic"	1	0	1959	3
"09-17-2014"	"rule"	1	39	1	1	23	"peanuts"	0	0	1423	20
"09-17-2014"	"rule"	1	39	1	1	24	"milk"	1	0	1859	4
"09-17-2014"	"rule"	1	39	1	1	25	"olive oil"	1	0	1297	10
"09-17-2014"	"rule"	1	39	1	1	26	"red meat"	1	1	1439	8
"09-17-2014"	"rule"	1	39	1	1	27	"coffee"	0	0	1886	11
"09-17-2014"	"rule"	1	39	1	1	28	"peanuts"	0	0	1339	20
"09-17-2014"	"rule"	1	39	1	1	29	"garlic"	0	1	1655	2
"09-17-2014"	"rule"	1	39	1	1	30	"avocado"	0	0	2226	19
"09-17-2014"	"rule"	1	39	1	1	31	"seafood"	0	1	1598	7
"09-17-2014"	"rule"	1	39	1	1	32	"banana"	1	1	1180	13
"09-17-2014"	"rule"	1	39	1	1	33	"pasta and chocolate"	1	1	1977	24
"09-17-2014"	"rule"	1	39	1	1	34	"seafood and red meat"	0	0	1343	9
"09-17-2014"	"rule"	1	39	1	1	35	"olive oil"	0	0	1263	10
"09-17-2014"	"rule"	1	39	1	1	36	"milk and mushrooms"	0	1	1369	6
"09-17-2014"	"rule"	1	39	1	2	1	"peanuts"	0	0	1415	20
"09-17-2014"	"rule"	1	39	1	2	2	"banana"	1	1	1079	13
"09-17-2014"	"rule"	1	39	1	2	3	"mushrooms"	0	0	1018	5
"09-17-2014"	"rule"	1	39	1	2	4	"cheese and garlic"	1	0	2343	3
"09-17-2014"	"rule"	1	39	1	2	5	"orange squash and bread"	0	0	2007	18
"09-17-2014"	"rule"	1	39	1	2	6	"olive oil and coffee"	0	1	1150	12
"09-17-2014"	"rule"	1	39	1	2	7	"garlic"	1	1	1625	2
"09-17-2014"	"rule"	1	39	1	2	8	"pasta and chocolate"	0	1	2140	24
"09-17-2014"	"rule"	1	39	1	2	9	"seafood"	0	1	1211	7
"09-17-2014"	"rule"	1	39	1	2	10	"eggs"	1	1	1247	14
"09-17-2014"	"rule"	1	39	1	2	11	"coffee"	1	0	1654	11
"09-17-2014"	"rule"	1	39	1	2	12	"cheese"	0	1	2049	1
"09-17-2014"	"rule"	1	39	1	2	13	"milk and mushrooms"	1	1	1267	6
"09-17-2014"	"rule"	1	39	1	2	14	"milk"	1	0	982	4
"09-17-2014"	"rule"	1	39	1	2	15	"cheese"	0	1	1152	1
"09-17-2014"	"rule"	1	39	1	2	16	"mushrooms"	1	0	2267	5
"09-17-2014"	"rule"	1	39	1	2	17	"orange squash and bread"	1	0	1409	18
"09-17-2014"	"rule"	1	39	1	2	18	"olive oil and coffee"	0	1	1086	12
"09-17-2014"	"rule"	1	39	1	2	19	"eggs"	0	1	1307	14
"09-17-2014"	"rule"	1	39	1	2	20	"red meat"	1	1	1295	8
"09-17-2014"	"rule"	1	39	1	2	21	"avocado"	1	0	1948	19
"09-17-2014"	"rule"	1	39	1	2	22	"seafood"	1	1	1981	7
"09-17-2014"	"rule"	1	39	1	2	23	"olive oil"	1	0	1753	10
"09-17-2014"	"rule"	1	39	1	2	24	"red meat"	1	1	1684	8
"09-17-2014"	"rule"	1	39	1	2	25	"cheese and garlic"	0	0	1313	3
"09-17-2014"	"rule"	1	39	1	2	26	"banana"	0	1	2234	13
"09-17-2014"	"rule"	1	39	1	2	27	"pasta and chocolate"	1	1	2177	24
"09-17-2014"	"rule"	1	39	1	2	28	"milk and mushrooms"	1	1	2327	6
"09-17-2014"	"rule"	1	39	1	2	29	"peanuts"	1	0	2287	20
"09-17-2014"	"rule"	1	39	1	2	30	"seafood and red meat"	0	0	2758	9
"09-17-2014"	"rule"	1	39	1	2	31	"coffee"	0	0	2041	11
"09-17-2014"	"rule"	1	39	1	2	32	"garlic"	0	1	1871	2
"09-17-2014"	"rule"	1	39	1	2	33	"olive oil"	1	0	2129	10
"09-17-2014"	"rule"	1	39	1	2	34	"milk"	0	0	2066	4
"09-17-2014"	"rule"	1	39	1	2	35	"seafood and red meat"	0	0	2509	9
"09-17-2014"	"rule"	1	39	1	2	36	"avocado"	0	0	2511	19
"09-17-2014"	"rule"	1	39	1	3	1	"avocado"	1	0	2357	19
"09-17-2014"	"rule"	1	39	1	3	2	"cheese"	1	1	1070	1
"09-17-2014"	"rule"	1	39	1	3	3	"peanuts"	1	0	1248	20
"09-17-2014"	"rule"	1	39	1	3	4	"seafood"	0	1	1360	7
