"cond"	"subj"	"yoke"	"phase"	"block"	"trial"	"s1"	"s2"	"s3"	"s4"	"s5"	"resp"	"rt"	"correct"
"single"	1	0	1	1	1	0	2	0	0	0	"A"	6.480312	"N"
"single"	1	0	1	1	2	0	2	0	0	0	"B"	1.098594	"Y"
"single"	1	0	1	1	3	0	2	0	0	0	"B"	0.9296875	"Y"
"single"	1	0	1	1	4	0	1	0	0	0	"A"	0.9309375	"Y"
"single"	1	0	1	1	5	0	1	0	0	0	"A"	0.66	"Y"
"single"	1	0	1	1	6	0	1	0	0	0	"A"	0.77	"Y"
"single"	1	0	1	1	7	0	2	0	0	0	"B"	0.9292188	"Y"
"single"	1	0	1	1	8	0	1	0	0	0	"A"	0.6504688	"Y"
"single"	1	0	1	1	9	0	2	0	0	0	"B"	0.4890625	"Y"
"single"	1	0	1	1	10	0	2	0	0	0	"B"	0.4395312	"Y"
"single"	1	0	1	1	11	0	1	0	0	0	"A"	0.5007812	"Y"
"single"	1	0	1	1	12	0	2	0	0	0	"B"	0.3803125	"Y"
"single"	1	0	1	1	13	0	1	0	0	0	"A"	0.6101562	"Y"
"single"	1	0	1	1	14	0	1	0	0	0	"A"	0.498125	"Y"
"single"	1	0	1	1	15	0	2	0	0	0	"B"	0.4882813	"Y"
"single"	1	0	1	1	16	0	2	0	0	0	"B"	0.5495312	"Y"
"single"	1	0	1	1	17	0	2	0	0	0	"B"	0.4414063	"Y"
"single"	1	0	1	1	18	0	2	0	0	0	"B"	0.4401563	"Y"
"single"	1	0	1	1	19	0	1	0	0	0	"A"	0.550625	"Y"
"single"	1	0	1	1	20	0	1	0	0	0	"A"	0.6	"Y"
"single"	1	0	1	1	21	0	1	0	0	0	"A"	0.489375	"Y"
"single"	1	0	1	1	22	0	1	0	0	0	"A"	0.4998437	"Y"
"single"	1	0	1	1	23	0	2	0	0	0	"B"	0.3285938	"Y"
"single"	1	0	1	1	24	0	2	0	0	0	"B"	0.5992187	"Y"
"single"	1	0	1	1	25	0	1	0	0	0	"A"	0.4385937	"Y"
"single"	1	0	1	1	26	0	1	0	0	0	"A"	0.5998437	"Y"
"single"	1	0	1	1	27	0	2	0	0	0	"B"	0.3309375	"Y"
"single"	1	0	1	1	28	0	1	0	0	0	"A"	0.4398437	"Y"
"single"	1	0	1	1	29	0	2	0	0	0	"B"	0.7110937	"Y"
"single"	1	0	1	1	30	0	2	0	0	0	"B"	0.5496875	"Y"
"single"	1	0	1	1	31	0	1	0	0	0	"A"	0.6584375	"Y"
"single"	1	0	1	1	32	0	1	0	0	0	"A"	0.5509375	"Y"
"single"	1	0	1	2	1	0	2	0	0	0	"B"	2.578281	"Y"
"single"	1	0	1	2	2	0	1	0	0	0	"A"	0.6089063	"Y"
"single"	1	0	1	2	3	0	2	0	0	0	"B"	0.4982812	"Y"
"single"	1	0	1	2	4	0	2	0	0	0	"B"	0.4909375	"Y"
"single"	1	0	1	2	5	0	2	0	0	0	"B"	0.4414063	"Y"
"single"	1	0	1	2	6	0	1	0	0	0	"A"	0.4409375	"Y"
"single"	1	0	1	2	7	0	1	0	0	0	"A"	0.5482813	"Y"
"single"	1	0	1	2	8	0	1	0	0	0	"A"	0.3801562	"Y"
"single"	1	0	1	2	9	0	1	0	0	0	"A"	0.3782812	"Y"
"single"	1	0	1	2	10	0	1	0	0	0	"A"	0.548125	"Y"
"single"	1	0	1	2	11	0	2	0	0	0	"B"	0.72	"Y"
"single"	1	0	1	2	12	0	1	0	0	0	"A"	2.300781	"Y"
"single"	1	0	1	2	13	0	2	0	0	0	"B"	1.59875	"Y"
"single"	1	0	1	2	14	0	2	0	0	0	"B"	0.4898438	"Y"
"single"	1	0	1	2	15	0	2	0	0	0	"B"	0.5010937	"Y"
"single"	1	0	1	2	16	0	2	0	0	0	"B"	0.4390625	"Y"
"single"	1	0	1	2	17	0	1	0	0	0	"A"	0.6103125	"Y"
"single"	1	0	1	2	18	0	2	0	0	0	"B"	0.4396875	"Y"
"single"	1	0	1	2	19	0	2	0	0	0	"B"	0.3784375	"Y"
"single"	1	0	1	2	20	0	1	0	0	0	"A"	0.4982812	"Y"
"single"	1	0	1	2	21	0	2	0	0	0	"B"	0.5984375	"Y"
"single"	1	0	1	2	22	0	1	0	0	0	"A"	1.049531	"Y"
"single"	1	0	1	2	23	0	1	0	0	0	"A"	0.5514063	"Y"
"single"	1	0	1	2	24	0	1	0	0	0	"A"	0.549375	"Y"
"single"	1	0	1	2	25	0	2	0	0	0	"B"	0.39125	"Y"
"single"	1	0	1	2	26	0	2	0	0	0	"B"	0.329375	"Y"
"single"	1	0	1	2	27	0	1	0	0	0	"A"	0.49	"Y"
"single"	1	0	1	2	28	0	2	0	0	0	"B"	0.65875	"Y"
"single"	1	0	1	2	29	0	2	0	0	0	"B"	0.55125	"Y"
"single"	1	0	1	2	30	0	1	0	0	0	"A"	0.5992187	"Y"
"single"	1	0	1	2	31	0	1	0	0	0	"A"	0.5385938	"Y"
"single"	1	0	1	2	32	0	1	0	0	0	"A"	0.4990625	"Y"
"single"	1	0	1	3	1	0	0	0	2	0	"B"	2.740625	"Y"
"single"	1	0	1	3	2	0	0	0	1	0	"B"	1.039375	"N"
"single"	1	0	1	3	3	0	0	0	2	0	"B"	1.809062	"Y"
"single"	1	0	1	3	4	0	0	0	2	0	"B"	3.571406	"Y"
"single"	1	0	1	3	5	0	0	0	2	0	"B"	0.5998437	"Y"
"single"	1	0	1	3	6	0	0	0	1	0	"A"	0.5492188	"Y"
"single"	1	0	1	3	7	0	0	0	1	0	"B"	0.6610938	"N"
"single"	1	0	1	3	8	0	0	0	1	0	"B"	0.8796875	"N"
"single"	1	0	1	3	9	0	0	0	1	0	"A"	0.7695313	"Y"
"single"	1	0	1	3	10	0	0	0	1	0	"A"	0.65875	"Y"
"single"	1	0	1	3	11	0	0	0	2	0	"B"	0.55125	"Y"
"single"	1	0	1	3	12	0	0	0	1	0	"A"	0.49	"Y"
"single"	1	0	1	3	13	0	0	0	2	0	"B"	0.49125	"Y"
"single"	1	0	1	3	14	0	0	0	2	0	"B"	0.77	"Y"
"single"	1	0	1	3	15	0	0	0	2	0	"B"	0.7692187	"Y"
"single"	1	0	1	3	16	0	0	0	2	0	"B"	0.5984375	"Y"
"single"	1	0	1	3	17	0	0	0	1	0	"A"	0.6609375	"Y"
"single"	1	0	1	3	18	0	0	0	2	0	"B"	0.6595312	"Y"
"single"	1	0	1	3	19	0	0	0	2	0	"B"	0.548125	"Y"
"single"	1	0	1	3	20	0	0	0	1	0	"A"	0.5982813	"Y"
"single"	1	0	1	3	21	0	0	0	2	0	"B"	0.549375	"Y"
"single"	1	0	1	3	22	0	0	0	1	0	"A"	0.39125	"Y"
"single"	1	0	1	3	23	0	0	0	1	0	"A"	0.659375	"Y"
"single"	1	0	1	3	24	0	0	0	1	0	"A"	0.611875	"Y"
"single"	1	0	1	3	25	0	0	0	2	0	"B"	0.66125	"Y"
"single"	1	0	1	3	26	0	0	0	2	0	"B"	0.4398437	"Y"
"single"	1	0	1	3	27	0	0	0	1	0	"A"	0.6010938	"Y"
"single"	1	0	1	3	28	0	0	0	2	0	"B"	0.6090625	"Y"
"single"	1	0	1	3	29	0	0	0	2	0	"B"	0.4884375	"Y"
"single"	1	0	1	3	30	0	0	0	1	0	"A"	0.6089063	"Y"
"single"	1	0	1	3	31	0	0	0	1	0	"A"	0.6590625	"Y"
"single"	1	0	1	3	32	0	0	0	1	0	"A"	1.101563	"Y"
"single"	1	0	1	4	1	0	0	0	2	0	"B"	4.560469	"Y"
"single"	1	0	1	4	2	0	0	0	1	0	"A"	0.648125	"Y"
"single"	1	0	1	4	3	0	0	0	2	0	"B"	0.490625	"Y"
"single"	1	0	1	4	4	0	0	0	2	0	"B"	0.6110938	"Y"
"single"	1	0	1	4	5	0	0	0	2	0	"B"	0.7690625	"Y"
"single"	1	0	1	4	6	0	0	0	1	0	"A"	0.8204687	"Y"
"single"	1	0	1	4	7	0	0	0	1	0	"B"	0.6589062	"N"
"single"	1	0	1	4	8	0	0	0	1	0	"A"	0.9414063	"Y"
"single"	1	0	1	4	9	0	0	0	1	0	"A"	0.72125	"Y"
"single"	1	0	1	4	10	0	0	0	1	0	"A"	0.758125	"Y"
"single"	1	0	1	4	11	0	0	0	2	0	"B"	0.6098437	"Y"
"single"	1	0	1	4	12	0	0	0	1	0	"A"	1.209219	"Y"
"single"	1	0	1	4	13	0	0	0	2	0	"B"	0.6601563	"Y"
"single"	1	0	1	4	14	0	0	0	2	0	"B"	0.6009375	"Y"
"single"	1	0	1	4	15	0	0	0	2	0	"A"	1.158125	"N"
"single"	1	0	1	4	16	0	0	0	2	0	"B"	1.260625	"Y"
"single"	1	0	1	4	17	0	0	0	1	0	"A"	0.6615625	"Y"
"single"	1	0	1	4	18	0	0	0	2	0	"B"	1.481562	"Y"
"single"	1	0	1	4	19	0	0	0	2	0	"B"	0.7198437	"Y"
"single"	1	0	1	4	20	0	0	0	1	0	"A"	0.7098438	"Y"
"single"	1	0	1	4	21	0	0	0	2	0	"B"	0.6598437	"Y"
"single"	1	0	1	4	22	0	0	0	1	0	"A"	0.5984375	"Y"
"single"	1	0	1	4	23	0	0	0	1	0	"A"	0.7695313	"Y"
"single"	1	0	1	4	24	0	0	0	1	0	"A"	0.8195313	"Y"
"single"	1	0	1	4	25	0	0	0	2	0	"B"	0.7101563	"Y"
"single"	1	0	1	4	26	0	0	0	2	0	"B"	0.54875	"Y"
"single"	1	0	1	4	27	0	0	0	1	0	"A"	0.820625	"Y"
"single"	1	0	1	4	28	0	0	0	2	0	"B"	0.4998437	"Y"
"single"	1	0	1	4	29	0	0	0	2	0	"B"	0.5985938	"Y"
"single"	1	0	1	4	30	0	0	0	1	0	"A"	0.5496875	"Y"
"single"	1	0	1	4	31	0	0	0	1	0	"B"	0.5998437	"N"
"single"	1	0	1	4	32	0	0	0	1	0	"A"	1.210938	"Y"
"single"	1	0	1	5	1	0	0	0	2	0	"B"	3.56875	"Y"
"single"	1	0	1	5	2	0	0	0	1	0	"A"	1.920313	"Y"
"single"	1	0	1	5	3	0	0	0	2	0	"B"	0.769375	"Y"
"single"	1	0	1	5	4	0	0	0	2	0	"B"	0.7085937	"Y"
"single"	1	0	1	5	5	0	0	0	2	0	"B"	0.5503125	"Y"
"single"	1	0	1	5	6	0	0	0	1	0	"A"	0.5504687	"Y"
"single"	1	0	1	5	7	0	0	0	1	0	"A"	1.050938	"Y"
"single"	1	0	1	5	8	0	0	0	1	0	"A"	0.9889063	"Y"
"single"	1	0	1	5	9	0	0	0	1	0	"A"	0.551875	"Y"
"single"	1	0	1	5	10	0	0	0	1	0	"A"	0.548125	"Y"
"single"	1	0	1	5	11	0	0	0	2	0	"B"	0.66	"Y"
"single"	1	0	1	5	12	0	0	0	1	0	"B"	0.5985938	"N"
"single"	1	0	1	5	13	0	0	0	2	0	"B"	1.481875	"Y"
"single"	1	0	1	5	14	0	0	0	2	0	"B"	1.100156	"Y"
"single"	1	0	1	5	15	0	0	0	2	0	"B"	0.61125	"Y"
"single"	1	0	1	5	16	0	0	0	2	0	"B"	0.990625	"Y"
"single"	1	0	1	5	17	0	0	0	1	0	"A"	0.5510938	"Y"
"single"	1	0	1	5	18	0	0	0	2	0	"B"	0.5404688	"Y"
"single"	1	0	1	5	19	0	0	0	2	0	"B"	0.6584375	"Y"
"single"	1	0	1	5	20	0	0	0	1	0	"A"	0.8801563	"Y"
"single"	1	0	1	5	21	0	0	0	2	0	"B"	0.72	"Y"
"single"	1	0	1	5	22	0	0	0	1	0	"A"	0.82	"Y"
"single"	1	0	1	5	23	0	0	0	1	0	"A"	0.6592187	"Y"
"single"	1	0	1	5	24	0	0	0	1	0	"A"	0.7217187	"Y"
"single"	1	0	1	5	25	0	0	0	2	0	"B"	0.6603125	"Y"
"single"	1	0	1	5	26	0	0	0	2	0	"B"	1.041094	"Y"
"single"	1	0	1	5	27	0	0	0	1	0	"A"	0.6582813	"Y"
"single"	1	0	1	5	28	0	0	0	2	0	"B"	0.61	"Y"
"single"	1	0	1	5	29	0	0	0	2	0	"B"	0.819375	"Y"
"single"	1	0	1	5	30	0	0	0	1	0	"A"	0.6117188	"Y"
"single"	1	0	1	5	31	0	0	0	1	0	"A"	0.6610938	"Y"
"single"	1	0	1	5	32	0	0	0	1	0	"A"	0.6610938	"Y"
"single"	1	0	1	6	1	0	0	0	2	0	"B"	5.66	"Y"
"single"	1	0	1	6	2	0	0	0	1	0	"A"	0.8310937	"Y"
"single"	1	0	1	6	3	0	0	0	2	0	"B"	0.9917188	"Y"
"single"	1	0	1	6	4	0	0	0	2	0	"B"	0.4982812	"Y"
"single"	1	0	1	6	5	0	0	0	2	0	"B"	3.569531	"Y"
"single"	1	0	1	6	6	0	0	0	1	0	"A"	0.661875	"Y"
"single"	1	0	1	6	7	0	0	0	1	0	"A"	1.41875	"Y"
"single"	1	0	1	6	8	0	0	0	1	0	"A"	0.6617187	"Y"
"single"	1	0	1	6	9	0	0	0	1	0	"A"	0.4903125	"Y"
"single"	1	0	1	6	10	0	0	0	1	0	"A"	0.9282812	"Y"
"single"	1	0	1	6	11	0	0	0	2	0	"B"	0.6495312	"Y"
"single"	1	0	1	6	12	0	0	0	1	0	"A"	1.038125	"Y"
"single"	1	0	1	6	13	0	0	0	2	0	"B"	1.431719	"Y"
"single"	1	0	1	6	14	0	0	0	2	0	"B"	0.4882813	"Y"
"single"	1	0	1	6	15	0	0	0	2	0	"B"	0.54875	"Y"
"single"	1	0	1	6	16	0	0	0	2	0	"B"	0.4889063	"Y"
"single"	1	0	1	6	17	0	0	0	1	0	"A"	0.609375	"Y"
"single"	1	0	1	6	18	0	0	0	2	0	"B"	0.48875	"Y"
"single"	1	0	1	6	19	0	0	0	2	0	"B"	0.88	"Y"
"single"	1	0	1	6	20	0	0	0	1	0	"A"	0.820625	"Y"
"single"	1	0	1	6	21	0	0	0	2	0	"B"	0.5998437	"Y"
"single"	1	0	1	6	22	0	0	0	1	0	"A"	0.9917188	"Y"
"single"	1	0	1	6	23	0	0	0	1	0	"A"	3.399062	"Y"
"single"	1	0	1	6	24	0	0	0	1	0	"A"	0.989375	"Y"
"single"	1	0	1	6	25	0	0	0	2	0	"B"	0.66125	"Y"
"single"	1	0	1	6	26	0	0	0	2	0	"B"	0.7698438	"Y"
"single"	1	0	1	6	27	0	0	0	1	0	"A"	0.8290625	"Y"
"single"	1	0	1	6	28	0	0	0	2	0	"B"	0.9896875	"Y"
"single"	1	0	1	6	29	0	0	0	2	0	"B"	0.7701563	"Y"
"single"	1	0	1	6	30	0	0	0	1	0	"A"	0.709375	"Y"
"single"	1	0	1	6	31	0	0	0	1	0	"A"	0.539375	"Y"
"single"	1	0	1	6	32	0	0	0	1	0	"A"	0.66125	"Y"
"single"	1	0	1	7	1	0	0	2	0	0	"B"	3.130156	"Y"
"single"	1	0	1	7	2	0	0	1	0	0	"A"	1.040781	"Y"
"single"	1	0	1	7	3	0	0	2	0	0	"B"	0.6604688	"Y"
"single"	1	0	1	7	4	0	0	2	0	0	"B"	0.7698438	"Y"
"single"	1	0	1	7	5	0	0	2	0	0	"B"	0.4982812	"Y"
"single"	1	0	1	7	6	0	0	1	0	0	"A"	0.5484375	"Y"
"single"	1	0	1	7	7	0	0	1	0	0	"A"	1.099531	"Y"
"single"	1	0	1	7	8	0	0	1	0	0	"A"	0.720625	"Y"
"single"	1	0	1	7	9	0	0	1	0	0	"A"	0.770625	"Y"
"single"	1	0	1	7	10	0	0	1	0	0	"A"	0.6098437	"Y"
"single"	1	0	1	7	11	0	0	2	0	0	"B"	0.5492188	"Y"
"single"	1	0	1	7	12	0	0	1	0	0	"A"	0.6610938	"Y"
"single"	1	0	1	7	13	0	0	2	0	0	"B"	0.7096875	"Y"
"single"	1	0	1	7	14	0	0	2	0	0	"B"	0.5496875	"Y"
"single"	1	0	1	7	15	0	0	2	0	0	"B"	0.5515625	"Y"
"single"	1	0	1	7	16	0	0	2	0	0	"B"	0.5995312	"Y"
"single"	1	0	1	7	17	0	0	1	0	0	"A"	0.6589062	"Y"
"single"	1	0	1	7	18	0	0	2	0	0	"B"	0.6014063	"Y"
"single"	1	0	1	7	19	0	0	2	0	0	"B"	0.599375	"Y"
"single"	1	0	1	7	20	0	0	1	0	0	"A"	0.81875	"Y"
"single"	1	0	1	7	21	0	0	2	0	0	"B"	0.551875	"Y"
"single"	1	0	1	7	22	0	0	1	0	0	"A"	0.4398437	"Y"
"single"	1	0	1	7	23	0	0	1	0	0	"A"	0.6603125	"Y"
"single"	1	0	1	7	24	0	0	1	0	0	"A"	0.5510938	"Y"
"single"	1	0	1	7	25	0	0	2	0	0	"B"	0.7090625	"Y"
"single"	1	0	1	7	26	0	0	2	0	0	"B"	0.7707813	"Y"
"single"	1	0	1	7	27	0	0	1	0	0	"A"	0.66	"Y"
"single"	1	0	1	7	28	0	0	2	0	0	"B"	0.6007813	"Y"
"single"	1	0	1	7	29	0	0	2	0	0	"B"	0.611875	"Y"
"single"	1	0	1	7	30	0	0	1	0	0	"A"	0.49125	"Y"
"single"	1	0	1	7	31	0	0	1	0	0	"A"	0.65	"Y"
"single"	1	0	1	7	32	0	0	1	0	0	"A"	0.6610938	"Y"
"single"	1	0	1	8	1	2	0	0	0	0	"B"	2.35875	"Y"
"single"	1	0	1	8	2	1	0	0	0	0	"A"	0.7589062	"Y"
"single"	1	0	1	8	3	2	0	0	0	0	"B"	0.438125	"Y"
"single"	1	0	1	8	4	2	0	0	0	0	"B"	0.929375	"Y"
"single"	1	0	1	8	5	2	0	0	0	0	"B"	0.4898438	"Y"
"single"	1	0	1	8	6	1	0	0	0	0	"A"	0.4917187	"Y"
"single"	1	0	1	8	7	1	0	0	0	0	"A"	0.6096875	"Y"
"single"	1	0	1	8	8	1	0	0	0	0	"A"	0.4982812	"Y"
"single"	1	0	1	8	9	1	0	0	0	0	"A"	0.5509375	"Y"
"single"	1	0	1	8	10	1	0	0	0	0	"A"	0.5489063	"Y"
"single"	1	0	1	8	11	2	0	0	0	0	"B"	0.3907813	"Y"
"single"	1	0	1	8	12	1	0	0	0	0	"A"	1.258906	"Y"
"single"	1	0	1	8	13	2	0	0	0	0	"B"	0.598125	"Y"
"single"	1	0	1	8	14	2	0	0	0	0	"B"	0.3892187	"Y"
"single"	1	0	1	8	15	2	0	0	0	0	"B"	0.44125	"Y"
"single"	1	0	1	8	16	2	0	0	0	0	"B"	0.5985938	"Y"
"single"	1	0	1	8	17	1	0	0	0	0	"A"	0.711875	"Y"
"single"	1	0	1	8	18	2	0	0	0	0	"B"	0.6596875	"Y"
"single"	1	0	1	8	19	2	0	0	0	0	"B"	0.5490625	"Y"
"single"	1	0	1	8	20	1	0	0	0	0	"A"	1.040938	"Y"
"single"	1	0	1	8	21	2	0	0	0	0	"B"	0.7089062	"Y"
"single"	1	0	1	8	22	1	0	0	0	0	"A"	0.880625	"Y"
"single"	1	0	1	8	23	1	0	0	0	0	"A"	0.601875	"Y"
"single"	1	0	1	8	24	1	0	0	0	0	"A"	0.93125	"Y"
"single"	1	0	1	8	25	2	0	0	0	0	"B"	0.8203125	"Y"
"single"	1	0	1	8	26	2	0	0	0	0	"B"	1.040938	"Y"
"single"	1	0	1	8	27	1	0	0	0	0	"A"	1.760625	"Y"
"single"	1	0	1	8	28	2	0	0	0	0	"B"	0.7715625	"Y"
"single"	1	0	1	8	29	2	0	0	0	0	"B"	0.4882813	"Y"
"single"	1	0	1	8	30	1	0	0	0	0	"A"	0.7109375	"Y"
"single"	1	0	1	8	31	1	0	0	0	0	"A"	0.76875	"Y"
"single"	1	0	1	8	32	1	0	0	0	0	"A"	0.721875	"Y"
"single"	1	0	1	9	1	0	0	0	0	2	"B"	3.239531	"Y"
"single"	1	0	1	9	2	0	0	0	0	1	"A"	2.58	"Y"
"single"	1	0	1	9	3	0	0	0	0	2	"B"	1.038125	"Y"
"single"	1	0	1	9	4	0	0	0	0	2	"B"	0.6617187	"Y"
"single"	1	0	1	9	5	0	0	0	0	2	"B"	0.4885938	"Y"
"single"	1	0	1	9	6	0	0	0	0	1	"A"	0.6596875	"Y"
"single"	1	0	1	9	7	0	0	0	0	1	"A"	0.4389063	"Y"
"single"	1	0	1	9	8	0	0	0	0	1	"A"	0.6015625	"Y"
"single"	1	0	1	9	9	0	0	0	0	1	"A"	0.5501562	"Y"
"single"	1	0	1	9	10	0	0	0	0	1	"A"	0.5495312	"Y"
"single"	1	0	1	9	11	0	0	0	0	2	"B"	0.5514063	"Y"
"single"	1	0	1	9	12	0	0	0	0	1	"A"	0.8207812	"Y"
"single"	1	0	1	9	13	0	0	0	0	2	"B"	0.6	"Y"
"single"	1	0	1	9	14	0	0	0	0	2	"B"	0.601875	"Y"
"single"	1	0	1	9	15	0	0	0	0	2	"B"	0.4898438	"Y"
"single"	1	0	1	9	16	0	0	0	0	2	"B"	0.6585938	"Y"
"single"	1	0	1	9	17	0	0	0	0	1	"A"	0.8810937	"Y"
"single"	1	0	1	9	18	0	0	0	0	2	"B"	0.5501562	"Y"
"single"	1	0	1	9	19	0	0	0	0	2	"B"	0.6003125	"Y"
"single"	1	0	1	9	20	0	0	0	0	1	"A"	0.9289063	"Y"
"single"	1	0	1	9	21	0	0	0	0	2	"B"	0.709375	"Y"
"single"	1	0	1	9	22	0	0	0	0	1	"A"	0.8185937	"Y"
"single"	1	0	1	9	23	0	0	0	0	1	"A"	0.7684375	"Y"
"single"	1	0	1	9	24	0	0	0	0	1	"A"	0.7090625	"Y"
"single"	1	0	1	9	25	0	0	0	0	2	"B"	0.7707813	"Y"
"single"	1	0	1	9	26	0	0	0	0	2	"B"	0.5	"Y"
"single"	1	0	1	9	27	0	0	0	0	1	"A"	0.771875	"Y"
"single"	1	0	1	9	28	0	0	0	0	2	"B"	0.6585938	"Y"
"single"	1	0	1	9	29	0	0	0	0	2	"B"	0.9410937	"Y"
"single"	1	0	1	9	30	0	0	0	0	1	"A"	0.7715625	"Y"
"single"	1	0	1	9	31	0	0	0	0	1	"A"	1.050781	"Y"
"single"	1	0	1	9	32	0	0	0	0	1	"A"	2.470156	"Y"
"single"	1	0	2	1	1	2	2	1	2	1	"B"	4.949687	"Y"
"single"	1	0	2	1	2	2	1	1	1	2	"A"	0.7092187	"Y"
"single"	1	0	2	1	3	2	2	2	1	1	"B"	0.5984375	"Y"
"single"	1	0	2	1	4	2	1	1	2	2	"A"	1.311719	"N"
"single"	1	0	2	1	5	1	2	2	2	2	"B"	5.540156	"Y"
"single"	1	0	2	1	6	1	1	1	1	2	"B"	2.64125	"N"
"single"	1	0	2	1	7	1	2	1	1	2	"A"	2.148594	"Y"
"single"	1	0	2	1	8	1	2	1	2	1	"A"	1.758125	"Y"
"single"	1	0	2	1	9	2	2	1	1	1	"A"	0.8204687	"Y"
"single"	1	0	2	1	10	1	2	1	1	1	"A"	1.540313	"Y"
"single"	1	0	2	1	11	2	1	2	1	2	"B"	0.49	"Y"
"single"	1	0	2	1	12	1	1	2	1	2	"B"	0.65875	"N"
"single"	1	0	2	1	13	1	2	1	2	2	"A"	4.45125	"N"
"single"	1	0	2	1	14	2	2	1	2	2	"B"	0.7107813	"Y"
"single"	1	0	2	1	15	2	2	1	1	2	"A"	0.7107813	"N"
"single"	1	0	2	1	16	1	2	2	1	2	"A"	1.86	"N"
"single"	1	0	2	1	17	1	1	2	2	1	"A"	4.780781	"Y"
"single"	1	0	2	1	18	1	1	2	2	2	"A"	0.5482813	"N"
"single"	1	0	2	1	19	2	2	2	2	2	"B"	6.421563	"Y"
"single"	1	0	2	1	20	1	1	2	1	1	"A"	2.859844	"Y"
"single"	1	0	2	1	21	1	2	2	2	1	"B"	0.600625	"Y"
"single"	1	0	2	1	22	2	1	2	1	1	"A"	0.6592187	"Y"
"single"	1	0	2	1	23	1	2	2	1	1	"B"	0.7209375	"N"
"single"	1	0	2	1	24	1	1	1	1	1	"A"	5.280156	"Y"
"single"	1	0	2	1	25	2	1	2	2	2	"B"	0.8215625	"Y"
"single"	1	0	2	1	26	2	2	2	2	1	"A"	0.6482813	"N"
"single"	1	0	2	1	27	2	1	1	2	1	"A"	27.41	"Y"
"single"	1	0	2	1	28	2	2	2	1	2	"B"	6.148594	"Y"
"single"	1	0	2	1	29	2	1	2	2	1	"B"	6.700313	"Y"
"single"	1	0	2	1	30	1	1	1	2	2	"A"	7.47125	"Y"
"single"	1	0	2	1	31	2	1	1	1	1	"A"	3.571875	"Y"
"single"	1	0	2	1	32	1	1	1	2	1	"A"	4.890937	"Y"
"single"	1	0	2	2	1	1	1	2	2	1	"A"	7.360938	"Y"
"single"	1	0	2	2	2	2	1	2	2	1	"B"	5.001719	"Y"
"single"	1	0	2	2	3	1	1	2	2	2	"B"	5.499688	"Y"
"single"	1	0	2	2	4	1	1	1	1	1	"A"	4.499063	"Y"
"single"	1	0	2	2	5	1	2	2	1	2	"B"	6.431719	"Y"
"single"	1	0	2	2	6	1	2	1	2	1	"A"	4.938281	"Y"
"single"	1	0	2	2	7	1	2	1	1	1	"A"	3.680938	"Y"
"single"	1	0	2	2	8	2	1	1	2	1	"A"	3.841406	"Y"
"single"	1	0	2	2	9	2	1	2	2	2	"B"	5.990313	"Y"
"single"	1	0	2	2	10	1	2	2	2	2	"B"	2.860781	"Y"
"single"	1	0	2	2	11	2	2	2	2	1	"B"	5.059375	"Y"
"single"	1	0	2	2	12	1	1	2	1	2	"A"	2.419531	"Y"
"single"	1	0	2	2	13	2	2	2	2	2	"B"	4.060312	"Y"
"single"	1	0	2	2	14	1	1	1	2	1	"A"	3.301875	"Y"
"single"	1	0	2	2	15	2	1	2	1	1	"A"	3.459063	"Y"
"single"	1	0	2	2	16	1	2	2	1	1	"A"	3.408281	"Y"
"single"	1	0	2	2	17	2	2	1	1	1	"A"	3.900781	"Y"
"single"	1	0	2	2	18	2	2	1	1	2	"B"	3.838594	"Y"
"single"	1	0	2	2	19	2	1	1	1	2	"A"	5.061406	"Y"
"single"	1	0	2	2	20	1	2	1	2	2	"B"	5.221562	"Y"
"single"	1	0	2	2	21	2	2	1	2	1	"A"	3.350781	"N"
"single"	1	0	2	2	22	2	1	2	1	2	"B"	20.20938	"Y"
"single"	1	0	2	2	23	2	2	2	1	1	"B"	4.998594	"Y"
"single"	1	0	2	2	24	1	1	1	1	2	"A"	7.09125	"Y"
"single"	1	0	2	2	25	1	1	2	1	1	"A"	3.299375	"Y"
"single"	1	0	2	2	26	1	2	2	2	1	"B"	4.16875	"Y"
"single"	1	0	2	2	27	2	2	2	1	2	"B"	3.569531	"Y"
"single"	1	0	2	2	28	1	2	1	1	2	"A"	3.950156	"Y"
"single"	1	0	2	2	29	1	1	1	2	2	"A"	1.701094	"Y"
"single"	1	0	2	2	30	2	1	1	2	2	"B"	4.278125	"Y"
"single"	1	0	2	2	31	2	2	1	2	2	"B"	3.629531	"Y"
"single"	1	0	2	2	32	2	1	1	1	1	"A"	3.730781	"Y"
"single"	1	0	2	3	1	1	1	2	2	1	"A"	9.290156	"Y"
"single"	1	0	2	3	2	2	1	2	2	1	"B"	5.829062	"Y"
"single"	1	0	2	3	3	1	1	2	2	2	"B"	5.708906	"Y"
"single"	1	0	2	3	4	1	1	1	1	1	"A"	1.808125	"Y"
"single"	1	0	2	3	5	1	2	2	1	2	"B"	4.669687	"Y"
"single"	1	0	2	3	6	1	2	1	2	1	"A"	7.141094	"Y"
"single"	1	0	2	3	7	1	2	1	1	1	"A"	2.910625	"Y"
"single"	1	0	2	3	8	2	1	1	2	1	"A"	4.060625	"Y"
"single"	1	0	2	3	9	2	1	2	2	2	"B"	4.230781	"Y"
"single"	1	0	2	3	10	1	2	2	2	2	"B"	3.520469	"Y"
"single"	1	0	2	3	11	2	2	2	2	1	"B"	3.898906	"Y"
"single"	1	0	2	3	12	1	1	2	1	2	"A"	4.331406	"Y"
"single"	1	0	2	3	13	2	2	2	2	2	"B"	3.349531	"Y"
"single"	1	0	2	3	14	1	1	1	2	1	"A"	4.168125	"Y"
"single"	1	0	2	3	15	2	1	2	1	1	"A"	5.220313	"Y"
"single"	1	0	2	3	16	1	2	2	1	1	"A"	4.551719	"Y"
"single"	1	0	2	3	17	2	2	1	1	1	"A"	4.011094	"Y"
"single"	1	0	2	3	18	2	2	1	1	2	"B"	4.448125	"Y"
"single"	1	0	2	3	19	2	1	1	1	2	"A"	3.081563	"Y"
"single"	1	0	2	3	20	1	2	1	2	2	"B"	5.929688	"Y"
"single"	1	0	2	3	21	2	2	1	2	1	"B"	4.340156	"Y"
"single"	1	0	2	3	22	2	1	2	1	2	"B"	4.009062	"Y"
"single"	1	0	2	3	23	2	2	2	1	1	"B"	5.101406	"Y"
"single"	1	0	2	3	24	1	1	1	1	2	"A"	3.290781	"Y"
"single"	1	0	2	3	25	1	1	2	1	1	"A"	3.621875	"Y"
"single"	1	0	2	3	26	1	2	2	2	1	"B"	4.061719	"Y"
"single"	1	0	2	3	27	2	2	2	1	2	"B"	5.331875	"Y"
"single"	1	0	2	3	28	1	2	1	1	2	"A"	4.338594	"Y"
"single"	1	0	2	3	29	1	1	1	2	2	"A"	6.211406	"Y"
"single"	1	0	2	3	30	2	1	1	2	2	"B"	5.219219	"Y"
"single"	1	0	2	3	31	2	2	1	2	2	"B"	4.89	"Y"
"single"	1	0	2	3	32	2	1	1	1	1	"A"	3.63125	"Y"
"single"	1	0	2	4	1	1	1	2	2	1	"B"	29.44062	"N"
"single"	1	0	2	4	2	2	1	2	2	1	"B"	14.92937	"Y"
"single"	1	0	2	4	3	1	1	2	2	2	"B"	14.50062	"Y"
"single"	1	0	2	4	4	1	1	1	1	1	"A"	6.318594	"Y"
"single"	1	0	2	4	5	1	2	2	1	2	"B"	3.681719	"Y"
"single"	1	0	2	4	6	1	2	1	2	1	"A"	2.688281	"Y"
"single"	1	0	2	4	7	1	2	1	1	1	"A"	15.53953	"Y"
"single"	1	0	2	4	8	2	1	1	2	1	"A"	5.330625	"Y"
"single"	1	0	2	4	9	2	1	2	2	2	"B"	2.91125	"Y"
"single"	1	0	2	4	10	1	2	2	2	2	"B"	3.679844	"Y"
"single"	1	0	2	4	11	2	2	2	2	1	"B"	5.220313	"Y"
"single"	1	0	2	4	12	1	1	2	1	2	"B"	2.911719	"N"
"single"	1	0	2	4	13	2	2	2	2	2	"B"	5.110312	"Y"
"single"	1	0	2	4	14	1	1	1	2	1	"A"	2.250313	"Y"
"single"	1	0	2	4	15	2	1	2	1	1	"A"	4.670469	"Y"
"single"	1	0	2	4	16	1	2	2	1	1	"A"	4.950469	"Y"
"single"	1	0	2	4	17	2	2	1	1	1	"A"	15.15922	"Y"
"single"	1	0	2	4	18	2	2	1	1	2	"B"	4.009219	"Y"
"single"	1	0	2	4	19	2	1	1	1	2	"A"	4.230156	"Y"
"single"	1	0	2	4	20	1	2	1	2	2	"B"	3.789844	"Y"
"single"	1	0	2	4	21	2	2	1	2	1	"B"	3.900938	"Y"
"single"	1	0	2	4	22	2	1	2	1	2	"B"	4.28125	"Y"
"single"	1	0	2	4	23	2	2	2	1	1	"B"	5.930156	"Y"
"single"	1	0	2	4	24	1	1	1	1	2	"A"	4.009219	"Y"
"single"	1	0	2	4	25	1	1	2	1	1	"A"	2.801563	"Y"
"single"	1	0	2	4	26	1	2	2	2	1	"B"	5.440938	"Y"
"single"	1	0	2	4	27	2	2	2	1	2	"B"	7.138281	"Y"
"single"	1	0	2	4	28	1	2	1	1	2	"A"	3.350312	"Y"
"single"	1	0	2	4	29	1	1	1	2	2	"A"	2.861406	"Y"
"single"	1	0	2	4	30	2	1	1	2	2	"B"	2.640781	"Y"
"single"	1	0	2	4	31	2	2	1	2	2	"B"	6.918906	"Y"
"single"	1	0	2	4	32	2	1	1	1	1	"A"	2.801094	"Y"
"single"	1	0	2	5	1	1	1	2	2	1	"A"	7.29875	"Y"
"single"	1	0	2	5	2	2	1	2	2	1	"B"	5.06125	"Y"
"single"	1	0	2	5	3	1	1	2	2	2	"B"	2.911406	"Y"
"single"	1	0	2	5	4	1	1	1	1	1	"A"	2.361406	"Y"
"single"	1	0	2	5	5	1	2	2	1	2	"B"	4.620781	"Y"
"single"	1	0	2	5	6	1	2	1	2	1	"A"	4.401563	"Y"
"single"	1	0	2	5	7	1	2	1	1	1	"A"	2.361875	"Y"
"single"	1	0	2	5	8	2	1	1	2	1	"A"	4.181875	"Y"
"single"	1	0	2	5	9	2	1	2	2	2	"B"	4.610938	"Y"
"single"	1	0	2	5	10	1	2	2	2	2	"B"	6.478594	"Y"
"single"	1	0	2	5	11	2	2	2	2	1	"B"	6.38	"Y"
"single"	1	0	2	5	12	1	1	2	1	2	"A"	4.669844	"Y"
"single"	1	0	2	5	13	2	2	2	2	2	"B"	3.409844	"Y"
"single"	1	0	2	5	14	1	1	1	2	1	"A"	2.799844	"Y"
"single"	1	0	2	5	15	2	1	2	1	1	"A"	3.570937	"Y"
"single"	1	0	2	5	16	1	2	2	1	1	"A"	2.970781	"Y"
"single"	1	0	2	5	17	2	2	1	1	1	"A"	8.08	"Y"
"single"	1	0	2	5	18	2	2	1	1	2	"B"	3.460625	"Y"
"single"	1	0	2	5	19	2	1	1	1	2	"A"	4.068438	"Y"
"single"	1	0	2	5	20	1	2	1	2	2	"B"	3.300781	"Y"
"single"	1	0	2	5	21	2	2	1	2	1	"B"	4.11875	"Y"
"single"	1	0	2	5	22	2	1	2	1	2	"B"	2.859531	"Y"
"single"	1	0	2	5	23	2	2	2	1	1	"B"	6.699531	"Y"
"single"	1	0	2	5	24	1	1	1	1	2	"A"	3.07125	"Y"
"single"	1	0	2	5	25	1	1	2	1	1	"A"	3.841094	"Y"
"single"	1	0	2	5	26	1	2	2	2	1	"B"	4.391406	"Y"
"single"	1	0	2	5	27	2	2	2	1	2	"B"	3.630312	"Y"
"single"	1	0	2	5	28	1	2	1	1	2	"A"	4.729375	"Y"
"single"	1	0	2	5	29	1	1	1	2	2	"B"	17.95906	"N"
"single"	1	0	2	5	30	2	1	1	2	2	"B"	13.35078	"Y"
"single"	1	0	2	5	31	2	2	1	2	2	"B"	6.531875	"Y"
"single"	1	0	2	5	32	2	1	1	1	1	"A"	9.661563	"Y"
"single"	1	0	2	6	1	1	1	2	2	1	"A"	5.438125	"Y"
"single"	1	0	2	6	2	2	1	2	2	1	"B"	4.170781	"Y"
"single"	1	0	2	6	3	1	1	2	2	2	"B"	4.401563	"Y"
"single"	1	0	2	6	4	1	1	1	1	1	"A"	1.749375	"Y"
"single"	1	0	2	6	5	1	2	2	1	2	"B"	2.799531	"Y"
"single"	1	0	2	6	6	1	2	1	2	1	"A"	8.018125	"Y"
"single"	1	0	2	6	7	1	2	1	1	1	"A"	2.971875	"Y"
"single"	1	0	2	6	8	2	1	1	2	1	"A"	2.739375	"Y"
"single"	1	0	2	6	9	2	1	2	2	2	"B"	5.208125	"Y"
"single"	1	0	2	6	10	1	2	2	2	2	"B"	3.128125	"Y"
"single"	1	0	2	6	11	2	2	2	2	1	"B"	3.031094	"Y"
"single"	1	0	2	6	12	1	1	2	1	2	"A"	2.471719	"Y"
"single"	1	0	2	6	13	2	2	2	2	2	"B"	3.079219	"Y"
"single"	1	0	2	6	14	1	1	1	2	1	"A"	4.229063	"Y"
"single"	1	0	2	6	15	2	1	2	1	1	"A"	4.49875	"Y"
"single"	1	0	2	6	16	1	2	2	1	1	"A"	2.630312	"Y"
"single"	1	0	2	6	17	2	2	1	1	1	"A"	2.531563	"Y"
"single"	1	0	2	6	18	2	2	1	1	2	"B"	3.789063	"Y"
"single"	1	0	2	6	19	2	1	1	1	2	"A"	4.06875	"Y"
"single"	1	0	2	6	20	1	2	1	2	2	"B"	4.231094	"Y"
"single"	1	0	2	6	21	2	2	1	2	1	"B"	7.91	"Y"
"single"	1	0	2	6	22	2	1	2	1	2	"B"	21.69859	"Y"
"single"	1	0	2	6	23	2	2	2	1	1	"B"	3.90125	"Y"
"single"	1	0	2	6	24	1	1	1	1	2	"A"	2.579844	"Y"
"single"	1	0	2	6	25	1	1	2	1	1	"A"	2.141094	"Y"
"single"	1	0	2	6	26	1	2	2	2	1	"B"	2.969844	"Y"
"single"	1	0	2	6	27	2	2	2	1	2	"B"	2.58125	"Y"
"single"	1	0	2	6	28	1	2	1	1	2	"A"	2.531094	"Y"
"single"	1	0	2	6	29	1	1	1	2	2	"A"	2.69	"Y"
"single"	1	0	2	6	30	2	1	1	2	2	"B"	3.02125	"Y"
"single"	1	0	2	6	31	2	2	1	2	2	"B"	4.87875	"Y"
"single"	1	0	2	6	32	2	1	1	1	1	"A"	2.75	"Y"
"single"	1	0	2	7	1	1	1	2	2	1	"A"	16.63953	"Y"
"single"	1	0	2	7	2	2	1	2	2	1	"B"	5.109063	"Y"
"single"	1	0	2	7	3	1	1	2	2	2	"B"	3.738437	"Y"
"single"	1	0	2	7	4	1	1	1	1	1	"A"	2.368125	"Y"
"single"	1	0	2	7	5	1	2	2	1	2	"B"	3.949687	"Y"
"single"	1	0	2	7	6	1	2	1	2	1	"A"	11.09062	"Y"
"single"	1	0	2	7	7	1	2	1	1	1	"A"	10.04844	"Y"
"single"	1	0	2	7	8	2	1	1	2	1	"A"	6.811719	"Y"
"single"	1	0	2	7	9	2	1	2	2	2	"B"	3.301094	"Y"
"single"	1	0	2	7	10	1	2	2	2	2	"B"	4.119062	"Y"
"single"	1	0	2	7	11	2	2	2	2	1	"B"	2.518125	"Y"
"single"	1	0	2	7	12	1	1	2	1	2	"A"	2.63875	"Y"
"single"	1	0	2	7	13	2	2	2	2	2	"B"	2.578281	"Y"
"single"	1	0	2	7	14	1	1	1	2	1	"A"	1.699531	"Y"
"single"	1	0	2	7	15	2	1	2	1	1	"A"	4.779687	"Y"
"single"	1	0	2	7	16	1	2	2	1	1	"A"	4.668594	"Y"
"single"	1	0	2	7	17	2	2	1	1	1	"A"	2.520781	"Y"
"single"	1	0	2	7	18	2	2	1	1	2	"B"	2.691406	"Y"
"single"	1	0	2	7	19	2	1	1	1	2	"A"	4.61875	"Y"
"single"	1	0	2	7	20	1	2	1	2	2	"B"	3.620312	"Y"
"single"	1	0	2	7	21	2	2	1	2	1	"B"	3.019375	"Y"
"single"	1	0	2	7	22	2	1	2	1	2	"B"	2.36	"Y"
"single"	1	0	2	7	23	2	2	2	1	1	"B"	2.470781	"Y"
"single"	1	0	2	7	24	1	1	1	1	2	"A"	2.798281	"Y"
"single"	1	0	2	7	25	1	1	2	1	1	"A"	2.310781	"Y"
"single"	1	0	2	7	26	1	2	2	2	1	"B"	3.300156	"Y"
"single"	1	0	2	7	27	2	2	2	1	2	"B"	3.518125	"Y"
"single"	1	0	2	7	28	1	2	1	1	2	"A"	2.64125	"Y"
"single"	1	0	2	7	29	1	1	1	2	2	"A"	1.869375	"Y"
"single"	1	0	2	7	30	2	1	1	2	2	"B"	4.560156	"Y"
"single"	1	0	2	7	31	2	2	1	2	2	"B"	3.460313	"Y"
"single"	1	0	2	7	32	2	1	1	1	1	"A"	3.130938	"Y"
"single"	1	0	2	8	1	1	1	2	2	1	"A"	20.26953	"Y"
"single"	1	0	2	8	2	2	1	2	2	1	"B"	0.4901563	"Y"
"single"	1	0	2	8	3	1	1	2	2	2	"B"	0.488125	"Y"
"single"	1	0	2	8	4	1	1	1	1	1	"A"	0.38	"Y"
"single"	1	0	2	8	5	1	2	2	1	2	"B"	11.70125	"Y"
"single"	1	0	2	8	6	1	2	1	2	1	"A"	7.641406	"Y"
"single"	1	0	2	8	7	1	2	1	1	1	"A"	3.51875	"Y"
"single"	1	0	2	8	8	2	1	1	2	1	"A"	12.23938	"Y"
"single"	1	0	2	8	9	2	1	2	2	2	"B"	16.64125	"Y"
"single"	1	0	2	8	10	1	2	2	2	2	"B"	2.250781	"Y"
"single"	1	0	2	8	11	2	2	2	2	1	"A"	5.930937	"N"
"single"	1	0	2	8	12	1	1	2	1	2	"B"	2.471406	"N"
"single"	1	0	2	8	13	2	2	2	2	2	"B"	6.418906	"Y"
"single"	1	0	2	8	14	1	1	1	2	1	"A"	1.858594	"Y"
"single"	1	0	2	8	15	2	1	2	1	1	"A"	2.909375	"Y"
"single"	1	0	2	8	16	1	2	2	1	1	"A"	2.909375	"Y"
"single"	1	0	2	8	17	2	2	1	1	1	"B"	1.809375	"N"
"single"	1	0	2	8	18	2	2	1	1	2	"B"	4.179531	"Y"
"single"	1	0	2	8	19	2	1	1	1	2	"A"	3.348594	"Y"
"single"	1	0	2	8	20	1	2	1	2	2	"B"	2.859688	"Y"
"single"	1	0	2	8	21	2	2	1	2	1	"B"	2.858281	"Y"
"single"	1	0	2	8	22	2	1	2	1	2	"B"	3.021563	"Y"
"single"	1	0	2	8	23	2	2	2	1	1	"B"	3.899688	"Y"
"single"	1	0	2	8	24	1	1	1	1	2	"A"	3.349219	"Y"
"single"	1	0	2	8	25	1	1	2	1	1	"A"	1.969219	"Y"
"single"	1	0	2	8	26	1	2	2	2	1	"B"	2.910625	"Y"
"single"	1	0	2	8	27	2	2	2	1	2	"B"	3.400625	"Y"
"single"	1	0	2	8	28	1	2	1	1	2	"A"	2.849219	"Y"
"single"	1	0	2	8	29	1	1	1	2	2	"A"	5.500312	"Y"
"single"	1	0	2	8	30	2	1	1	2	2	"B"	13.56828	"Y"
"single"	1	0	2	8	31	2	2	1	2	2	"B"	6.808125	"Y"
"single"	1	0	2	8	32	2	1	1	1	1	"A"	3.018906	"Y"
"single"	2	0	1	1	1	0	0	2	0	0	"B"	2.800625	"Y"
"single"	2	0	1	1	2	0	0	2	0	0	"B"	1.420781	"Y"
"single"	2	0	1	1	3	0	0	2	0	0	"B"	2.079844	"Y"
"single"	2	0	1	1	4	0	0	1	0	0	"A"	1.36875	"Y"
"single"	2	0	1	1	5	0	0	2	0	0	"B"	0.6603125	"Y"
"single"	2	0	1	1	6	0	0	2	0	0	"B"	0.8789063	"Y"
"single"	2	0	1	1	7	0	0	1	0	0	"A"	0.71875	"Y"
"single"	2	0	1	1	8	0	0	2	0	0	"B"	1.10125	"Y"
"single"	2	0	1	1	9	0	0	2	0	0	"B"	0.8798438	"Y"
"single"	2	0	1	1	10	0	0	1	0	0	"A"	0.6010938	"Y"
"single"	2	0	1	1	11	0	0	1	0	0	"A"	1.369688	"Y"
"single"	2	0	1	1	12	0	0	2	0	0	"B"	0.66125	"Y"
"single"	2	0	1	1	13	0	0	2	0	0	"B"	1.269844	"Y"
"single"	2	0	1	1	14	0	0	2	0	0	"B"	0.6590625	"Y"
"single"	2	0	1	1	15	0	0	1	0	0	"A"	0.7715625	"Y"
"single"	2	0	1	1	16	0	0	2	0	0	"B"	0.6582813	"Y"
"single"	2	0	1	1	17	0	0	1	0	0	"A"	0.8207812	"Y"
"single"	2	0	1	1	18	0	0	2	0	0	"B"	0.7614062	"Y"
"single"	2	0	1	1	19	0	0	1	0	0	"A"	0.820625	"Y"
"single"	2	0	1	1	20	0	0	2	0	0	"B"	0.5498437	"Y"
"single"	2	0	1	1	21	0	0	1	0	0	"A"	0.6617187	"Y"
"single"	2	0	1	1	22	0	0	1	0	0	"A"	0.7703125	"Y"
"single"	2	0	1	1	23	0	0	1	0	0	"A"	1.049531	"Y"
"single"	2	0	1	1	24	0	0	2	0	0	"B"	0.83	"Y"
"single"	2	0	1	1	25	0	0	1	0	0	"A"	0.7698438	"Y"
"single"	2	0	1	1	26	0	0	1	0	0	"A"	0.7104688	"Y"
"single"	2	0	1	1	27	0	0	1	0	0	"A"	0.7096875	"Y"
"single"	2	0	1	1	28	0	0	2	0	0	"B"	0.8789063	"Y"
"single"	2	0	1	1	29	0	0	1	0	0	"A"	0.76875	"Y"
"single"	2	0	1	1	30	0	0	1	0	0	"A"	0.771875	"Y"
"single"	2	0	1	1	31	0	0	2	0	0	"B"	0.599375	"Y"
"single"	2	0	1	1	32	0	0	1	0	0	"A"	0.7204688	"Y"
"single"	2	0	1	2	1	0	0	0	2	0	"B"	2.359844	"Y"
"single"	2	0	1	2	2	0	0	0	1	0	"A"	1.319219	"Y"
"single"	2	0	1	2	3	0	0	0	2	0	"B"	1.039844	"Y"
"single"	2	0	1	2	4	0	0	0	2	0	"B"	0.9295313	"Y"
"single"	2	0	1	2	5	0	0	0	2	0	"B"	0.83	"Y"
"single"	2	0	1	2	6	0	0	0	1	0	"A"	0.820625	"Y"
"single"	2	0	1	2	7	0	0	0	1	0	"A"	0.9904687	"Y"
"single"	2	0	1	2	8	0	0	0	1	0	"A"	0.7117187	"Y"
"single"	2	0	1	2	9	0	0	0	1	0	"A"	0.7695313	"Y"
"single"	2	0	1	2	10	0	0	0	1	0	"A"	0.65875	"Y"
"single"	2	0	1	2	11	0	0	0	2	0	"B"	0.548125	"Y"
"single"	2	0	1	2	12	0	0	0	1	0	"A"	0.66	"Y"
"single"	2	0	1	2	13	0	0	0	2	0	"B"	0.599375	"Y"
"single"	2	0	1	2	14	0	0	0	2	0	"B"	0.66125	"Y"
"single"	2	0	1	2	15	0	0	0	2	0	"B"	0.4984375	"Y"
"single"	2	0	1	2	16	0	0	0	2	0	"B"	0.601875	"Y"
"single"	2	0	1	2	17	0	0	0	1	0	"A"	0.6604688	"Y"
"single"	2	0	1	2	18	0	0	0	2	0	"B"	0.7182813	"Y"
"single"	2	0	1	2	19	0	0	0	2	0	"B"	1.089687	"Y"
"single"	2	0	1	2	20	0	0	0	1	0	"A"	0.66	"Y"
"single"	2	0	1	2	21	0	0	0	2	0	"B"	0.5485938	"Y"
"single"	2	0	1	2	22	0	0	0	1	0	"A"	0.4404688	"Y"
"single"	2	0	1	2	23	0	0	0	1	0	"A"	0.6	"Y"
"single"	2	0	1	2	24	0	0	0	1	0	"A"	0.7085937	"Y"
"single"	2	0	1	2	25	0	0	0	2	0	"B"	0.6603125	"Y"
"single"	2	0	1	2	26	0	0	0	2	0	"B"	0.6589062	"Y"
"single"	2	0	1	2	27	0	0	0	1	0	"A"	0.6496875	"Y"
"single"	2	0	1	2	28	0	0	0	2	0	"B"	0.5982813	"Y"
"single"	2	0	1	2	29	0	0	0	2	0	"B"	0.879375	"Y"
"single"	2	0	1	2	30	0	0	0	1	0	"A"	0.7192187	"Y"
"single"	2	0	1	2	31	0	0	0	1	0	"A"	1.37	"Y"
"single"	2	0	1	2	32	0	0	0	1	0	"A"	0.6615625	"Y"
"single"	2	0	1	3	1	0	2	0	0	0	"B"	2.088594	"Y"
"single"	2	0	1	3	2	0	1	0	0	0	"A"	1.041406	"Y"
"single"	2	0	1	3	3	0	2	0	0	0	"B"	0.5010937	"Y"
"single"	2	0	1	3	4	0	2	0	0	0	"B"	0.82125	"Y"
"single"	2	0	1	3	5	0	2	0	0	0	"B"	0.7196875	"Y"
"single"	2	0	1	3	6	0	1	0	0	0	"A"	0.7096875	"Y"
"single"	2	0	1	3	7	0	1	0	0	0	"A"	0.7714062	"Y"
"single"	2	0	1	3	8	0	1	0	0	0	"A"	0.4889063	"Y"
"single"	2	0	1	3	9	0	1	0	0	0	"A"	0.439375	"Y"
"single"	2	0	1	3	10	0	1	0	0	0	"A"	0.610625	"Y"
"single"	2	0	1	3	11	0	2	0	0	0	"B"	0.3807813	"Y"
"single"	2	0	1	3	12	0	1	0	0	0	"A"	0.720625	"Y"
"single"	2	0	1	3	13	0	2	0	0	0	"B"	0.6092188	"Y"
"single"	2	0	1	3	14	0	2	0	0	0	"B"	0.759375	"Y"
"single"	2	0	1	3	15	0	2	0	0	0	"B"	0.4885938	"Y"
"single"	2	0	1	3	16	0	2	0	0	0	"B"	0.4904687	"Y"
"single"	2	0	1	3	17	0	1	0	0	0	"A"	0.5484375	"Y"
"single"	2	0	1	3	18	0	2	0	0	0	"B"	0.7617188	"Y"
"single"	2	0	1	3	19	0	2	0	0	0	"B"	0.6609375	"Y"
"single"	2	0	1	3	20	0	1	0	0	0	"A"	0.5995312	"Y"
"single"	2	0	1	3	21	0	2	0	0	0	"B"	0.6489062	"Y"
"single"	2	0	1	3	22	0	1	0	0	0	"A"	0.3814062	"Y"
"single"	2	0	1	3	23	0	1	0	0	0	"A"	0.43875	"Y"
"single"	2	0	1	3	24	0	1	0	0	0	"A"	0.55	"Y"
"single"	2	0	1	3	25	0	2	0	0	0	"B"	0.391875	"Y"
"single"	2	0	1	3	26	0	2	0	0	0	"B"	0.33	"Y"
"single"	2	0	1	3	27	0	1	0	0	0	"A"	0.490625	"Y"
"single"	2	0	1	3	28	0	2	0	0	0	"B"	0.329375	"Y"
"single"	2	0	1	3	29	0	2	0	0	0	"B"	0.33	"Y"
"single"	2	0	1	3	30	0	1	0	0	0	"A"	0.550625	"Y"
"single"	2	0	1	3	31	0	1	0	0	0	"A"	0.4985937	"Y"
"single"	2	0	1	3	32	0	1	0	0	0	"A"	0.4998437	"Y"
"single"	2	0	1	4	1	0	0	0	0	2	"B"	3.898438	"Y"
"single"	2	0	1	4	2	0	0	0	0	1	"B"	1.310156	"N"
"single"	2	0	1	4	3	0	0	0	0	2	"B"	2.801719	"Y"
"single"	2	0	1	4	4	0	0	0	0	2	"B"	1.599687	"Y"
"single"	2	0	1	4	5	0	0	0	0	2	"B"	1.540781	"Y"
"single"	2	0	1	4	6	0	0	0	0	1	"A"	0.9896875	"Y"
"single"	2	0	1	4	7	0	0	0	0	1	"A"	0.7115625	"Y"
"single"	2	0	1	4	8	0	0	0	0	1	"A"	0.6107813	"Y"
"single"	2	0	1	4	9	0	0	0	0	1	"A"	0.659375	"Y"
"single"	2	0	1	4	10	0	0	0	0	1	"A"	1.099375	"Y"
"single"	2	0	1	4	11	0	0	0	0	2	"B"	0.8804687	"Y"
"single"	2	0	1	4	12	0	0	0	0	1	"A"	0.8303125	"Y"
"single"	2	0	1	4	13	0	0	0	0	2	"B"	0.7201563	"Y"
"single"	2	0	1	4	14	0	0	0	0	2	"B"	0.829375	"Y"
"single"	2	0	1	4	15	0	0	0	0	2	"B"	0.71	"Y"
"single"	2	0	1	4	16	0	0	0	0	2	"B"	1.2	"Y"
"single"	2	0	1	4	17	0	0	0	0	1	"A"	0.5009375	"Y"
"single"	2	0	1	4	18	0	0	0	0	2	"B"	0.4896875	"Y"
"single"	2	0	1	4	19	0	0	0	0	2	"B"	0.6601563	"Y"
"single"	2	0	1	4	20	0	0	0	0	1	"A"	0.7101563	"Y"
"single"	2	0	1	4	21	0	0	0	0	2	"B"	0.8201563	"Y"
"single"	2	0	1	4	22	0	0	0	0	1	"A"	0.66	"Y"
"single"	2	0	1	4	23	0	0	0	0	1	"A"	0.5517188	"Y"
"single"	2	0	1	4	24	0	0	0	0	1	"A"	0.5510938	"Y"
"single"	2	0	1	4	25	0	0	0	0	2	"B"	0.6004688	"Y"
"single"	2	0	1	4	26	0	0	0	0	2	"B"	0.4890625	"Y"
"single"	2	0	1	4	27	0	0	0	0	1	"A"	0.8209375	"Y"
"single"	2	0	1	4	28	0	0	0	0	2	"B"	0.7715625	"Y"
"single"	2	0	1	4	29	0	0	0	0	2	"B"	0.7107813	"Y"
"single"	2	0	1	4	30	0	0	0	0	1	"A"	0.6092188	"Y"
"single"	2	0	1	4	31	0	0	0	0	1	"A"	0.4392188	"Y"
"single"	2	0	1	4	32	0	0	0	0	1	"A"	0.881875	"Y"
"single"	2	0	1	5	1	0	0	0	0	1	"A"	1.589687	"Y"
"single"	2	0	1	5	2	0	0	0	0	2	"B"	0.9307812	"Y"
"single"	2	0	1	5	3	0	0	0	0	2	"B"	0.7698438	"Y"
"single"	2	0	1	5	4	0	0	0	0	1	"A"	0.8804687	"Y"
"single"	2	0	1	5	5	0	0	0	0	2	"B"	0.5489063	"Y"
"single"	2	0	1	5	6	0	0	0	0	1	"A"	0.5982813	"Y"
"single"	2	0	1	5	7	0	0	0	0	1	"A"	0.7115625	"Y"
"single"	2	0	1	5	8	0	0	0	0	1	"A"	0.6607813	"Y"
"single"	2	0	1	5	9	0	0	0	0	2	"B"	0.659375	"Y"
"single"	2	0	1	5	10	0	0	0	0	2	"B"	0.661875	"Y"
"single"	2	0	1	5	11	0	0	0	0	2	"B"	0.551875	"Y"
"single"	2	0	1	5	12	0	0	0	0	1	"A"	0.4990625	"Y"
"single"	2	0	1	5	13	0	0	0	0	2	"B"	1.588438	"Y"
"single"	2	0	1	5	14	0	0	0	0	1	"A"	0.59875	"Y"
"single"	2	0	1	5	15	0	0	0	0	1	"A"	0.55125	"Y"
"single"	2	0	1	5	16	0	0	0	0	1	"A"	0.600625	"Y"
"single"	2	0	1	5	17	0	0	0	0	1	"A"	0.5992187	"Y"
"single"	2	0	1	5	18	0	0	0	0	2	"B"	0.6485937	"Y"
"single"	2	0	1	5	19	0	0	0	0	1	"A"	1.050313	"Y"
"single"	2	0	1	5	20	0	0	0	0	2	"B"	0.5482813	"Y"
"single"	2	0	1	5	21	0	0	0	0	2	"B"	0.4901563	"Y"
"single"	2	0	1	5	22	0	0	0	0	2	"B"	0.6489062	"Y"
"single"	2	0	1	5	23	0	0	0	0	2	"B"	0.770625	"Y"
"single"	2	0	1	5	24	0	0	0	0	1	"A"	0.7698438	"Y"
"single"	2	0	1	5	25	0	0	0	0	1	"A"	0.3804688	"Y"
"single"	2	0	1	5	26	0	0	0	0	2	"B"	0.5485938	"Y"
"single"	2	0	1	5	27	0	0	0	0	2	"B"	0.6096875	"Y"
"single"	2	0	1	5	28	0	0	0	0	1	"A"	0.4396875	"Y"
"single"	2	0	1	5	29	0	0	0	0	1	"A"	0.4915625	"Y"
"single"	2	0	1	5	30	0	0	0	0	2	"B"	0.6603125	"Y"
"single"	2	0	1	5	31	0	0	0	0	2	"B"	0.498125	"Y"
"single"	2	0	1	5	32	0	0	0	0	1	"A"	0.55	"Y"
"single"	2	0	1	6	1	1	0	0	0	0	"B"	2.421562	"N"
"single"	2	0	1	6	2	2	0	0	0	0	"B"	1.208437	"Y"
"single"	2	0	1	6	3	2	0	0	0	0	"B"	0.6609375	"Y"
"single"	2	0	1	6	4	1	0	0	0	0	"A"	1.378125	"Y"
"single"	2	0	1	6	5	2	0	0	0	0	"B"	0.771875	"Y"
"single"	2	0	1	6	6	1	0	0	0	0	"A"	0.9310938	"Y"
"single"	2	0	1	6	7	1	0	0	0	0	"A"	0.5015625	"Y"
"single"	2	0	1	6	8	1	0	0	0	0	"A"	0.6095312	"Y"
"single"	2	0	1	6	9	2	0	0	0	0	"B"	0.388125	"Y"
"single"	2	0	1	6	10	2	0	0	0	0	"B"	0.5001562	"Y"
"single"	2	0	1	6	11	2	0	0	0	0	"B"	0.3789063	"Y"
"single"	2	0	1	6	12	1	0	0	0	0	"A"	0.4401563	"Y"
"single"	2	0	1	6	13	2	0	0	0	0	"B"	0.4414063	"Y"
"single"	2	0	1	6	14	1	0	0	0	0	"A"	0.3801562	"Y"
"single"	2	0	1	6	15	1	0	0	0	0	"A"	0.39	"Y"
"single"	2	0	1	6	16	1	0	0	0	0	"A"	0.388125	"Y"
"single"	2	0	1	6	17	1	0	0	0	0	"A"	0.4901563	"Y"
"single"	2	0	1	6	18	2	0	0	0	0	"B"	0.550625	"Y"
"single"	2	0	1	6	19	1	0	0	0	0	"A"	0.599375	"Y"
"single"	2	0	1	6	20	2	0	0	0	0	"B"	0.55125	"Y"
"single"	2	0	1	6	21	2	0	0	0	0	"B"	0.6592187	"Y"
"single"	2	0	1	6	22	2	0	0	0	0	"B"	0.4385937	"Y"
"single"	2	0	1	6	23	2	0	0	0	0	"B"	0.4398437	"Y"
"single"	2	0	1	6	24	1	0	0	0	0	"A"	0.5510938	"Y"
"single"	2	0	1	6	25	1	0	0	0	0	"A"	0.5490625	"Y"
"single"	2	0	1	6	26	2	0	0	0	0	"B"	0.4384375	"Y"
"single"	2	0	1	6	27	2	0	0	0	0	"B"	0.3810937	"Y"
"single"	2	0	1	6	28	1	0	0	0	0	"A"	0.3909375	"Y"
"single"	2	0	1	6	29	1	0	0	0	0	"A"	0.4990625	"Y"
"single"	2	0	1	6	30	2	0	0	0	0	"B"	0.4417188	"Y"
"single"	2	0	1	6	31	2	0	0	0	0	"B"	0.4390625	"Y"
"single"	2	0	1	6	32	1	0	0	0	0	"A"	0.6603125	"Y"
"single"	2	0	1	7	1	2	0	0	0	0	"B"	2.090938	"Y"
"single"	2	0	1	7	2	1	0	0	0	0	"A"	0.4898438	"Y"
"single"	2	0	1	7	3	2	0	0	0	0	"B"	0.3785937	"Y"
"single"	2	0	1	7	4	2	0	0	0	0	"B"	0.4984375	"Y"
"single"	2	0	1	7	5	2	0	0	0	0	"B"	0.6010938	"Y"
"single"	2	0	1	7	6	1	0	0	0	0	"A"	0.4904687	"Y"
"single"	2	0	1	7	7	1	0	0	0	0	"A"	0.4409375	"Y"
"single"	2	0	1	7	8	1	0	0	0	0	"A"	0.4396875	"Y"
"single"	2	0	1	7	9	1	0	0	0	0	"A"	0.5009375	"Y"
"single"	2	0	1	7	10	1	0	0	0	0	"A"	0.3796875	"Y"
"single"	2	0	1	7	11	2	0	0	0	0	"B"	0.3895313	"Y"
"single"	2	0	1	7	12	1	0	0	0	0	"A"	0.5515625	"Y"
"single"	2	0	1	7	13	2	0	0	0	0	"B"	0.6595312	"Y"
"single"	2	0	1	7	14	2	0	0	0	0	"B"	0.498125	"Y"
"single"	2	0	1	7	15	2	0	0	0	0	"B"	0.4407812	"Y"
"single"	2	0	1	7	16	2	0	0	0	0	"B"	0.388125	"Y"
"single"	2	0	1	7	17	1	0	0	0	0	"B"	0.38875	"N"
"single"	2	0	1	7	18	2	0	0	0	0	"B"	0.7707813	"Y"
"single"	2	0	1	7	19	2	0	0	0	0	"B"	0.5	"Y"
"single"	2	0	1	7	20	1	0	0	0	0	"A"	0.48875	"Y"
"single"	2	0	1	7	21	2	0	0	0	0	"B"	0.7114062	"Y"
"single"	2	0	1	7	22	1	0	0	0	0	"A"	0.49	"Y"
"single"	2	0	1	7	23	1	0	0	0	0	"A"	0.8304688	"Y"
"single"	2	0	1	7	24	1	0	0	0	0	"A"	0.6010938	"Y"
"single"	2	0	1	7	25	2	0	0	0	0	"B"	0.4904687	"Y"
"single"	2	0	1	7	26	2	0	0	0	0	"B"	0.4384375	"Y"
"single"	2	0	1	7	27	1	0	0	0	0	"A"	0.5996875	"Y"
"single"	2	0	1	7	28	2	0	0	0	0	"B"	0.4290625	"Y"
"single"	2	0	1	7	29	2	0	0	0	0	"B"	0.4403125	"Y"
"single"	2	0	1	7	30	1	0	0	0	0	"A"	0.4415625	"Y"
"single"	2	0	1	7	31	1	0	0	0	0	"A"	0.4303125	"Y"
"single"	2	0	1	7	32	1	0	0	0	0	"A"	0.6615625	"Y"
"single"	2	0	1	8	1	2	0	0	0	0	"B"	1.810313	"Y"
"single"	2	0	1	8	2	1	0	0	0	0	"A"	0.5504687	"Y"
"single"	2	0	1	8	3	2	0	0	0	0	"B"	0.4892187	"Y"
"single"	2	0	1	8	4	2	0	0	0	0	"B"	0.711875	"Y"
"single"	2	0	1	8	5	2	0	0	0	0	"B"	0.5496875	"Y"
"single"	2	0	1	8	6	1	0	0	0	0	"A"	0.6115625	"Y"
"single"	2	0	1	8	7	1	0	0	0	0	"A"	0.4909375	"Y"
"single"	2	0	1	8	8	1	0	0	0	0	"A"	0.3796875	"Y"
"single"	2	0	1	8	9	1	0	0	0	0	"A"	0.4409375	"Y"
"single"	2	0	1	8	10	1	0	0	0	0	"A"	0.3782812	"Y"
"single"	2	0	1	8	11	2	0	0	0	0	"B"	0.4903125	"Y"
"single"	2	0	1	8	12	1	0	0	0	0	"A"	0.5007812	"Y"
"single"	2	0	1	8	13	2	0	0	0	0	"B"	0.4395312	"Y"
"single"	2	0	1	8	14	2	0	0	0	0	"B"	0.4407812	"Y"
"single"	2	0	1	8	15	2	0	0	0	0	"B"	0.438125	"Y"
"single"	2	0	1	8	16	2	0	0	0	0	"B"	0.5501562	"Y"
"single"	2	0	1	8	17	1	0	0	0	0	"A"	0.498125	"Y"
"single"	2	0	1	8	18	2	0	0	0	0	"B"	0.5507813	"Y"
"single"	2	0	1	8	19	2	0	0	0	0	"B"	0.54875	"Y"
"single"	2	0	1	8	20	1	0	0	0	0	"A"	0.3814062	"Y"
"single"	2	0	1	8	21	2	0	0	0	0	"B"	0.39125	"Y"
"single"	2	0	1	8	22	1	0	0	0	0	"A"	0.599375	"Y"
"single"	2	0	1	8	23	1	0	0	0	0	"A"	0.53875	"Y"
"single"	2	0	1	8	24	1	0	0	0	0	"A"	0.440625	"Y"
"single"	2	0	1	8	25	2	0	0	0	0	"B"	0.5510938	"Y"
"single"	2	0	1	8	26	2	0	0	0	0	"B"	0.43125	"Y"
"single"	2	0	1	8	27	1	0	0	0	0	"A"	0.5517188	"Y"
"single"	2	0	1	8	28	2	0	0	0	0	"B"	0.4396875	"Y"
"single"	2	0	1	8	29	2	0	0	0	0	"B"	0.5009375	"Y"
"single"	2	0	1	8	30	1	0	0	0	0	"A"	0.6096875	"Y"
"single"	2	0	1	8	31	1	0	0	0	0	"A"	0.5490625	"Y"
"single"	2	0	1	8	32	1	0	0	0	0	"A"	0.4909375	"Y"
"single"	2	0	2	1	1	2	2	1	2	1	"A"	5.709688	"N"
"single"	2	0	2	1	2	2	1	1	1	2	"B"	4.008906	"N"
"single"	2	0	2	1	3	2	2	2	1	1	"B"	4.340469	"Y"
"single"	2	0	2	1	4	2	1	1	2	2	"A"	1.099375	"N"
"single"	2	0	2	1	5	1	2	2	2	2	"B"	6.979063	"Y"
"single"	2	0	2	1	6	1	1	1	1	2	"B"	4.168125	"N"
"single"	2	0	2	1	7	1	2	1	1	2	"A"	14.17031	"Y"
"single"	2	0	2	1	8	1	2	1	2	1	"A"	5.268594	"Y"
"single"	2	0	2	1	9	2	2	1	1	1	"A"	6.589219	"Y"
"single"	2	0	2	1	10	1	2	1	1	1	"A"	3.679531	"Y"
"single"	2	0	2	1	11	2	1	2	1	2	"B"	7.138594	"Y"
"single"	2	0	2	1	12	1	1	2	1	2	"A"	4.058125	"Y"
"single"	2	0	2	1	13	1	2	1	2	2	"B"	3.298281	"Y"
"single"	2	0	2	1	14	2	2	1	2	2	"B"	2.970156	"Y"
"single"	2	0	2	1	15	2	2	1	1	2	"B"	4.120156	"Y"
"single"	2	0	2	1	16	1	2	2	1	2	"B"	4.011719	"Y"
"single"	2	0	2	1	17	1	1	2	2	1	"A"	4.280156	"Y"
"single"	2	0	2	1	18	1	1	2	2	2	"B"	5.171563	"Y"
"single"	2	0	2	1	19	2	2	2	2	2	"B"	3.568438	"Y"
"single"	2	0	2	1	20	1	1	2	1	1	"A"	3.630781	"Y"
"single"	2	0	2	1	21	1	2	2	2	1	"B"	4.399844	"Y"
"single"	2	0	2	1	22	2	1	2	1	1	"A"	4.119375	"Y"
"single"	2	0	2	1	23	1	2	2	1	1	"A"	3.568438	"Y"
"single"	2	0	2	1	24	1	1	1	1	1	"A"	2.848281	"Y"
"single"	2	0	2	1	25	2	1	2	2	2	"B"	2.970781	"Y"
"single"	2	0	2	1	26	2	2	2	2	1	"B"	2.53	"Y"
"single"	2	0	2	1	27	2	1	1	2	1	"A"	3.458906	"Y"
"single"	2	0	2	1	28	2	2	2	1	2	"B"	2.310625	"Y"
"single"	2	0	2	1	29	2	1	2	2	1	"B"	4.170781	"Y"
"single"	2	0	2	1	30	1	1	1	2	2	"A"	4.339063	"Y"
"single"	2	0	2	1	31	2	1	1	1	1	"A"	2.629375	"Y"
"single"	2	0	2	1	32	1	1	1	2	1	"A"	3.570625	"Y"
"single"	2	0	2	2	1	1	1	2	2	1	"A"	3.951406	"Y"
"single"	2	0	2	2	2	2	1	2	2	1	"B"	3.518437	"Y"
"single"	2	0	2	2	3	1	1	2	2	2	"B"	2.361562	"Y"
"single"	2	0	2	2	4	1	1	1	1	1	"A"	2.091563	"Y"
"single"	2	0	2	2	5	1	2	2	1	2	"B"	2.741875	"Y"
"single"	2	0	2	2	6	1	2	1	2	1	"A"	2.749844	"Y"
"single"	2	0	2	2	7	1	2	1	1	1	"A"	2.751719	"Y"
"single"	2	0	2	2	8	2	1	1	2	1	"A"	2.741875	"Y"
"single"	2	0	2	2	9	2	1	2	2	2	"B"	3.240625	"Y"
"single"	2	0	2	2	10	1	2	2	2	2	"B"	2.090312	"Y"
"single"	2	0	2	2	11	2	2	2	2	1	"B"	3.570625	"Y"
"single"	2	0	2	2	12	1	1	2	1	2	"A"	4.830469	"Y"
"single"	2	0	2	2	13	2	2	2	2	2	"B"	2.358594	"Y"
"single"	2	0	2	2	14	1	1	1	2	1	"A"	2.138594	"Y"
"single"	2	0	2	2	15	2	1	2	1	1	"A"	2.688125	"Y"
"single"	2	0	2	2	16	1	2	2	1	1	"A"	3.620781	"Y"
"single"	2	0	2	2	17	2	2	1	1	1	"A"	2.579844	"Y"
"single"	2	0	2	2	18	2	2	1	1	2	"B"	3.350469	"Y"
"single"	2	0	2	2	19	2	1	1	1	2	"A"	3.569844	"Y"
"single"	2	0	2	2	20	1	2	1	2	2	"B"	3.458281	"Y"
"single"	2	0	2	2	21	2	2	1	2	1	"B"	3.401406	"Y"
"single"	2	0	2	2	22	2	1	2	1	2	"B"	7.471719	"Y"
"single"	2	0	2	2	23	2	2	2	1	1	"B"	2.690625	"Y"
"single"	2	0	2	2	24	1	1	1	1	2	"A"	2.861875	"Y"
"single"	2	0	2	2	25	1	1	2	1	1	"A"	2.640469	"Y"
"single"	2	0	2	2	26	1	2	2	2	1	"B"	3.51	"Y"
"single"	2	0	2	2	27	2	2	2	1	2	"B"	2.750937	"Y"
"single"	2	0	2	2	28	1	2	1	1	2	"B"	3.519687	"N"
"single"	2	0	2	2	29	1	1	1	2	2	"A"	3.738906	"Y"
"single"	2	0	2	2	30	2	1	1	2	2	"B"	2.629375	"Y"
"single"	2	0	2	2	31	2	2	1	2	2	"B"	1.861406	"Y"
"single"	2	0	2	2	32	2	1	1	1	1	"A"	2.308281	"Y"
"single"	2	0	2	3	1	1	1	2	2	1	"A"	8.731093	"Y"
"single"	2	0	2	3	2	2	1	2	2	1	"B"	2.809375	"Y"
"single"	2	0	2	3	3	1	1	2	2	2	"B"	3.459531	"Y"
"single"	2	0	2	3	4	1	1	1	1	1	"A"	2.201875	"Y"
"single"	2	0	2	3	5	1	2	2	1	2	"B"	1.811406	"Y"
"single"	2	0	2	3	6	1	2	1	2	1	"A"	2.638281	"Y"
"single"	2	0	2	3	7	1	2	1	1	1	"A"	2.361719	"Y"
"single"	2	0	2	3	8	2	1	1	2	1	"A"	3.238594	"Y"
"single"	2	0	2	3	9	2	1	2	2	2	"B"	2.309062	"Y"
"single"	2	0	2	3	10	1	2	2	2	2	"B"	2.088438	"Y"
"single"	2	0	2	3	11	2	2	2	2	1	"B"	2.13875	"Y"
"single"	2	0	2	3	12	1	1	2	1	2	"A"	3.898281	"Y"
"single"	2	0	2	3	13	2	2	2	2	2	"B"	1.761719	"Y"
"single"	2	0	2	3	14	1	1	1	2	1	"A"	2.579375	"Y"
"single"	2	0	2	3	15	2	1	2	1	1	"A"	2.738906	"Y"
"single"	2	0	2	3	16	1	2	2	1	1	"A"	2.970781	"Y"
"single"	2	0	2	3	17	2	2	1	1	1	"A"	2.42	"Y"
"single"	2	0	2	3	18	2	2	1	1	2	"B"	6.540781	"Y"
"single"	2	0	2	3	19	2	1	1	1	2	"A"	3.131875	"Y"
"single"	2	0	2	3	20	1	2	1	2	2	"B"	2.200938	"Y"
"single"	2	0	2	3	21	2	2	1	2	1	"B"	2.040469	"Y"
"single"	2	0	2	3	22	2	1	2	1	2	"B"	2.030156	"Y"
"single"	2	0	2	3	23	2	2	2	1	1	"B"	2.689063	"Y"
"single"	2	0	2	3	24	1	1	1	1	2	"A"	1.920313	"Y"
"single"	2	0	2	3	25	1	1	2	1	1	"A"	2.14	"Y"
"single"	2	0	2	3	26	1	2	2	2	1	"B"	2.09125	"Y"
"single"	2	0	2	3	27	2	2	2	1	2	"B"	2.310156	"Y"
"single"	2	0	2	3	28	1	2	1	1	2	"A"	6.210312	"Y"
"single"	2	0	2	3	29	1	1	1	2	2	"A"	2.629531	"Y"
"single"	2	0	2	3	30	2	1	1	2	2	"B"	2.420781	"Y"
"single"	2	0	2	3	31	2	2	1	2	2	"B"	1.541563	"Y"
"single"	2	0	2	3	32	2	1	1	1	1	"A"	2.200469	"Y"
"single"	2	0	2	4	1	1	1	2	2	1	"A"	4.508281	"Y"
"single"	2	0	2	4	2	2	1	2	2	1	"B"	2.138438	"Y"
"single"	2	0	2	4	3	1	1	2	2	2	"B"	2.35875	"Y"
"single"	2	0	2	4	4	1	1	1	1	1	"A"	1.969531	"Y"
"single"	2	0	2	4	5	1	2	2	1	2	"B"	2.581719	"Y"
"single"	2	0	2	4	6	1	2	1	2	1	"A"	3.241563	"Y"
"single"	2	0	2	4	7	1	2	1	1	1	"A"	5.169531	"Y"
"single"	2	0	2	4	8	2	1	1	2	1	"A"	4.670938	"Y"
"single"	2	0	2	4	9	2	1	2	2	2	"B"	2.301719	"Y"
"single"	2	0	2	4	10	1	2	2	2	2	"B"	2.691875	"Y"
"single"	2	0	2	4	11	2	2	2	2	1	"B"	3.290625	"Y"
"single"	2	0	2	4	12	1	1	2	1	2	"A"	3.291719	"Y"
"single"	2	0	2	4	13	2	2	2	2	2	"B"	1.588906	"Y"
"single"	2	0	2	4	14	1	1	1	2	1	"A"	2.969219	"Y"
"single"	2	0	2	4	15	2	1	2	1	1	"A"	4.508438	"Y"
"single"	2	0	2	4	16	1	2	2	1	1	"A"	2.470781	"Y"
"single"	2	0	2	4	17	2	2	1	1	1	"A"	2.81	"Y"
"single"	2	0	2	4	18	2	2	1	1	2	"B"	1.700156	"Y"
"single"	2	0	2	4	19	2	1	1	1	2	"A"	2.469687	"Y"
"single"	2	0	2	4	20	1	2	1	2	2	"B"	1.811094	"Y"
"single"	2	0	2	4	21	2	2	1	2	1	"B"	4.939531	"Y"
"single"	2	0	2	4	22	2	1	2	1	2	"B"	2.860781	"Y"
"single"	2	0	2	4	23	2	2	2	1	1	"B"	3.299375	"Y"
"single"	2	0	2	4	24	1	1	1	1	2	"A"	6.65125	"Y"
"single"	2	0	2	4	25	1	1	2	1	1	"A"	2.629062	"Y"
"single"	2	0	2	4	26	1	2	2	2	1	"B"	2.258906	"Y"
"single"	2	0	2	4	27	2	2	2	1	2	"B"	1.919844	"Y"
"single"	2	0	2	4	28	1	2	1	1	2	"B"	2.260625	"N"
"single"	2	0	2	4	29	1	1	1	2	2	"A"	3.960781	"Y"
"single"	2	0	2	4	30	2	1	1	2	2	"B"	3.191719	"Y"
"single"	2	0	2	4	31	2	2	1	2	2	"B"	1.589062	"Y"
"single"	2	0	2	4	32	2	1	1	1	1	"A"	1.809375	"Y"
"single"	2	0	2	5	1	1	1	2	2	1	"A"	4.281719	"Y"
"single"	2	0	2	5	2	2	1	2	2	1	"B"	1.760625	"Y"
"single"	2	0	2	5	3	1	1	2	2	2	"B"	2.641562	"Y"
"single"	2	0	2	5	4	1	1	1	1	1	"A"	1.818906	"Y"
"single"	2	0	2	5	5	1	2	2	1	2	"B"	2.25125	"Y"
"single"	2	0	2	5	6	1	2	1	2	1	"A"	3.461406	"Y"
"single"	2	0	2	5	7	1	2	1	1	1	"A"	2.529219	"Y"
"single"	2	0	2	5	8	2	1	1	2	1	"A"	4.069844	"Y"
"single"	2	0	2	5	9	2	1	2	2	2	"B"	3.618281	"Y"
"single"	2	0	2	5	10	1	2	2	2	2	"B"	2.468125	"Y"
"single"	2	0	2	5	11	2	2	2	2	1	"B"	1.69875	"Y"
"single"	2	0	2	5	12	1	1	2	1	2	"A"	5.710469	"Y"
"single"	2	0	2	5	13	2	2	2	2	2	"B"	3.348281	"Y"
"single"	2	0	2	5	14	1	1	1	2	1	"A"	2.690781	"Y"
"single"	2	0	2	5	15	2	1	2	1	1	"A"	7.30875	"Y"
"single"	2	0	2	5	16	1	2	2	1	1	"A"	9.828906	"Y"
"single"	2	0	2	5	17	2	2	1	1	1	"A"	3.070937	"Y"
"single"	2	0	2	5	18	2	2	1	1	2	"B"	3.291563	"Y"
"single"	2	0	2	5	19	2	1	1	1	2	"A"	2.58125	"Y"
"single"	2	0	2	5	20	1	2	1	2	2	"B"	2.410156	"Y"
"single"	2	0	2	5	21	2	2	1	2	1	"B"	3.410156	"Y"
"single"	2	0	2	5	22	2	1	2	1	2	"B"	2.19875	"Y"
"single"	2	0	2	5	23	2	2	2	1	1	"B"	7.408281	"Y"
"single"	2	0	2	5	24	1	1	1	1	2	"A"	1.710781	"Y"
"single"	2	0	2	5	25	1	1	2	1	1	"A"	2.249219	"Y"
"single"	2	0	2	5	26	1	2	2	2	1	"B"	2.359375	"Y"
"single"	2	0	2	5	27	2	2	2	1	2	"B"	5.81875	"Y"
"single"	2	0	2	5	28	1	2	1	1	2	"A"	4.009375	"Y"
"single"	2	0	2	5	29	1	1	1	2	2	"B"	6.320313	"N"
"single"	2	0	2	5	30	2	1	1	2	2	"B"	7.07875	"Y"
"single"	2	0	2	5	31	2	2	1	2	2	"B"	1.590781	"Y"
"single"	2	0	2	5	32	2	1	1	1	1	"A"	2.971094	"Y"
"single"	2	0	2	6	1	1	1	2	2	1	"A"	4.069531	"Y"
"single"	2	0	2	6	2	2	1	2	2	1	"B"	3.459375	"Y"
"single"	2	0	2	6	3	1	1	2	2	2	"B"	2.090312	"Y"
"single"	2	0	2	6	4	1	1	1	1	1	"A"	1.920625	"Y"
"single"	2	0	2	6	5	1	2	2	1	2	"B"	3.081406	"Y"
"single"	2	0	2	6	6	1	2	1	2	1	"A"	3.01875	"Y"
"single"	2	0	2	6	7	1	2	1	1	1	"A"	2.139375	"Y"
"single"	2	0	2	6	8	2	1	1	2	1	"A"	2.138906	"Y"
"single"	2	0	2	6	9	2	1	2	2	2	"B"	2.090938	"Y"
"single"	2	0	2	6	10	1	2	2	2	2	"B"	2.359844	"Y"
"single"	2	0	2	6	11	2	2	2	2	1	"B"	1.700625	"Y"
"single"	2	0	2	6	12	1	1	2	1	2	"A"	6.478437	"Y"
"single"	2	0	2	6	13	2	2	2	2	2	"B"	1.429844	"Y"
"single"	2	0	2	6	14	1	1	1	2	1	"A"	2.199531	"Y"
"single"	2	0	2	6	15	2	1	2	1	1	"A"	4.010469	"Y"
"single"	2	0	2	6	16	1	2	2	1	1	"A"	2.468906	"Y"
"single"	2	0	2	6	17	2	2	1	1	1	"A"	5.328125	"Y"
"single"	2	0	2	6	18	2	2	1	1	2	"B"	3.070156	"Y"
"single"	2	0	2	6	19	2	1	1	1	2	"A"	5.320781	"Y"
"single"	2	0	2	6	20	1	2	1	2	2	"B"	2.360625	"Y"
"single"	2	0	2	6	21	2	2	1	2	1	"B"	2.298906	"Y"
"single"	2	0	2	6	22	2	1	2	1	2	"B"	4.558281	"Y"
"single"	2	0	2	6	23	2	2	2	1	1	"B"	6.369062	"Y"
"single"	2	0	2	6	24	1	1	1	1	2	"A"	3.680625	"Y"
"single"	2	0	2	6	25	1	1	2	1	1	"A"	3.021094	"Y"
"single"	2	0	2	6	26	1	2	2	2	1	"B"	3.411719	"Y"
"single"	2	0	2	6	27	2	2	2	1	2	"B"	4.010313	"Y"
"single"	2	0	2	6	28	1	2	1	1	2	"A"	7.860469	"Y"
"single"	2	0	2	6	29	1	1	1	2	2	"A"	3.13125	"Y"
"single"	2	0	2	6	30	2	1	1	2	2	"B"	2.471094	"Y"
"single"	2	0	2	6	31	2	2	1	2	2	"B"	2.691094	"Y"
"single"	2	0	2	6	32	2	1	1	1	1	"A"	2.029844	"Y"
"single"	2	0	2	7	1	1	1	2	2	1	"A"	6.698438	"Y"
"single"	2	0	2	7	2	2	1	2	2	1	"B"	3.018594	"Y"
"single"	2	0	2	7	3	1	1	2	2	2	"B"	2.58	"Y"
"single"	2	0	2	7	4	1	1	1	1	1	"A"	2.199844	"Y"
"single"	2	0	2	7	5	1	2	2	1	2	"B"	2.369375	"Y"
"single"	2	0	2	7	6	1	2	1	2	1	"A"	2.361562	"Y"
"single"	2	0	2	7	7	1	2	1	1	1	"A"	2.310937	"Y"
"single"	2	0	2	7	8	2	1	1	2	1	"A"	3.398594	"Y"
"single"	2	0	2	7	9	2	1	2	2	2	"B"	1.928906	"Y"
"single"	2	0	2	7	10	1	2	2	2	2	"B"	2.081875	"Y"
"single"	2	0	2	7	11	2	2	2	2	1	"B"	2.361406	"Y"
"single"	2	0	2	7	12	1	1	2	1	2	"B"	4.828281	"N"
"single"	2	0	2	7	13	2	2	2	2	2	"B"	3.130312	"Y"
"single"	2	0	2	7	14	1	1	1	2	1	"A"	2.090781	"Y"
"single"	2	0	2	7	15	2	1	2	1	1	"A"	3.078906	"Y"
"single"	2	0	2	7	16	1	2	2	1	1	"A"	3.189531	"Y"
"single"	2	0	2	7	17	2	2	1	1	1	"A"	2.64	"Y"
"single"	2	0	2	7	18	2	2	1	1	2	"B"	2.858125	"Y"
"single"	2	0	2	7	19	2	1	1	1	2	"A"	2.688906	"Y"
"single"	2	0	2	7	20	1	2	1	2	2	"B"	2.149375	"Y"
"single"	2	0	2	7	21	2	2	1	2	1	"A"	1.920313	"N"
"single"	2	0	2	7	22	2	1	2	1	2	"B"	5.281094	"Y"
"single"	2	0	2	7	23	2	2	2	1	1	"B"	2.481719	"Y"
"single"	2	0	2	7	24	1	1	1	1	2	"A"	2.47	"Y"
"single"	2	0	2	7	25	1	1	2	1	1	"A"	2.141406	"Y"
"single"	2	0	2	7	26	1	2	2	2	1	"B"	2.470937	"Y"
"single"	2	0	2	7	27	2	2	2	1	2	"B"	3.020937	"Y"
"single"	2	0	2	7	28	1	2	1	1	2	"A"	7.690156	"Y"
"single"	2	0	2	7	29	1	1	1	2	2	"A"	4.071406	"Y"
"single"	2	0	2	7	30	2	1	1	2	2	"B"	2.469844	"Y"
"single"	2	0	2	7	31	2	2	1	2	2	"B"	2.798125	"Y"
"single"	2	0	2	7	32	2	1	1	1	1	"A"	3.679219	"Y"
"single"	2	0	2	8	1	1	1	2	2	1	"A"	5.489687	"Y"
"single"	2	0	2	8	2	2	1	2	2	1	"B"	2.249063	"Y"
"single"	2	0	2	8	3	1	1	2	2	2	"B"	2.251719	"Y"
"single"	2	0	2	8	4	1	1	1	1	1	"A"	1.761875	"Y"
"single"	2	0	2	8	5	1	2	2	1	2	"B"	2.358906	"Y"
"single"	2	0	2	8	6	1	2	1	2	1	"A"	2.308906	"Y"
"single"	2	0	2	8	7	1	2	1	1	1	"A"	3.350469	"Y"
"single"	2	0	2	8	8	2	1	1	2	1	"A"	5.330781	"Y"
"single"	2	0	2	8	9	2	1	2	2	2	"B"	1.981406	"Y"
"single"	2	0	2	8	10	1	2	2	2	2	"B"	1.541094	"Y"
"single"	2	0	2	8	11	2	2	2	2	1	"B"	1.541406	"Y"
"single"	2	0	2	8	12	1	1	2	1	2	"A"	3.240313	"Y"
"single"	2	0	2	8	13	2	2	2	2	2	"B"	1.538281	"Y"
"single"	2	0	2	8	14	1	1	1	2	1	"A"	2.688594	"Y"
"single"	2	0	2	8	15	2	1	2	1	1	"A"	3.23875	"Y"
"single"	2	0	2	8	16	1	2	2	1	1	"A"	3.399844	"Y"
"single"	2	0	2	8	17	2	2	1	1	1	"A"	1.981562	"Y"
"single"	2	0	2	8	18	2	2	1	1	2	"B"	2.859844	"Y"
"single"	2	0	2	8	19	2	1	1	1	2	"A"	2.579219	"Y"
"single"	2	0	2	8	20	1	2	1	2	2	"B"	2.799844	"Y"
"single"	2	0	2	8	21	2	2	1	2	1	"B"	1.809219	"Y"
"single"	2	0	2	8	22	2	1	2	1	2	"B"	1.810781	"Y"
"single"	2	0	2	8	23	2	2	2	1	1	"B"	3.628438	"Y"
"single"	2	0	2	8	24	1	1	1	1	2	"A"	1.871406	"Y"
"single"	2	0	2	8	25	1	1	2	1	1	"A"	2.080469	"Y"
"single"	2	0	2	8	26	1	2	2	2	1	"B"	1.648594	"Y"
"single"	2	0	2	8	27	2	2	2	1	2	"B"	2.028906	"Y"
"single"	2	0	2	8	28	1	2	1	1	2	"A"	2.848594	"Y"
"single"	2	0	2	8	29	1	1	1	2	2	"A"	5.659688	"Y"
"single"	2	0	2	8	30	2	1	1	2	2	"B"	2.909688	"Y"
"single"	2	0	2	8	31	2	2	1	2	2	"B"	1.698281	"Y"
"single"	2	0	2	8	32	2	1	1	1	1	"A"	2.029219	"Y"
"single"	3	0	1	1	1	0	0	0	0	2	"B"	1.761094	"Y"
"single"	3	0	1	1	2	0	0	0	0	1	"B"	1.369531	"N"
"single"	3	0	1	1	3	0	0	0	0	1	"A"	1.968594	"Y"
"single"	3	0	1	1	4	0	0	0	0	1	"A"	1.32	"Y"
"single"	3	0	1	1	5	0	0	0	0	1	"A"	0.7598438	"Y"
"single"	3	0	1	1	6	0	0	0	0	2	"B"	1.149063	"Y"
"single"	3	0	1	1	7	0	0	0	0	1	"A"	0.8807812	"Y"
"single"	3	0	1	1	8	0	0	0	0	2	"B"	0.7698438	"Y"
"single"	3	0	1	1	9	0	0	0	0	1	"A"	0.7696875	"Y"
"single"	3	0	1	1	10	0	0	0	0	2	"B"	0.6603125	"Y"
"single"	3	0	1	1	11	0	0	0	0	2	"B"	0.4989063	"Y"
"single"	3	0	1	1	12	0	0	0	0	2	"B"	0.6107813	"Y"
"single"	3	0	1	1	13	0	0	0	0	2	"B"	0.6007813	"Y"
"single"	3	0	1	1	14	0	0	0	0	2	"B"	0.5501562	"Y"
"single"	3	0	1	1	15	0	0	0	0	2	"B"	0.598125	"Y"
"single"	3	0	1	1	16	0	0	0	0	2	"B"	0.6592187	"Y"
"single"	3	0	1	1	17	0	0	0	0	1	"A"	0.6592187	"Y"
"single"	3	0	1	1	18	0	0	0	0	1	"A"	0.5992187	"Y"
"single"	3	0	1	1	19	0	0	0	0	1	"A"	0.6017187	"Y"
"single"	3	0	1	1	20	0	0	0	0	1	"A"	0.6003125	"Y"
"single"	3	0	1	1	21	0	0	0	0	1	"A"	0.6589062	"Y"
"single"	3	0	1	1	22	0	0	0	0	2	"B"	0.7714062	"Y"
"single"	3	0	1	1	23	0	0	0	0	1	"A"	0.658125	"Y"
"single"	3	0	1	1	24	0	0	0	0	1	"A"	0.8298438	"Y"
"single"	3	0	1	1	25	0	0	0	0	1	"A"	0.541875	"Y"
"single"	3	0	1	1	26	0	0	0	0	1	"A"	0.6604688	"Y"
"single"	3	0	1	1	27	0	0	0	0	2	"B"	0.5490625	"Y"
"single"	3	0	1	1	28	0	0	0	0	2	"B"	0.6009375	"Y"
"single"	3	0	1	1	29	0	0	0	0	1	"A"	0.5495312	"Y"
"single"	3	0	1	1	30	0	0	0	0	2	"B"	0.5514063	"Y"
"single"	3	0	1	1	31	0	0	0	0	2	"B"	0.4907812	"Y"
"single"	3	0	1	1	32	0	0	0	0	2	"B"	0.54875	"Y"
"single"	3	0	1	2	1	0	0	0	0	2	"B"	1.091719	"Y"
"single"	3	0	1	2	2	0	0	0	0	1	"A"	0.5989063	"Y"
"single"	3	0	1	2	3	0	0	0	0	2	"B"	0.61	"Y"
"single"	3	0	1	2	4	0	0	0	0	1	"A"	0.549375	"Y"
"single"	3	0	1	2	5	0	0	0	0	2	"B"	0.49125	"Y"
"single"	3	0	1	2	6	0	0	0	0	2	"B"	0.49	"Y"
"single"	3	0	1	2	7	0	0	0	0	1	"A"	0.551875	"Y"
"single"	3	0	1	2	8	0	0	0	0	1	"A"	0.6090625	"Y"
"single"	3	0	1	2	9	0	0	0	0	1	"A"	0.4398437	"Y"
"single"	3	0	1	2	10	0	0	0	0	1	"A"	0.4403125	"Y"
"single"	3	0	1	2	11	0	0	0	0	1	"A"	0.3790625	"Y"
"single"	3	0	1	2	12	0	0	0	0	2	"B"	0.4910938	"Y"
"single"	3	0	1	2	13	0	0	0	0	1	"A"	0.6590625	"Y"
"single"	3	0	1	2	14	0	0	0	0	2	"B"	0.5515625	"Y"
"single"	3	0	1	2	15	0	0	0	0	1	"A"	0.5409375	"Y"
"single"	3	0	1	2	16	0	0	0	0	2	"B"	0.5489063	"Y"
"single"	3	0	1	2	17	0	0	0	0	2	"B"	0.5507813	"Y"
"single"	3	0	1	2	18	0	0	0	0	1	"A"	0.551875	"Y"
"single"	3	0	1	2	19	0	0	0	0	2	"B"	0.500625	"Y"
"single"	3	0	1	2	20	0	0	0	0	2	"B"	0.549375	"Y"
"single"	3	0	1	2	21	0	0	0	0	1	"A"	0.6104687	"Y"
"single"	3	0	1	2	22	0	0	0	0	2	"B"	0.600625	"Y"
"single"	3	0	1	2	23	0	0	0	0	1	"A"	0.5992187	"Y"
"single"	3	0	1	2	24	0	0	0	0	2	"B"	0.5503125	"Y"
"single"	3	0	1	2	25	0	0	0	0	2	"B"	0.6004688	"Y"
"single"	3	0	1	2	26	0	0	0	0	2	"B"	0.5515625	"Y"
"single"	3	0	1	2	27	0	0	0	0	1	"A"	0.7709375	"Y"
"single"	3	0	1	2	28	0	0	0	0	2	"B"	0.6001562	"Y"
"single"	3	0	1	2	29	0	0	0	0	1	"A"	0.48875	"Y"
"single"	3	0	1	2	30	0	0	0	0	2	"B"	0.4914063	"Y"
"single"	3	0	1	2	31	0	0	0	0	1	"A"	0.599375	"Y"
"single"	3	0	1	2	32	0	0	0	0	1	"A"	0.601875	"Y"
"single"	3	0	1	3	1	0	1	0	0	0	"B"	1.810781	"N"
"single"	3	0	1	3	2	0	2	0	0	0	"B"	1.861719	"Y"
"single"	3	0	1	3	3	0	2	0	0	0	"B"	0.979375	"Y"
"single"	3	0	1	3	4	0	1	0	0	0	"A"	0.5498437	"Y"
"single"	3	0	1	3	5	0	2	0	0	0	"B"	0.5009375	"Y"
"single"	3	0	1	3	6	0	1	0	0	0	"A"	0.4989063	"Y"
"single"	3	0	1	3	7	0	1	0	0	0	"A"	0.8690625	"Y"
"single"	3	0	1	3	8	0	1	0	0	0	"A"	0.5489063	"Y"
"single"	3	0	1	3	9	0	2	0	0	0	"B"	0.4907812	"Y"
"single"	3	0	1	3	10	0	2	0	0	0	"B"	0.59875	"Y"
"single"	3	0	1	3	11	0	2	0	0	0	"B"	0.488125	"Y"
"single"	3	0	1	3	12	0	1	0	0	0	"A"	0.4385937	"Y"
"single"	3	0	1	3	13	0	2	0	0	0	"B"	0.5498437	"Y"
"single"	3	0	1	3	14	0	1	0	0	0	"A"	0.44	"Y"
"single"	3	0	1	3	15	0	1	0	0	0	"A"	0.49125	"Y"
"single"	3	0	1	3	16	0	1	0	0	0	"A"	0.4417188	"Y"
"single"	3	0	1	3	17	0	1	0	0	0	"A"	0.49125	"Y"
"single"	3	0	1	3	18	0	2	0	0	0	"B"	0.4885938	"Y"
"single"	3	0	1	3	19	0	1	0	0	0	"A"	0.6090625	"Y"
"single"	3	0	1	3	20	0	2	0	0	0	"B"	0.5484375	"Y"
"single"	3	0	1	3	21	0	2	0	0	0	"B"	0.5003125	"Y"
"single"	3	0	1	3	22	0	2	0	0	0	"B"	0.3290625	"Y"
"single"	3	0	1	3	23	0	2	0	0	0	"B"	0.3796875	"Y"
"single"	3	0	1	3	24	0	1	0	0	0	"A"	0.4417188	"Y"
"single"	3	0	1	3	25	0	1	0	0	0	"A"	0.4982812	"Y"
"single"	3	0	1	3	26	0	2	0	0	0	"B"	0.4909375	"Y"
"single"	3	0	1	3	27	0	2	0	0	0	"B"	0.4896875	"Y"
"single"	3	0	1	3	28	0	1	0	0	0	"A"	0.6101562	"Y"
"single"	3	0	1	3	29	0	1	0	0	0	"A"	0.5495312	"Y"
"single"	3	0	1	3	30	0	2	0	0	0	"B"	0.4414063	"Y"
"single"	3	0	1	3	31	0	2	0	0	0	"B"	0.49875	"Y"
"single"	3	0	1	3	32	0	1	0	0	0	"A"	0.4914063	"Y"
"single"	3	0	1	4	1	0	2	0	0	0	"B"	0.6592187	"Y"
"single"	3	0	1	4	2	0	1	0	0	0	"A"	0.5485938	"Y"
"single"	3	0	1	4	3	0	2	0	0	0	"B"	0.5504687	"Y"
"single"	3	0	1	4	4	0	2	0	0	0	"B"	0.5492188	"Y"
"single"	3	0	1	4	5	0	2	0	0	0	"B"	0.4410937	"Y"
"single"	3	0	1	4	6	0	1	0	0	0	"A"	0.6598437	"Y"
"single"	3	0	1	4	7	0	1	0	0	0	"A"	0.6584375	"Y"
"single"	3	0	1	4	8	0	1	0	0	0	"A"	0.6009375	"Y"
"single"	3	0	1	4	9	0	1	0	0	0	"A"	0.6003125	"Y"
"single"	3	0	1	4	10	0	1	0	0	0	"A"	0.5514063	"Y"
"single"	3	0	1	4	11	0	2	0	0	0	"B"	0.4907812	"Y"
"single"	3	0	1	4	12	0	1	0	0	0	"A"	0.55125	"Y"
"single"	3	0	1	4	13	0	2	0	0	0	"B"	0.4414063	"Y"
"single"	3	0	1	4	14	0	2	0	0	0	"B"	0.48875	"Y"
"single"	3	0	1	4	15	0	2	0	0	0	"B"	0.4392188	"Y"
"single"	3	0	1	4	16	0	2	0	0	0	"B"	0.37875	"Y"
"single"	3	0	1	4	17	0	1	0	0	0	"A"	0.4985937	"Y"
"single"	3	0	1	4	18	0	2	0	0	0	"B"	0.49125	"Y"
"single"	3	0	1	4	19	0	2	0	0	0	"B"	0.55	"Y"
"single"	3	0	1	4	20	0	1	0	0	0	"A"	0.5004687	"Y"
"single"	3	0	1	4	21	0	2	0	0	0	"B"	0.5492188	"Y"
"single"	3	0	1	4	22	0	1	0	0	0	"A"	0.5510938	"Y"
"single"	3	0	1	4	23	0	1	0	0	0	"A"	0.5490625	"Y"
"single"	3	0	1	4	24	0	1	0	0	0	"A"	0.4409375	"Y"
"single"	3	0	1	4	25	0	2	0	0	0	"B"	0.3796875	"Y"
"single"	3	0	1	4	26	0	2	0	0	0	"B"	0.5509375	"Y"
"single"	3	0	1	4	27	0	1	0	0	0	"A"	0.4989063	"Y"
"single"	3	0	1	4	28	0	2	0	0	0	"B"	0.4915625	"Y"
"single"	3	0	1	4	29	0	2	0	0	0	"B"	0.4403125	"Y"
"single"	3	0	1	4	30	0	1	0	0	0	"A"	0.4415625	"Y"
"single"	3	0	1	4	31	0	1	0	0	0	"A"	0.548125	"Y"
"single"	3	0	1	4	32	0	1	0	0	0	"A"	0.4882813	"Y"
"single"	3	0	1	5	1	0	0	0	2	0	"B"	1.368594	"Y"
"single"	3	0	1	5	2	0	0	0	1	0	"B"	0.7201563	"N"
"single"	3	0	1	5	3	0	0	0	2	0	"B"	1.700156	"Y"
"single"	3	0	1	5	4	0	0	0	2	0	"A"	0.7710937	"N"
"single"	3	0	1	5	5	0	0	0	2	0	"B"	0.6017187	"Y"
"single"	3	0	1	5	6	0	0	0	1	0	"A"	1.100312	"Y"
"single"	3	0	1	5	7	0	0	0	1	0	"A"	0.9314063	"Y"
"single"	3	0	1	5	8	0	0	0	1	0	"A"	1.160469	"Y"
"single"	3	0	1	5	9	0	0	0	1	0	"A"	1.048281	"Y"
"single"	3	0	1	5	10	0	0	0	1	0	"A"	0.7701563	"Y"
"single"	3	0	1	5	11	0	0	0	2	0	"B"	0.659375	"Y"
"single"	3	0	1	5	12	0	0	0	1	0	"A"	1.211875	"Y"
"single"	3	0	1	5	13	0	0	0	2	0	"B"	0.7196875	"Y"
"single"	3	0	1	5	14	0	0	0	2	0	"B"	0.4896875	"Y"
"single"	3	0	1	5	15	0	0	0	2	0	"B"	0.8184375	"Y"
"single"	3	0	1	5	16	0	0	0	2	0	"B"	0.4407812	"Y"
"single"	3	0	1	5	17	0	0	0	1	0	"A"	0.938125	"Y"
"single"	3	0	1	5	18	0	0	0	2	0	"B"	1.090156	"Y"
"single"	3	0	1	5	19	0	0	0	2	0	"B"	0.9898437	"Y"
"single"	3	0	1	5	20	0	0	0	1	0	"A"	1.320313	"Y"
"single"	3	0	1	5	21	0	0	0	2	0	"B"	0.6601563	"Y"
"single"	3	0	1	5	22	0	0	0	1	0	"A"	1.25875	"Y"
"single"	3	0	1	5	23	0	0	0	1	0	"A"	0.8796875	"Y"
"single"	3	0	1	5	24	0	0	0	1	0	"A"	0.6517187	"Y"
"single"	3	0	1	5	25	0	0	0	2	0	"B"	0.8295313	"Y"
"single"	3	0	1	5	26	0	0	0	2	0	"B"	0.8801563	"Y"
"single"	3	0	1	5	27	0	0	0	1	0	"A"	2.03	"Y"
"single"	3	0	1	5	28	0	0	0	2	0	"B"	0.5514063	"Y"
"single"	3	0	1	5	29	0	0	0	2	0	"B"	0.659375	"Y"
"single"	3	0	1	5	30	0	0	0	1	0	"A"	0.8201563	"Y"
"single"	3	0	1	5	31	0	0	0	1	0	"A"	0.8785937	"Y"
"single"	3	0	1	5	32	0	0	0	1	0	"A"	1.098438	"Y"
"single"	3	0	1	6	1	0	0	0	2	0	"B"	0.7704688	"Y"
"single"	3	0	1	6	2	0	0	0	1	0	"A"	0.7096875	"Y"
"single"	3	0	1	6	3	0	0	0	2	0	"B"	0.6589062	"Y"
"single"	3	0	1	6	4	0	0	0	2	0	"B"	0.5389063	"Y"
"single"	3	0	1	6	5	0	0	0	2	0	"B"	0.4407812	"Y"
"single"	3	0	1	6	6	0	0	0	1	0	"A"	0.548125	"Y"
"single"	3	0	1	6	7	0	0	0	1	0	"A"	0.88	"Y"
"single"	3	0	1	6	8	0	0	0	1	0	"A"	0.65125	"Y"
"single"	3	0	1	6	9	0	0	0	1	0	"A"	0.5998437	"Y"
"single"	3	0	1	6	10	0	0	0	1	0	"A"	0.6609375	"Y"
"single"	3	0	1	6	11	0	0	0	2	0	"B"	0.5495312	"Y"
"single"	3	0	1	6	12	0	0	0	1	0	"A"	0.7696875	"Y"
"single"	3	0	1	6	13	0	0	0	2	0	"B"	0.5989063	"Y"
"single"	3	0	1	6	14	0	0	0	2	0	"B"	0.55	"Y"
"single"	3	0	1	6	15	0	0	0	2	0	"B"	0.5401562	"Y"
"single"	3	0	1	6	16	0	0	0	2	0	"B"	0.488125	"Y"
"single"	3	0	1	6	17	0	0	0	1	0	"A"	0.659375	"Y"
"single"	3	0	1	6	18	0	0	0	2	0	"B"	0.491875	"Y"
"single"	3	0	1	6	19	0	0	0	2	0	"B"	0.9892188	"Y"
"single"	3	0	1	6	20	0	0	0	1	0	"A"	0.8204687	"Y"
"single"	3	0	1	6	21	0	0	0	2	0	"B"	0.5489063	"Y"
"single"	3	0	1	6	22	0	0	0	1	0	"A"	0.5990625	"Y"
"single"	3	0	1	6	23	0	0	0	1	0	"A"	0.7701563	"Y"
"single"	3	0	1	6	24	0	0	0	1	0	"A"	0.769375	"Y"
"single"	3	0	1	6	25	0	0	0	2	0	"B"	0.5485938	"Y"
"single"	3	0	1	6	26	0	0	0	2	0	"B"	1.19875	"Y"
"single"	3	0	1	6	27	0	0	0	1	0	"A"	0.6604688	"Y"
"single"	3	0	1	6	28	0	0	0	2	0	"B"	0.5990625	"Y"
"single"	3	0	1	6	29	0	0	0	2	0	"B"	0.6101562	"Y"
"single"	3	0	1	6	30	0	0	0	1	0	"A"	0.8195313	"Y"
"single"	3	0	1	6	31	0	0	0	1	0	"A"	0.7101563	"Y"
"single"	3	0	1	6	32	0	0	0	1	0	"A"	1.051875	"Y"
"single"	3	0	1	7	1	2	0	0	0	0	"B"	1.641094	"Y"
"single"	3	0	1	7	2	1	0	0	0	0	"A"	0.6014063	"Y"
"single"	3	0	1	7	3	2	0	0	0	0	"B"	0.4985937	"Y"
"single"	3	0	1	7	4	2	0	0	0	0	"B"	0.7704688	"Y"
"single"	3	0	1	7	5	2	0	0	0	0	"B"	0.491875	"Y"
"single"	3	0	1	7	6	1	0	0	0	0	"A"	0.5484375	"Y"
"single"	3	0	1	7	7	1	0	0	0	0	"A"	0.7703125	"Y"
"single"	3	0	1	7	8	1	0	0	0	0	"A"	1.041719	"Y"
"single"	3	0	1	7	9	1	0	0	0	0	"A"	0.7114062	"Y"
"single"	3	0	1	7	10	1	0	0	0	0	"A"	0.55	"Y"
"single"	3	0	1	7	11	2	0	0	0	0	"B"	0.661875	"Y"
"single"	3	0	1	7	12	1	0	0	0	0	"A"	0.60125	"Y"
"single"	3	0	1	7	13	2	0	0	0	0	"B"	0.6092188	"Y"
"single"	3	0	1	7	14	2	0	0	0	0	"A"	0.6585938	"N"
"single"	3	0	1	7	15	2	0	0	0	0	"B"	0.6096875	"Y"
"single"	3	0	1	7	16	2	0	0	0	0	"B"	0.4904687	"Y"
"single"	3	0	1	7	17	1	0	0	0	0	"A"	0.5984375	"Y"
"single"	3	0	1	7	18	2	0	0	0	0	"B"	0.5495312	"Y"
"single"	3	0	1	7	19	2	0	0	0	0	"B"	0.5989063	"Y"
"single"	3	0	1	7	20	1	0	0	0	0	"A"	0.5982813	"Y"
"single"	3	0	1	7	21	2	0	0	0	0	"B"	0.549375	"Y"
"single"	3	0	1	7	22	1	0	0	0	0	"A"	0.61125	"Y"
"single"	3	0	1	7	23	1	0	0	0	0	"B"	0.610625	"N"
"single"	3	0	1	7	24	1	0	0	0	0	"A"	0.88	"Y"
"single"	3	0	1	7	25	2	0	0	0	0	"B"	0.5998437	"Y"
"single"	3	0	1	7	26	2	0	0	0	0	"B"	0.6109375	"Y"
"single"	3	0	1	7	27	1	0	0	0	0	"A"	0.5503125	"Y"
"single"	3	0	1	7	28	2	0	0	0	0	"B"	0.6082813	"Y"
"single"	3	0	1	7	29	2	0	0	0	0	"B"	0.6615625	"Y"
"single"	3	0	1	7	30	1	0	0	0	0	"A"	0.5501562	"Y"
"single"	3	0	1	7	31	1	0	0	0	0	"A"	0.608125	"Y"
"single"	3	0	1	7	32	1	0	0	0	0	"A"	0.6014063	"Y"
"single"	3	0	1	8	1	2	0	0	0	0	"B"	0.9289063	"Y"
"single"	3	0	1	8	2	1	0	0	0	0	"A"	0.661875	"Y"
"single"	3	0	1	8	3	2	0	0	0	0	"B"	0.381875	"Y"
"single"	3	0	1	8	4	2	0	0	0	0	"A"	0.4417188	"N"
"single"	3	0	1	8	5	2	0	0	0	0	"B"	0.5004687	"Y"
"single"	3	0	1	8	6	1	0	0	0	0	"A"	0.5484375	"Y"
"single"	3	0	1	8	7	1	0	0	0	0	"A"	0.7703125	"Y"
"single"	3	0	1	8	8	1	0	0	0	0	"A"	0.4917187	"Y"
"single"	3	0	1	8	9	1	0	0	0	0	"A"	0.6582813	"Y"
"single"	3	0	1	8	10	1	0	0	0	0	"A"	0.5507813	"Y"
"single"	3	0	1	8	11	2	0	0	0	0	"B"	0.71875	"Y"
"single"	3	0	1	8	12	1	0	0	0	0	"A"	0.71875	"Y"
"single"	3	0	1	8	13	2	0	0	0	0	"B"	0.66125	"Y"
"single"	3	0	1	8	14	2	0	0	0	0	"B"	0.6098437	"Y"
"single"	3	0	1	8	15	2	0	0	0	0	"B"	0.5492188	"Y"
"single"	3	0	1	8	16	2	0	0	0	0	"B"	0.5010937	"Y"
"single"	3	0	1	8	17	1	0	0	0	0	"A"	0.5498437	"Y"
"single"	3	0	1	8	18	2	0	0	0	0	"B"	0.5009375	"Y"
"single"	3	0	1	8	19	2	0	0	0	0	"B"	0.4910938	"Y"
"single"	3	0	1	8	20	1	0	0	0	0	"A"	0.6115625	"Y"
"single"	3	0	1	8	21	2	0	0	0	0	"B"	0.3809375	"Y"
"single"	3	0	1	8	22	1	0	0	0	0	"A"	0.4890625	"Y"
"single"	3	0	1	8	23	1	0	0	0	0	"A"	0.4995312	"Y"
"single"	3	0	1	8	24	1	0	0	0	0	"A"	0.5482813	"Y"
"single"	3	0	1	8	25	2	0	0	0	0	"B"	0.4901563	"Y"
"single"	3	0	1	8	26	2	0	0	0	0	"B"	0.5489063	"Y"
"single"	3	0	1	8	27	1	0	0	0	0	"A"	0.609375	"Y"
"single"	3	0	1	8	28	2	0	0	0	0	"B"	0.70875	"Y"
"single"	3	0	1	8	29	2	0	0	0	0	"B"	0.61125	"Y"
"single"	3	0	1	8	30	1	0	0	0	0	"A"	0.6092188	"Y"
"single"	3	0	1	8	31	1	0	0	0	0	"A"	0.6110938	"Y"
"single"	3	0	1	8	32	1	0	0	0	0	"A"	0.60125	"Y"
"single"	3	0	1	9	1	2	0	0	0	0	"B"	0.8796875	"Y"
"single"	3	0	1	9	2	1	0	0	0	0	"A"	0.6009375	"Y"
"single"	3	0	1	9	3	2	0	0	0	0	"B"	0.5995312	"Y"
"single"	3	0	1	9	4	2	0	0	0	0	"B"	0.4889063	"Y"
"single"	3	0	1	9	5	2	0	0	0	0	"B"	0.499375	"Y"
"single"	3	0	1	9	6	1	0	0	0	0	"A"	0.548125	"Y"
"single"	3	0	1	9	7	1	0	0	0	0	"A"	0.55	"Y"
"single"	3	0	1	9	8	1	0	0	0	0	"A"	0.611875	"Y"
"single"	3	0	1	9	9	1	0	0	0	0	"A"	0.60125	"Y"
"single"	3	0	1	9	10	1	0	0	0	0	"A"	0.6084375	"Y"
"single"	3	0	1	9	11	2	0	0	0	0	"B"	0.5517188	"Y"
"single"	3	0	1	9	12	1	0	0	0	0	"A"	0.6596875	"Y"
"single"	3	0	1	9	13	2	0	0	0	0	"B"	0.5490625	"Y"
"single"	3	0	1	9	14	2	0	0	0	0	"B"	0.4917187	"Y"
"single"	3	0	1	9	15	2	0	0	0	0	"B"	0.4982812	"Y"
"single"	3	0	1	9	16	2	0	0	0	0	"B"	0.4409375	"Y"
"single"	3	0	1	9	17	1	0	0	0	0	"A"	0.7096875	"Y"
"single"	3	0	1	9	18	2	0	0	0	0	"B"	0.5014063	"Y"
"single"	3	0	1	9	19	2	0	0	0	0	"B"	0.5501562	"Y"
"single"	3	0	1	9	20	1	0	0	0	0	"A"	0.548125	"Y"
"single"	3	0	1	9	21	2	0	0	0	0	"B"	0.44	"Y"
"single"	3	0	1	9	22	1	0	0	0	0	"A"	0.50125	"Y"
"single"	3	0	1	9	23	1	0	0	0	0	"A"	0.6	"Y"
"single"	3	0	1	9	24	1	0	0	0	0	"A"	0.599375	"Y"
"single"	3	0	1	9	25	2	0	0	0	0	"B"	0.5504687	"Y"
"single"	3	0	1	9	26	2	0	0	0	0	"B"	0.4984375	"Y"
"single"	3	0	1	9	27	1	0	0	0	0	"A"	0.6010938	"Y"
"single"	3	0	1	9	28	2	0	0	0	0	"B"	0.4904687	"Y"
"single"	3	0	1	9	29	2	0	0	0	0	"B"	0.5517188	"Y"
"single"	3	0	1	9	30	1	0	0	0	0	"A"	0.4896875	"Y"
"single"	3	0	1	9	31	1	0	0	0	0	"A"	0.7684375	"Y"
"single"	3	0	1	9	32	1	0	0	0	0	"A"	0.6015625	"Y"
"single"	3	0	1	10	1	0	0	2	0	0	"B"	1.649063	"Y"
"single"	3	0	1	10	2	0	0	1	0	0	"A"	1.039375	"Y"
"single"	3	0	1	10	3	0	0	2	0	0	"B"	0.5490625	"Y"
"single"	3	0	1	10	4	0	0	2	0	0	"B"	0.8692188	"Y"
"single"	3	0	1	10	5	0	0	2	0	0	"B"	0.7690625	"Y"
"single"	3	0	1	10	6	0	0	1	0	0	"A"	0.6582813	"Y"
"single"	3	0	1	10	7	0	0	1	0	0	"A"	0.6607813	"Y"
"single"	3	0	1	10	8	0	0	1	0	0	"A"	0.659375	"Y"
"single"	3	0	1	10	9	0	0	1	0	0	"A"	0.611875	"Y"
"single"	3	0	1	10	10	0	0	1	0	0	"A"	0.55125	"Y"
"single"	3	0	1	10	11	0	0	2	0	0	"B"	0.5492188	"Y"
"single"	3	0	1	10	12	0	0	1	0	0	"A"	0.551875	"Y"
"single"	3	0	1	10	13	0	0	2	0	0	"B"	0.5498437	"Y"
"single"	3	0	1	10	14	0	0	2	0	0	"B"	0.6103125	"Y"
"single"	3	0	1	10	15	0	0	2	0	0	"B"	0.5504687	"Y"
"single"	3	0	1	10	16	0	0	2	0	0	"B"	0.5484375	"Y"
"single"	3	0	1	10	17	0	0	1	0	0	"A"	0.4903125	"Y"
"single"	3	0	1	10	18	0	0	2	0	0	"B"	0.4982812	"Y"
"single"	3	0	1	10	19	0	0	2	0	0	"B"	0.4401563	"Y"
"single"	3	0	1	10	20	0	0	1	0	0	"A"	0.5514063	"Y"
"single"	3	0	1	10	21	0	0	2	0	0	"B"	0.4407812	"Y"
"single"	3	0	1	10	22	0	0	1	0	0	"A"	0.548125	"Y"
"single"	3	0	1	10	23	0	0	1	0	0	"A"	0.55	"Y"
"single"	3	0	1	10	24	0	0	1	0	0	"A"	0.489375	"Y"
"single"	3	0	1	10	25	0	0	2	0	0	"B"	0.61125	"Y"
"single"	3	0	1	10	26	0	0	2	0	0	"B"	0.490625	"Y"
"single"	3	0	1	10	27	0	0	1	0	0	"A"	0.6110938	"Y"
"single"	3	0	1	10	28	0	0	2	0	0	"B"	0.55125	"Y"
"single"	3	0	1	10	29	0	0	2	0	0	"B"	0.5492188	"Y"
"single"	3	0	1	10	30	0	0	1	0	0	"A"	0.5510938	"Y"
"single"	3	0	1	10	31	0	0	1	0	0	"A"	0.5990625	"Y"
"single"	3	0	1	10	32	0	0	1	0	0	"A"	0.5984375	"Y"
"single"	3	0	2	1	1	2	2	1	2	1	"B"	6.419219	"Y"
"single"	3	0	2	1	2	2	1	1	1	2	"A"	1.38	"Y"
"single"	3	0	2	1	3	2	2	2	1	1	"B"	1.64125	"Y"
"single"	3	0	2	1	4	2	1	1	2	2	"A"	0.9315625	"N"
"single"	3	0	2	1	5	1	2	2	2	2	"B"	6.150625	"Y"
"single"	3	0	2	1	6	1	1	1	1	2	"A"	3.740937	"Y"
"single"	3	0	2	1	7	1	2	1	1	2	"A"	9.011406	"Y"
"single"	3	0	2	1	8	1	2	1	2	1	"A"	5.049844	"Y"
"single"	3	0	2	1	9	2	2	1	1	1	"A"	2.959219	"Y"
"single"	3	0	2	1	10	1	2	1	1	1	"A"	3.289844	"Y"
"single"	3	0	2	1	11	2	1	2	1	2	"B"	5.829531	"Y"
"single"	3	0	2	1	12	1	1	2	1	2	"B"	2.410156	"N"
"single"	3	0	2	1	13	1	2	1	2	2	"B"	4.780938	"Y"
"single"	3	0	2	1	14	2	2	1	2	2	"B"	5.661562	"Y"
"single"	3	0	2	1	15	2	2	1	1	2	"B"	4.510156	"Y"
"single"	3	0	2	1	16	1	2	2	1	2	"B"	3.731094	"Y"
"single"	3	0	2	1	17	1	1	2	2	1	"B"	4.170781	"N"
"single"	3	0	2	1	18	1	1	2	2	2	"B"	4.889062	"Y"
"single"	3	0	2	1	19	2	2	2	2	2	"B"	1.921094	"Y"
"single"	3	0	2	1	20	1	1	2	1	1	"A"	4.990156	"Y"
"single"	3	0	2	1	21	1	2	2	2	1	"B"	2.308125	"Y"
"single"	3	0	2	1	22	2	1	2	1	1	"A"	3.128281	"Y"
"single"	3	0	2	1	23	1	2	2	1	1	"A"	5.93875	"Y"
"single"	3	0	2	1	24	1	1	1	1	1	"A"	2.529219	"Y"
"single"	3	0	2	1	25	2	1	2	2	2	"B"	3.020625	"Y"
"single"	3	0	2	1	26	2	2	2	2	1	"B"	2.91125	"Y"
"single"	3	0	2	1	27	2	1	1	2	1	"A"	8.239843	"Y"
"single"	3	0	2	1	28	2	2	2	1	2	"B"	2.311719	"Y"
"single"	3	0	2	1	29	2	1	2	2	1	"B"	3.021094	"Y"
"single"	3	0	2	1	30	1	1	1	2	2	"B"	3.741719	"N"
"single"	3	0	2	1	31	2	1	1	1	1	"A"	14.67141	"Y"
"single"	3	0	2	1	32	1	1	1	2	1	"A"	5.539688	"Y"
"single"	3	0	2	2	1	1	1	2	2	1	"A"	13.46	"Y"
"single"	3	0	2	2	2	2	1	2	2	1	"B"	2.358438	"Y"
"single"	3	0	2	2	3	1	1	2	2	2	"B"	3.789219	"Y"
"single"	3	0	2	2	4	1	1	1	1	1	"A"	2.410312	"Y"
"single"	3	0	2	2	5	1	2	2	1	2	"B"	3.241094	"Y"
"single"	3	0	2	2	6	1	2	1	2	1	"A"	3.461562	"Y"
"single"	3	0	2	2	7	1	2	1	1	1	"A"	1.860781	"Y"
"single"	3	0	2	2	8	2	1	1	2	1	"A"	9.438437	"Y"
"single"	3	0	2	2	9	2	1	2	2	2	"B"	1.701094	"Y"
"single"	3	0	2	2	10	1	2	2	2	2	"B"	2.860625	"Y"
"single"	3	0	2	2	11	2	2	2	2	1	"B"	3.520625	"Y"
"single"	3	0	2	2	12	1	1	2	1	2	"A"	7.799844	"Y"
"single"	3	0	2	2	13	2	2	2	2	2	"B"	1.981719	"Y"
"single"	3	0	2	2	14	1	1	1	2	1	"A"	3.681406	"Y"
"single"	3	0	2	2	15	2	1	2	1	1	"A"	3.959687	"Y"
"single"	3	0	2	2	16	1	2	2	1	1	"A"	2.751406	"Y"
"single"	3	0	2	2	17	2	2	1	1	1	"A"	1.920156	"Y"
"single"	3	0	2	2	18	2	2	1	1	2	"B"	8.130938	"Y"
"single"	3	0	2	2	19	2	1	1	1	2	"A"	3.999063	"Y"
"single"	3	0	2	2	20	1	2	1	2	2	"B"	1.53	"Y"
"single"	3	0	2	2	21	2	2	1	2	1	"A"	4.288906	"N"
"single"	3	0	2	2	22	2	1	2	1	2	"B"	3.018594	"Y"
"single"	3	0	2	2	23	2	2	2	1	1	"A"	1.149219	"N"
"single"	3	0	2	2	24	1	1	1	1	2	"A"	2.190938	"Y"
"single"	3	0	2	2	25	1	1	2	1	1	"A"	1.979687	"Y"
"single"	3	0	2	2	26	1	2	2	2	1	"B"	3.349375	"Y"
"single"	3	0	2	2	27	2	2	2	1	2	"B"	2.250469	"Y"
"single"	3	0	2	2	28	1	2	1	1	2	"A"	2.910625	"Y"
"single"	3	0	2	2	29	1	1	1	2	2	"B"	1.040625	"N"
"single"	3	0	2	2	30	2	1	1	2	2	"B"	2.420312	"Y"
"single"	3	0	2	2	31	2	2	1	2	2	"B"	1.418594	"Y"
"single"	3	0	2	2	32	2	1	1	1	1	"A"	0.9307812	"Y"
"single"	3	0	2	3	1	1	1	2	2	1	"A"	3.241563	"Y"
"single"	3	0	2	3	2	2	1	2	2	1	"B"	2.698125	"Y"
"single"	3	0	2	3	3	1	1	2	2	2	"B"	1.430781	"Y"
"single"	3	0	2	3	4	1	1	1	1	1	"A"	1.81125	"Y"
"single"	3	0	2	3	5	1	2	2	1	2	"A"	4.401406	"N"
"single"	3	0	2	3	6	1	2	1	2	1	"A"	2.480937	"Y"
"single"	3	0	2	3	7	1	2	1	1	1	"A"	3.188437	"Y"
"single"	3	0	2	3	8	2	1	1	2	1	"A"	1.921094	"Y"
"single"	3	0	2	3	9	2	1	2	2	2	"B"	1.921875	"Y"
"single"	3	0	2	3	10	1	2	2	2	2	"B"	2.080937	"Y"
"single"	3	0	2	3	11	2	2	2	2	1	"B"	2.249063	"Y"
"single"	3	0	2	3	12	1	1	2	1	2	"A"	2.359219	"Y"
"single"	3	0	2	3	13	2	2	2	2	2	"B"	1.43	"Y"
"single"	3	0	2	3	14	1	1	1	2	1	"A"	1.598281	"Y"
"single"	3	0	2	3	15	2	1	2	1	1	"A"	3.628594	"Y"
"single"	3	0	2	3	16	1	2	2	1	1	"A"	4.769844	"Y"
"single"	3	0	2	3	17	2	2	1	1	1	"A"	2.690469	"Y"
"single"	3	0	2	3	18	2	2	1	1	2	"A"	5.281719	"N"
"single"	3	0	2	3	19	2	1	1	1	2	"B"	3.399219	"N"
"single"	3	0	2	3	20	1	2	1	2	2	"A"	1.591719	"N"
"single"	3	0	2	3	21	2	2	1	2	1	"A"	4.168125	"N"
"single"	3	0	2	3	22	2	1	2	1	2	"A"	3.950313	"N"
"single"	3	0	2	3	23	2	2	2	1	1	"B"	3.06875	"Y"
"single"	3	0	2	3	24	1	1	1	1	2	"A"	2.751094	"Y"
"single"	3	0	2	3	25	1	1	2	1	1	"A"	2.96125	"Y"
"single"	3	0	2	3	26	1	2	2	2	1	"B"	3.950469	"Y"
"single"	3	0	2	3	27	2	2	2	1	2	"B"	2.578281	"Y"
"single"	3	0	2	3	28	1	2	1	1	2	"A"	3.298906	"Y"
"single"	3	0	2	3	29	1	1	1	2	2	"A"	3.41	"Y"
"single"	3	0	2	3	30	2	1	1	2	2	"B"	3.13	"Y"
"single"	3	0	2	3	31	2	2	1	2	2	"B"	2.039063	"Y"
"single"	3	0	2	3	32	2	1	1	1	1	"A"	3.461875	"Y"
"single"	3	0	2	4	1	1	1	2	2	1	"A"	3.948594	"Y"
"single"	3	0	2	4	2	2	1	2	2	1	"B"	2.579531	"Y"
"single"	3	0	2	4	3	1	1	2	2	2	"B"	2.970156	"Y"
"single"	3	0	2	4	4	1	1	1	1	1	"A"	2.851563	"Y"
"single"	3	0	2	4	5	1	2	2	1	2	"B"	4.450156	"Y"
"single"	3	0	2	4	6	1	2	1	2	1	"A"	1.641094	"Y"
"single"	3	0	2	4	7	1	2	1	1	1	"A"	1.590625	"Y"
"single"	3	0	2	4	8	2	1	1	2	1	"A"	5.158438	"Y"
"single"	3	0	2	4	9	2	1	2	2	2	"B"	2.140938	"Y"
"single"	3	0	2	4	10	1	2	2	2	2	"B"	1.37125	"Y"
"single"	3	0	2	4	11	2	2	2	2	1	"B"	3.130312	"Y"
"single"	3	0	2	4	12	1	1	2	1	2	"A"	5.550156	"Y"
"single"	3	0	2	4	13	2	2	2	2	2	"B"	1.428125	"Y"
"single"	3	0	2	4	14	1	1	1	2	1	"A"	2.420312	"Y"
"single"	3	0	2	4	15	2	1	2	1	1	"A"	3.068594	"Y"
"single"	3	0	2	4	16	1	2	2	1	1	"A"	3.509844	"Y"
"single"	3	0	2	4	17	2	2	1	1	1	"A"	2.641406	"Y"
"single"	3	0	2	4	18	2	2	1	1	2	"A"	5.599531	"N"
"single"	3	0	2	4	19	2	1	1	1	2	"A"	3.288906	"Y"
"single"	3	0	2	4	20	1	2	1	2	2	"B"	6.099375	"Y"
"single"	3	0	2	4	21	2	2	1	2	1	"B"	5.601094	"Y"
"single"	3	0	2	4	22	2	1	2	1	2	"B"	2.799687	"Y"
"single"	3	0	2	4	23	2	2	2	1	1	"B"	5.159062	"Y"
"single"	3	0	2	4	24	1	1	1	1	2	"A"	2.311563	"Y"
"single"	3	0	2	4	25	1	1	2	1	1	"A"	2.310937	"Y"
"single"	3	0	2	4	26	1	2	2	2	1	"B"	2.798594	"Y"
"single"	3	0	2	4	27	2	2	2	1	2	"B"	3.410469	"Y"
"single"	3	0	2	4	28	1	2	1	1	2	"A"	3.349062	"Y"
"single"	3	0	2	4	29	1	1	1	2	2	"A"	4.890156	"Y"
"single"	3	0	2	4	30	2	1	1	2	2	"B"	1.759688	"Y"
"single"	3	0	2	4	31	2	2	1	2	2	"B"	1.759844	"Y"
"single"	3	0	2	4	32	2	1	1	1	1	"A"	1.978281	"Y"
"single"	3	0	2	5	1	1	1	2	2	1	"A"	4.670156	"Y"
"single"	3	0	2	5	2	2	1	2	2	1	"B"	3.131562	"Y"
"single"	3	0	2	5	3	1	1	2	2	2	"B"	4.558906	"Y"
"single"	3	0	2	5	4	1	1	1	1	1	"A"	1.870469	"Y"
"single"	3	0	2	5	5	1	2	2	1	2	"B"	2.628125	"Y"
"single"	3	0	2	5	6	1	2	1	2	1	"A"	4.500781	"Y"
"single"	3	0	2	5	7	1	2	1	1	1	"A"	3.900156	"Y"
"single"	3	0	2	5	8	2	1	1	2	1	"A"	8.571875	"Y"
"single"	3	0	2	5	9	2	1	2	2	2	"B"	2.140312	"Y"
"single"	3	0	2	5	10	1	2	2	2	2	"B"	2.258437	"Y"
"single"	3	0	2	5	11	2	2	2	2	1	"B"	3.188594	"Y"
"single"	3	0	2	5	12	1	1	2	1	2	"A"	4.719844	"Y"
"single"	3	0	2	5	13	2	2	2	2	2	"B"	1.87125	"Y"
"single"	3	0	2	5	14	1	1	1	2	1	"A"	2.800313	"Y"
"single"	3	0	2	5	15	2	1	2	1	1	"A"	5.708906	"Y"
"single"	3	0	2	5	16	1	2	2	1	1	"A"	3.068125	"Y"
"single"	3	0	2	5	17	2	2	1	1	1	"A"	3.081875	"Y"
"single"	3	0	2	5	18	2	2	1	1	2	"B"	4.44	"Y"
"single"	3	0	2	5	19	2	1	1	1	2	"A"	3.069531	"Y"
"single"	3	0	2	5	20	1	2	1	2	2	"B"	2.751875	"Y"
"single"	3	0	2	5	21	2	2	1	2	1	"B"	3.128125	"Y"
"single"	3	0	2	5	22	2	1	2	1	2	"B"	2.629375	"Y"
"single"	3	0	2	5	23	2	2	2	1	1	"B"	3.290625	"Y"
"single"	3	0	2	5	24	1	1	1	1	2	"A"	2.421719	"Y"
"single"	3	0	2	5	25	1	1	2	1	1	"A"	3.849219	"Y"
"single"	3	0	2	5	26	1	2	2	2	1	"B"	3.739531	"Y"
"single"	3	0	2	5	27	2	2	2	1	2	"B"	2.64	"Y"
"single"	3	0	2	5	28	1	2	1	1	2	"A"	2.798125	"Y"
"single"	3	0	2	5	29	1	1	1	2	2	"A"	3.74	"Y"
"single"	3	0	2	5	30	2	1	1	2	2	"B"	1.700469	"Y"
"single"	3	0	2	5	31	2	2	1	2	2	"B"	1.6	"Y"
"single"	3	0	2	5	32	2	1	1	1	1	"A"	1.701719	"Y"
"single"	3	0	2	6	1	1	1	2	2	1	"A"	5.390313	"Y"
"single"	3	0	2	6	2	2	1	2	2	1	"B"	2.861562	"Y"
"single"	3	0	2	6	3	1	1	2	2	2	"B"	4.290937	"Y"
"single"	3	0	2	6	4	1	1	1	1	1	"A"	1.869844	"Y"
"single"	3	0	2	6	5	1	2	2	1	2	"B"	2.421406	"Y"
"single"	3	0	2	6	6	1	2	1	2	1	"A"	3.899688	"Y"
"single"	3	0	2	6	7	1	2	1	1	1	"A"	2.369219	"Y"
"single"	3	0	2	6	8	2	1	1	2	1	"A"	1.981406	"Y"
"single"	3	0	2	6	9	2	1	2	2	2	"B"	1.378906	"Y"
"single"	3	0	2	6	10	1	2	2	2	2	"B"	2.46875	"Y"
"single"	3	0	2	6	11	2	2	2	2	1	"B"	2.630156	"Y"
"single"	3	0	2	6	12	1	1	2	1	2	"A"	4.878281	"Y"
"single"	3	0	2	6	13	2	2	2	2	2	"B"	1.370312	"Y"
"single"	3	0	2	6	14	1	1	1	2	1	"A"	1.919375	"Y"
"single"	3	0	2	6	15	2	1	2	1	1	"A"	3.461562	"Y"
"single"	3	0	2	6	16	1	2	2	1	1	"A"	4.178594	"Y"
"single"	3	0	2	6	17	2	2	1	1	1	"A"	1.758281	"Y"
"single"	3	0	2	6	18	2	2	1	1	2	"B"	2.249219	"Y"
"single"	3	0	2	6	19	2	1	1	1	2	"A"	2.201875	"Y"
"single"	3	0	2	6	20	1	2	1	2	2	"B"	1.271406	"Y"
"single"	3	0	2	6	21	2	2	1	2	1	"B"	3.569844	"Y"
"single"	3	0	2	6	22	2	1	2	1	2	"B"	3.019687	"Y"
"single"	3	0	2	6	23	2	2	2	1	1	"A"	3.349531	"N"
"single"	3	0	2	6	24	1	1	1	1	2	"A"	3.018906	"Y"
"single"	3	0	2	6	25	1	1	2	1	1	"A"	2.53125	"Y"
"single"	3	0	2	6	26	1	2	2	2	1	"B"	2.690156	"Y"
"single"	3	0	2	6	27	2	2	2	1	2	"B"	2.141406	"Y"
"single"	3	0	2	6	28	1	2	1	1	2	"A"	2.408437	"Y"
"single"	3	0	2	6	29	1	1	1	2	2	"A"	4.219219	"Y"
"single"	3	0	2	6	30	2	1	1	2	2	"B"	1.971406	"Y"
"single"	3	0	2	6	31	2	2	1	2	2	"B"	1.369688	"Y"
"single"	3	0	2	6	32	2	1	1	1	1	"A"	2.57875	"Y"
"single"	3	0	2	7	1	1	1	2	2	1	"A"	5.540625	"Y"
"single"	3	0	2	7	2	2	1	2	2	1	"B"	2.751719	"Y"
"single"	3	0	2	7	3	1	1	2	2	2	"B"	2.199687	"Y"
"single"	3	0	2	7	4	1	1	1	1	1	"A"	1.709844	"Y"
"single"	3	0	2	7	5	1	2	2	1	2	"B"	3.241563	"Y"
"single"	3	0	2	7	6	1	2	1	2	1	"A"	1.75875	"Y"
"single"	3	0	2	7	7	1	2	1	1	1	"A"	1.811094	"Y"
"single"	3	0	2	7	8	2	1	1	2	1	"A"	1.151875	"Y"
"single"	3	0	2	7	9	2	1	2	2	2	"B"	1.480469	"Y"
"single"	3	0	2	7	10	1	2	2	2	2	"B"	1.97875	"Y"
"single"	3	0	2	7	11	2	2	2	2	1	"B"	2.248437	"Y"
"single"	3	0	2	7	12	1	1	2	1	2	"A"	3.301094	"Y"
"single"	3	0	2	7	13	2	2	2	2	2	"B"	1.259063	"Y"
"single"	3	0	2	7	14	1	1	1	2	1	"A"	2.480625	"Y"
"single"	3	0	2	7	15	2	1	2	1	1	"A"	1.098125	"Y"
"single"	3	0	2	7	16	1	2	2	1	1	"A"	2.419844	"Y"
"single"	3	0	2	7	17	2	2	1	1	1	"A"	1.748125	"Y"
"single"	3	0	2	7	18	2	2	1	1	2	"A"	1.918281	"N"
"single"	3	0	2	7	19	2	1	1	1	2	"A"	1.700469	"Y"
"single"	3	0	2	7	20	1	2	1	2	2	"B"	2.248281	"Y"
"single"	3	0	2	7	21	2	2	1	2	1	"B"	3.568438	"Y"
"single"	3	0	2	7	22	2	1	2	1	2	"B"	2.2	"Y"
"single"	3	0	2	7	23	2	2	2	1	1	"B"	2.850938	"Y"
"single"	3	0	2	7	24	1	1	1	1	2	"A"	2.309531	"Y"
"single"	3	0	2	7	25	1	1	2	1	1	"A"	2.418906	"Y"
"single"	3	0	2	7	26	1	2	2	2	1	"B"	3.351094	"Y"
"single"	3	0	2	7	27	2	2	2	1	2	"B"	2.748281	"Y"
"single"	3	0	2	7	28	1	2	1	1	2	"A"	2.800937	"Y"
"single"	3	0	2	7	29	1	1	1	2	2	"A"	1.860312	"Y"
"single"	3	0	2	7	30	2	1	1	2	2	"B"	2.081875	"Y"
"single"	3	0	2	7	31	2	2	1	2	2	"B"	1.150781	"Y"
"single"	3	0	2	7	32	2	1	1	1	1	"A"	0.8785937	"Y"
"single"	3	0	2	8	1	1	1	2	2	1	"A"	2.968906	"Y"
"single"	3	0	2	8	2	2	1	2	2	1	"B"	2.030313	"Y"
"single"	3	0	2	8	3	1	1	2	2	2	"B"	2.361719	"Y"
"single"	3	0	2	8	4	1	1	1	1	1	"A"	1.26	"Y"
"single"	3	0	2	8	5	1	2	2	1	2	"B"	2.408437	"Y"
"single"	3	0	2	8	6	1	2	1	2	1	"A"	1.978438	"Y"
"single"	3	0	2	8	7	1	2	1	1	1	"A"	1.59125	"Y"
"single"	3	0	2	8	8	2	1	1	2	1	"A"	1.809062	"Y"
"single"	3	0	2	8	9	2	1	2	2	2	"B"	1.479219	"Y"
"single"	3	0	2	8	10	1	2	2	2	2	"B"	1.479687	"Y"
"single"	3	0	2	8	11	2	2	2	2	1	"B"	2.909375	"Y"
"single"	3	0	2	8	12	1	1	2	1	2	"A"	3.411094	"Y"
"single"	3	0	2	8	13	2	2	2	2	2	"B"	1.641094	"Y"
"single"	3	0	2	8	14	1	1	1	2	1	"A"	1.370625	"Y"
"single"	3	0	2	8	15	2	1	2	1	1	"A"	1.421094	"Y"
"single"	3	0	2	8	16	1	2	2	1	1	"A"	4.010781	"Y"
"single"	3	0	2	8	17	2	2	1	1	1	"A"	2.358438	"Y"
"single"	3	0	2	8	18	2	2	1	1	2	"A"	1.969219	"N"
"single"	3	0	2	8	19	2	1	1	1	2	"A"	2.581406	"Y"
"single"	3	0	2	8	20	1	2	1	2	2	"B"	2.358125	"Y"
"single"	3	0	2	8	21	2	2	1	2	1	"B"	2.638125	"Y"
"single"	3	0	2	8	22	2	1	2	1	2	"B"	3.020156	"Y"
"single"	3	0	2	8	23	2	2	2	1	1	"B"	2.470781	"Y"
"single"	3	0	2	8	24	1	1	1	1	2	"A"	3.250781	"Y"
"single"	3	0	2	8	25	1	1	2	1	1	"A"	2.580156	"Y"
"single"	3	0	2	8	26	1	2	2	2	1	"B"	2.801406	"Y"
"single"	3	0	2	8	27	2	2	2	1	2	"B"	1.379375	"Y"
"single"	3	0	2	8	28	1	2	1	1	2	"A"	4.448438	"Y"
"single"	3	0	2	8	29	1	1	1	2	2	"A"	1.810156	"Y"
"single"	3	0	2	8	30	2	1	1	2	2	"B"	3.350312	"Y"
"single"	3	0	2	8	31	2	2	1	2	2	"B"	1.588906	"Y"
"single"	3	0	2	8	32	2	1	1	1	1	"A"	2.469219	"Y"
"single"	4	0	1	1	1	0	0	2	0	0	"B"	0.8785937	"Y"
"single"	4	0	1	1	2	0	0	1	0	0	"B"	1.268438	"N"
"single"	4	0	1	1	3	0	0	1	0	0	"A"	0.9915625	"Y"
"single"	4	0	1	1	4	0	0	1	0	0	"A"	0.8189062	"Y"
"single"	4	0	1	1	5	0	0	1	0	0	"A"	0.66125	"Y"
"single"	4	0	1	1	6	0	0	2	0	0	"B"	1.04125	"Y"
"single"	4	0	1	1	7	0	0	2	0	0	"B"	0.5984375	"Y"
"single"	4	0	1	1	8	0	0	2	0	0	"B"	0.7617188	"Y"
"single"	4	0	1	1	9	0	0	2	0	0	"B"	0.7109375	"Y"
"single"	4	0	1	1	10	0	0	2	0	0	"B"	0.5501562	"Y"
"single"	4	0	1	1	11	0	0	1	0	0	"A"	0.598125	"Y"
"single"	4	0	1	1	12	0	0	2	0	0	"B"	0.5414063	"Y"
"single"	4	0	1	1	13	0	0	2	0	0	"A"	0.659375	"N"
"single"	4	0	1	1	14	0	0	1	0	0	"A"	0.821875	"Y"
"single"	4	0	1	1	15	0	0	2	0	0	"B"	0.9403125	"Y"
"single"	4	0	1	1	16	0	0	2	0	0	"B"	1.761562	"Y"
"single"	4	0	1	1	17	0	0	2	0	0	"B"	0.6585938	"Y"
"single"	4	0	1	1	18	0	0	1	0	0	"A"	0.8310937	"Y"
"single"	4	0	1	1	19	0	0	2	0	0	"B"	0.6017187	"Y"
"single"	4	0	1	1	20	0	0	1	0	0	"A"	0.7189062	"Y"
"single"	4	0	1	1	21	0	0	1	0	0	"A"	0.5989063	"Y"
"single"	4	0	1	1	22	0	0	2	0	0	"B"	0.5482813	"Y"
"single"	4	0	1	1	23	0	0	2	0	0	"B"	0.609375	"Y"
"single"	4	0	1	1	24	0	0	2	0	0	"B"	0.54875	"Y"
"single"	4	0	1	1	25	0	0	1	0	0	"A"	0.550625	"Y"
"single"	4	0	1	1	26	0	0	1	0	0	"A"	0.6085938	"Y"
"single"	4	0	1	1	27	0	0	1	0	0	"A"	0.601875	"Y"
"single"	4	0	1	1	28	0	0	1	0	0	"A"	0.49125	"Y"
"single"	4	0	1	1	29	0	0	1	0	0	"A"	0.6117188	"Y"
"single"	4	0	1	1	30	0	0	2	0	0	"B"	0.4910938	"Y"
"single"	4	0	1	1	31	0	0	1	0	0	"A"	0.5398437	"Y"
"single"	4	0	1	1	32	0	0	1	0	0	"A"	0.4417188	"Y"
"single"	4	0	1	2	1	0	0	2	0	0	"B"	0.8809375	"Y"
"single"	4	0	1	2	2	0	0	1	0	0	"A"	0.4907812	"Y"
"single"	4	0	1	2	3	0	0	2	0	0	"B"	0.39125	"Y"
"single"	4	0	1	2	4	0	0	2	0	0	"B"	0.5507813	"Y"
"single"	4	0	1	2	5	0	0	2	0	0	"B"	0.43875	"Y"
"single"	4	0	1	2	6	0	0	1	0	0	"A"	0.49	"Y"
"single"	4	0	1	2	7	0	0	1	0	0	"A"	0.53875	"Y"
"single"	4	0	1	2	8	0	0	1	0	0	"A"	0.4992188	"Y"
"single"	4	0	1	2	9	0	0	1	0	0	"A"	0.601875	"Y"
"single"	4	0	1	2	10	0	0	1	0	0	"A"	0.43125	"Y"
"single"	4	0	1	2	11	0	0	2	0	0	"B"	0.9285938	"Y"
"single"	4	0	1	2	12	0	0	1	0	0	"A"	0.6615625	"Y"
"single"	4	0	1	2	13	0	0	2	0	0	"B"	0.6609375	"Y"
"single"	4	0	1	2	14	0	0	2	0	0	"B"	0.4895312	"Y"
"single"	4	0	1	2	15	0	0	2	0	0	"B"	0.4407812	"Y"
"single"	4	0	1	2	16	0	0	2	0	0	"B"	0.438125	"Y"
"single"	4	0	1	2	17	0	0	1	0	0	"A"	0.4907812	"Y"
"single"	4	0	1	2	18	0	0	2	0	0	"B"	0.38875	"Y"
"single"	4	0	1	2	19	0	0	2	0	0	"B"	0.3807813	"Y"
"single"	4	0	1	2	20	0	0	1	0	0	"A"	2.028125	"Y"
"single"	4	0	1	2	21	0	0	2	0	0	"B"	1.049531	"Y"
"single"	4	0	1	2	22	0	0	1	0	0	"A"	0.5989063	"Y"
"single"	4	0	1	2	23	0	0	1	0	0	"A"	0.55	"Y"
"single"	4	0	1	2	24	0	0	1	0	0	"A"	0.501875	"Y"
"single"	4	0	1	2	25	0	0	2	0	0	"B"	0.550625	"Y"
"single"	4	0	1	2	26	0	0	2	0	0	"B"	0.4385937	"Y"
"single"	4	0	1	2	27	0	0	1	0	0	"A"	0.5498437	"Y"
"single"	4	0	1	2	28	0	0	2	0	0	"B"	0.5985938	"Y"
"single"	4	0	1	2	29	0	0	2	0	0	"B"	0.441875	"Y"
"single"	4	0	1	2	30	0	0	1	0	0	"A"	0.4892187	"Y"
"single"	4	0	1	2	31	0	0	1	0	0	"A"	0.7696875	"Y"
"single"	4	0	1	2	32	0	0	1	0	0	"A"	0.6596875	"Y"
"single"	4	0	1	3	1	2	0	0	0	0	"A"	1.651094	"N"
"single"	4	0	1	3	2	1	0	0	0	0	"A"	1.161406	"Y"
"single"	4	0	1	3	3	2	0	0	0	0	"B"	0.66	"Y"
"single"	4	0	1	3	4	2	0	0	0	0	"A"	0.3785937	"N"
"single"	4	0	1	3	5	2	0	0	0	0	"B"	0.4998437	"Y"
"single"	4	0	1	3	6	1	0	0	0	0	"A"	0.5985938	"Y"
"single"	4	0	1	3	7	1	0	0	0	0	"A"	0.8796875	"Y"
"single"	4	0	1	3	8	1	0	0	0	0	"A"	0.6017187	"Y"
"single"	4	0	1	3	9	1	0	0	0	0	"A"	0.6089063	"Y"
"single"	4	0	1	3	10	1	0	0	0	0	"A"	0.4882813	"Y"
"single"	4	0	1	3	11	2	0	0	0	0	"B"	0.6009375	"Y"
"single"	4	0	1	3	12	1	0	0	0	0	"A"	0.548125	"Y"
"single"	4	0	1	3	13	2	0	0	0	0	"B"	0.99	"Y"
"single"	4	0	1	3	14	2	0	0	0	0	"A"	0.5004687	"N"
"single"	4	0	1	3	15	2	0	0	0	0	"B"	1.86	"Y"
"single"	4	0	1	3	16	2	0	0	0	0	"B"	0.7707813	"Y"
"single"	4	0	1	3	17	1	0	0	0	0	"A"	0.6014063	"Y"
"single"	4	0	1	3	18	2	0	0	0	0	"B"	0.4985937	"Y"
"single"	4	0	1	3	19	2	0	0	0	0	"B"	0.66125	"Y"
"single"	4	0	1	3	20	1	0	0	0	0	"A"	0.5498437	"Y"
"single"	4	0	1	3	21	2	0	0	0	0	"B"	0.5517188	"Y"
"single"	4	0	1	3	22	1	0	0	0	0	"A"	0.7196875	"Y"
"single"	4	0	1	3	23	1	0	0	0	0	"A"	1.039688	"Y"
"single"	4	0	1	3	24	1	0	0	0	0	"A"	0.7715625	"Y"
"single"	4	0	1	3	25	2	0	0	0	0	"B"	0.5507813	"Y"
"single"	4	0	1	3	26	2	0	0	0	0	"B"	0.98875	"Y"
"single"	4	0	1	3	27	1	0	0	0	0	"A"	0.7692187	"Y"
"single"	4	0	1	3	28	2	0	0	0	0	"B"	0.7592188	"Y"
"single"	4	0	1	3	29	2	0	0	0	0	"B"	0.8784375	"Y"
"single"	4	0	1	3	30	1	0	0	0	0	"A"	0.6607813	"Y"
"single"	4	0	1	3	31	1	0	0	0	0	"A"	0.659375	"Y"
"single"	4	0	1	3	32	1	0	0	0	0	"A"	0.4401563	"Y"
"single"	4	0	1	4	1	2	0	0	0	0	"B"	0.9907812	"Y"
"single"	4	0	1	4	2	1	0	0	0	0	"A"	0.61125	"Y"
"single"	4	0	1	4	3	2	0	0	0	0	"B"	0.820625	"Y"
"single"	4	0	1	4	4	2	0	0	0	0	"B"	0.60125	"Y"
"single"	4	0	1	4	5	2	0	0	0	0	"B"	0.6584375	"Y"
"single"	4	0	1	4	6	1	0	0	0	0	"A"	0.6109375	"Y"
"single"	4	0	1	4	7	1	0	0	0	0	"A"	0.5503125	"Y"
"single"	4	0	1	4	8	1	0	0	0	0	"A"	0.6582813	"Y"
"single"	4	0	1	4	9	1	0	0	0	0	"A"	0.6107813	"Y"
"single"	4	0	1	4	10	1	0	0	0	0	"A"	0.6001562	"Y"
"single"	4	0	1	4	11	2	0	0	0	0	"B"	0.5995312	"Y"
"single"	4	0	1	4	12	1	0	0	0	0	"A"	0.610625	"Y"
"single"	4	0	1	4	13	2	0	0	0	0	"B"	0.5485938	"Y"
"single"	4	0	1	4	14	2	0	0	0	0	"B"	0.59875	"Y"
"single"	4	0	1	4	15	2	0	0	0	0	"B"	0.44125	"Y"
"single"	4	0	1	4	16	2	0	0	0	0	"B"	0.5010937	"Y"
"single"	4	0	1	4	17	1	0	0	0	0	"A"	0.5004687	"Y"
"single"	4	0	1	4	18	2	0	0	0	0	"B"	0.4984375	"Y"
"single"	4	0	1	4	19	2	0	0	0	0	"B"	0.6603125	"Y"
"single"	4	0	1	4	20	1	0	0	0	0	"A"	0.7110937	"Y"
"single"	4	0	1	4	21	2	0	0	0	0	"B"	0.4903125	"Y"
"single"	4	0	1	4	22	1	0	0	0	0	"A"	0.4882813	"Y"
"single"	4	0	1	4	23	1	0	0	0	0	"A"	0.54875	"Y"
"single"	4	0	1	4	24	1	0	0	0	0	"A"	0.4389063	"Y"
"single"	4	0	1	4	25	2	0	0	0	0	"B"	0.3801562	"Y"
"single"	4	0	1	4	26	2	0	0	0	0	"B"	0.39	"Y"
"single"	4	0	1	4	27	1	0	0	0	0	"A"	0.548125	"Y"
"single"	4	0	1	4	28	2	0	0	0	0	"B"	0.55	"Y"
"single"	4	0	1	4	29	2	0	0	0	0	"B"	0.551875	"Y"
"single"	4	0	1	4	30	1	0	0	0	0	"A"	0.598125	"Y"
"single"	4	0	1	4	31	1	0	0	0	0	"A"	0.6	"Y"
"single"	4	0	1	4	32	1	0	0	0	0	"A"	0.5510938	"Y"
"single"	4	0	1	5	1	0	0	0	0	2	"B"	1.651875	"Y"
"single"	4	0	1	5	2	0	0	0	0	1	"B"	0.8796875	"N"
"single"	4	0	1	5	3	0	0	0	0	2	"B"	0.8709375	"Y"
"single"	4	0	1	5	4	0	0	0	0	2	"B"	0.5507813	"Y"
"single"	4	0	1	5	5	0	0	0	0	2	"B"	0.43875	"Y"
"single"	4	0	1	5	6	0	0	0	0	1	"A"	0.8292187	"Y"
"single"	4	0	1	5	7	0	0	0	0	1	"A"	0.71125	"Y"
"single"	4	0	1	5	8	0	0	0	0	1	"A"	0.6604688	"Y"
"single"	4	0	1	5	9	0	0	0	0	1	"A"	0.6082813	"Y"
"single"	4	0	1	5	10	0	0	0	0	1	"A"	0.6107813	"Y"
"single"	4	0	1	5	11	0	0	0	0	2	"B"	0.7701563	"Y"
"single"	4	0	1	5	12	0	0	0	0	1	"A"	0.7707813	"Y"
"single"	4	0	1	5	13	0	0	0	0	2	"B"	0.6092188	"Y"
"single"	4	0	1	5	14	0	0	0	0	2	"B"	0.3785937	"Y"
"single"	4	0	1	5	15	0	0	0	0	2	"B"	0.8798438	"Y"
"single"	4	0	1	5	16	0	0	0	0	2	"B"	0.7696875	"Y"
"single"	4	0	1	5	17	0	0	0	0	1	"A"	0.6595312	"Y"
"single"	4	0	1	5	18	0	0	0	0	2	"B"	0.7095312	"Y"
"single"	4	0	1	5	19	0	0	0	0	2	"B"	0.4395312	"Y"
"single"	4	0	1	5	20	0	0	0	0	1	"A"	0.61	"Y"
"single"	4	0	1	5	21	0	0	0	0	2	"B"	0.659375	"Y"
"single"	4	0	1	5	22	0	0	0	0	1	"A"	0.599375	"Y"
"single"	4	0	1	5	23	0	0	0	0	1	"A"	0.661875	"Y"
"single"	4	0	1	5	24	0	0	0	0	1	"A"	0.6004688	"Y"
"single"	4	0	1	5	25	0	0	0	0	2	"B"	0.6115625	"Y"
"single"	4	0	1	5	26	0	0	0	0	2	"B"	0.5509375	"Y"
"single"	4	0	1	5	27	0	0	0	0	1	"A"	0.6003125	"Y"
"single"	4	0	1	5	28	0	0	0	0	2	"B"	0.6114063	"Y"
"single"	4	0	1	5	29	0	0	0	0	2	"B"	0.44	"Y"
"single"	4	0	1	5	30	0	0	0	0	1	"A"	0.65875	"Y"
"single"	4	0	1	5	31	0	0	0	0	1	"A"	0.65875	"Y"
"single"	4	0	1	5	32	0	0	0	0	1	"A"	0.71125	"Y"
"single"	4	0	1	6	1	0	0	0	0	1	"A"	0.7695313	"Y"
"single"	4	0	1	6	2	0	0	0	0	2	"B"	0.59875	"Y"
"single"	4	0	1	6	3	0	0	0	0	2	"B"	0.5498437	"Y"
"single"	4	0	1	6	4	0	0	0	0	1	"A"	0.7092187	"Y"
"single"	4	0	1	6	5	0	0	0	0	2	"B"	0.7184375	"Y"
"single"	4	0	1	6	6	0	0	0	0	1	"A"	0.5515625	"Y"
"single"	4	0	1	6	7	0	0	0	0	1	"A"	0.6095312	"Y"
"single"	4	0	1	6	8	0	0	0	0	1	"A"	0.4903125	"Y"
"single"	4	0	1	6	9	0	0	0	0	2	"B"	0.6607813	"Y"
"single"	4	0	1	6	10	0	0	0	0	2	"B"	0.609375	"Y"
"single"	4	0	1	6	11	0	0	0	0	2	"B"	0.4895312	"Y"
"single"	4	0	1	6	12	0	0	0	0	1	"A"	0.5514063	"Y"
"single"	4	0	1	6	13	0	0	0	0	2	"B"	0.6085938	"Y"
"single"	4	0	1	6	14	0	0	0	0	1	"A"	0.661875	"Y"
"single"	4	0	1	6	15	0	0	0	0	1	"A"	0.441875	"Y"
"single"	4	0	1	6	16	0	0	0	0	1	"A"	0.4984375	"Y"
"single"	4	0	1	6	17	0	0	0	0	1	"A"	0.6103125	"Y"
"single"	4	0	1	6	18	0	0	0	0	2	"B"	0.5410938	"Y"
"single"	4	0	1	6	19	0	0	0	0	1	"A"	0.7182813	"Y"
"single"	4	0	1	6	20	0	0	0	0	2	"B"	0.5482813	"Y"
"single"	4	0	1	6	21	0	0	0	0	2	"B"	0.4901563	"Y"
"single"	4	0	1	6	22	0	0	0	0	2	"B"	0.498125	"Y"
"single"	4	0	1	6	23	0	0	0	0	2	"B"	0.4407812	"Y"
"single"	4	0	1	6	24	0	0	0	0	1	"A"	0.708125	"Y"
"single"	4	0	1	6	25	0	0	0	0	1	"A"	0.49125	"Y"
"single"	4	0	1	6	26	0	0	0	0	2	"B"	0.55	"Y"
"single"	4	0	1	6	27	0	0	0	0	2	"B"	0.601875	"Y"
"single"	4	0	1	6	28	0	0	0	0	1	"A"	0.7104688	"Y"
"single"	4	0	1	6	29	0	0	0	0	1	"A"	0.7696875	"Y"
"single"	4	0	1	6	30	0	0	0	0	2	"B"	0.4989063	"Y"
"single"	4	0	1	6	31	0	0	0	0	2	"B"	0.9407812	"Y"
"single"	4	0	1	6	32	0	0	0	0	1	"A"	0.548125	"Y"
"single"	4	0	1	7	1	0	0	0	1	0	"B"	1.491406	"N"
"single"	4	0	1	7	2	0	0	0	2	0	"B"	0.661875	"Y"
"single"	4	0	1	7	3	0	0	0	2	0	"B"	0.7104688	"Y"
"single"	4	0	1	7	4	0	0	0	1	0	"A"	0.5504687	"Y"
"single"	4	0	1	7	5	0	0	0	2	0	"B"	0.4884375	"Y"
"single"	4	0	1	7	6	0	0	0	1	0	"A"	0.3810937	"Y"
"single"	4	0	1	7	7	0	0	0	1	0	"A"	0.5509375	"Y"
"single"	4	0	1	7	8	0	0	0	1	0	"A"	0.3889062	"Y"
"single"	4	0	1	7	9	0	0	0	2	0	"B"	0.4909375	"Y"
"single"	4	0	1	7	10	0	0	0	2	0	"B"	0.4982812	"Y"
"single"	4	0	1	7	11	0	0	0	2	0	"B"	0.4909375	"Y"
"single"	4	0	1	7	12	0	0	0	1	0	"A"	0.5982813	"Y"
"single"	4	0	1	7	13	0	0	0	2	0	"B"	0.6101562	"Y"
"single"	4	0	1	7	14	0	0	0	1	0	"A"	0.54875	"Y"
"single"	4	0	1	7	15	0	0	0	1	0	"A"	0.548125	"Y"
"single"	4	0	1	7	16	0	0	0	1	0	"A"	0.44	"Y"
"single"	4	0	1	7	17	0	0	0	1	0	"A"	0.39125	"Y"
"single"	4	0	1	7	18	0	0	0	2	0	"B"	0.819375	"Y"
"single"	4	0	1	7	19	0	0	0	1	0	"A"	0.65	"Y"
"single"	4	0	1	7	20	0	0	0	2	0	"B"	0.4385937	"Y"
"single"	4	0	1	7	21	0	0	0	2	0	"B"	0.5490625	"Y"
"single"	4	0	1	7	22	0	0	0	2	0	"B"	0.5509375	"Y"
"single"	4	0	1	7	23	0	0	0	2	0	"B"	0.3310938	"Y"
"single"	4	0	1	7	24	0	0	0	1	0	"A"	0.7117187	"Y"
"single"	4	0	1	7	25	0	0	0	1	0	"A"	0.4403125	"Y"
"single"	4	0	1	7	26	0	0	0	2	0	"B"	1.101563	"Y"
"single"	4	0	1	7	27	0	0	0	2	0	"B"	0.4895312	"Y"
"single"	4	0	1	7	28	0	0	0	1	0	"A"	0.88	"Y"
"single"	4	0	1	7	29	0	0	0	1	0	"A"	0.550625	"Y"
"single"	4	0	1	7	30	0	0	0	2	0	"B"	0.4985937	"Y"
"single"	4	0	1	7	31	0	0	0	2	0	"B"	0.38125	"Y"
"single"	4	0	1	7	32	0	0	0	1	0	"A"	0.5985938	"Y"
"single"	4	0	1	8	1	0	0	0	2	0	"B"	0.8304688	"Y"
"single"	4	0	1	8	2	0	0	0	1	0	"A"	0.5010937	"Y"
"single"	4	0	1	8	3	0	0	0	2	0	"B"	0.6598437	"Y"
"single"	4	0	1	8	4	0	0	0	2	0	"B"	0.4384375	"Y"
"single"	4	0	1	8	5	0	0	0	2	0	"B"	1.099687	"Y"
"single"	4	0	1	8	6	0	0	0	1	0	"A"	0.6107813	"Y"
"single"	4	0	1	8	7	0	0	0	1	0	"A"	0.4901563	"Y"
"single"	4	0	1	8	8	0	0	0	1	0	"A"	0.500625	"Y"
"single"	4	0	1	8	9	0	0	0	1	0	"A"	1.039375	"Y"
"single"	4	0	1	8	10	0	0	0	1	0	"A"	0.49125	"Y"
"single"	4	0	1	8	11	0	0	0	2	0	"B"	0.7217187	"Y"
"single"	4	0	1	8	12	0	0	0	1	0	"A"	0.7203125	"Y"
"single"	4	0	1	8	13	0	0	0	2	0	"B"	0.3817188	"Y"
"single"	4	0	1	8	14	0	0	0	2	0	"B"	0.4982812	"Y"
"single"	4	0	1	8	15	0	0	0	2	0	"B"	0.5509375	"Y"
"single"	4	0	1	8	16	0	0	0	2	0	"B"	0.3789063	"Y"
"single"	4	0	1	8	17	0	0	0	1	0	"A"	0.7709375	"Y"
"single"	4	0	1	8	18	0	0	0	2	0	"B"	0.5501562	"Y"
"single"	4	0	1	8	19	0	0	0	2	0	"B"	0.658125	"Y"
"single"	4	0	1	8	20	0	0	0	1	0	"A"	1.150625	"Y"
"single"	4	0	1	8	21	0	0	0	2	0	"B"	0.9292188	"Y"
"single"	4	0	1	8	22	0	0	0	1	0	"A"	0.9382812	"Y"
"single"	4	0	1	8	23	0	0	0	1	0	"A"	0.6595312	"Y"
"single"	4	0	1	8	24	0	0	0	1	0	"A"	0.488125	"Y"
"single"	4	0	1	8	25	0	0	0	2	0	"B"	0.5507813	"Y"
"single"	4	0	1	8	26	0	0	0	2	0	"B"	0.48875	"Y"
"single"	4	0	1	8	27	0	0	0	1	0	"A"	0.82	"Y"
"single"	4	0	1	8	28	0	0	0	2	0	"B"	0.600625	"Y"
"single"	4	0	1	8	29	0	0	0	2	0	"B"	0.5017188	"Y"
"single"	4	0	1	8	30	0	0	0	1	0	"A"	0.6604688	"Y"
"single"	4	0	1	8	31	0	0	0	1	0	"A"	0.6004688	"Y"
"single"	4	0	1	8	32	0	0	0	1	0	"A"	0.5515625	"Y"
"single"	4	0	1	9	1	0	2	0	0	0	"B"	1.041094	"Y"
"single"	4	0	1	9	2	0	1	0	0	0	"A"	0.7207813	"Y"
"single"	4	0	1	9	3	0	2	0	0	0	"B"	0.4407812	"Y"
"single"	4	0	1	9	4	0	2	0	0	0	"B"	0.718125	"Y"
"single"	4	0	1	9	5	0	2	0	0	0	"B"	0.500625	"Y"
"single"	4	0	1	9	6	0	1	0	0	0	"A"	0.4401563	"Y"
"single"	4	0	1	9	7	0	1	0	0	0	"A"	0.5514063	"Y"
"single"	4	0	1	9	8	0	1	0	0	0	"A"	0.439375	"Y"
"single"	4	0	1	9	9	0	1	0	0	0	"A"	0.500625	"Y"
"single"	4	0	1	9	10	0	1	0	0	0	"A"	0.439375	"Y"
"single"	4	0	1	9	11	0	2	0	0	0	"B"	0.440625	"Y"
"single"	4	0	1	9	12	0	1	0	0	0	"A"	0.491875	"Y"
"single"	4	0	1	9	13	0	2	0	0	0	"B"	0.440625	"Y"
"single"	4	0	1	9	14	0	2	0	0	0	"B"	0.381875	"Y"
"single"	4	0	1	9	15	0	2	0	0	0	"B"	0.33	"Y"
"single"	4	0	1	9	16	0	2	0	0	0	"B"	0.3298438	"Y"
"single"	4	0	1	9	17	0	1	0	0	0	"A"	0.5004687	"Y"
"single"	4	0	1	9	18	0	2	0	0	0	"B"	0.4892187	"Y"
"single"	4	0	1	9	19	0	2	0	0	0	"B"	0.331875	"Y"
"single"	4	0	1	9	20	0	1	0	0	0	"A"	0.4385937	"Y"
"single"	4	0	1	9	21	0	2	0	0	0	"B"	0.3898438	"Y"
"single"	4	0	1	9	22	0	1	0	0	0	"A"	0.441875	"Y"
"single"	4	0	1	9	23	0	1	0	0	0	"A"	0.4392188	"Y"
"single"	4	0	1	9	24	0	1	0	0	0	"A"	0.8204687	"Y"
"single"	4	0	1	9	25	0	2	0	0	0	"B"	0.6010938	"Y"
"single"	4	0	1	9	26	0	2	0	0	0	"B"	0.3790625	"Y"
"single"	4	0	1	9	27	0	1	0	0	0	"A"	0.4389063	"Y"
"single"	4	0	1	9	28	0	2	0	0	0	"B"	0.3784375	"Y"
"single"	4	0	1	9	29	0	2	0	0	0	"B"	0.3882813	"Y"
"single"	4	0	1	9	30	0	1	0	0	0	"A"	0.4995312	"Y"
"single"	4	0	1	9	31	0	1	0	0	0	"A"	0.6596875	"Y"
"single"	4	0	1	9	32	0	1	0	0	0	"A"	0.3782812	"Y"
"single"	4	0	2	1	1	2	2	1	2	1	"B"	10.42906	"Y"
"single"	4	0	2	1	2	2	1	1	1	2	"A"	6.040312	"Y"
"single"	4	0	2	1	3	2	2	2	1	1	"B"	9.509219	"Y"
"single"	4	0	2	1	4	2	1	1	2	2	"B"	6.920156	"Y"
"single"	4	0	2	1	5	1	2	2	2	2	"B"	7.470938	"Y"
"single"	4	0	2	1	6	1	1	1	1	2	"A"	7.958437	"Y"
"single"	4	0	2	1	7	1	2	1	1	2	"A"	6.321562	"Y"
"single"	4	0	2	1	8	1	2	1	2	1	"A"	9.229218	"Y"
"single"	4	0	2	1	9	2	2	1	1	1	"A"	3.348906	"Y"
"single"	4	0	2	1	10	1	2	1	1	1	"A"	3.401406	"Y"
"single"	4	0	2	1	11	2	1	2	1	2	"B"	4.071719	"Y"
"single"	4	0	2	1	12	1	1	2	1	2	"A"	3.681562	"Y"
"single"	4	0	2	1	13	1	2	1	2	2	"B"	5.380625	"Y"
"single"	4	0	2	1	14	2	2	1	2	2	"B"	8.350469	"Y"
"single"	4	0	2	1	15	2	2	1	1	2	"B"	5.599062	"Y"
"single"	4	0	2	1	16	1	2	2	1	2	"B"	8.630157	"Y"
"single"	4	0	2	1	17	1	1	2	2	1	"A"	6.759219	"Y"
"single"	4	0	2	1	18	1	1	2	2	2	"B"	5.161562	"Y"
"single"	4	0	2	1	19	2	2	2	2	2	"B"	4.991562	"Y"
"single"	4	0	2	1	20	1	1	2	1	1	"A"	4.949531	"Y"
"single"	4	0	2	1	21	1	2	2	2	1	"B"	4.499063	"Y"
"single"	4	0	2	1	22	2	1	2	1	1	"A"	3.729219	"Y"
"single"	4	0	2	1	23	1	2	2	1	1	"A"	5.539688	"Y"
"single"	4	0	2	1	24	1	1	1	1	1	"A"	2.961562	"Y"
"single"	4	0	2	1	25	2	1	2	2	2	"B"	3.849375	"Y"
"single"	4	0	2	1	26	2	2	2	2	1	"B"	7.801094	"Y"
"single"	4	0	2	1	27	2	1	1	2	1	"A"	6.750469	"Y"
"single"	4	0	2	1	28	2	2	2	1	2	"B"	5.431406	"Y"
"single"	4	0	2	1	29	2	1	2	2	1	"B"	3.741875	"Y"
"single"	4	0	2	1	30	1	1	1	2	2	"A"	7.311563	"Y"
"single"	4	0	2	1	31	2	1	1	1	1	"A"	5.048438	"Y"
"single"	4	0	2	1	32	1	1	1	2	1	"A"	5.771719	"Y"
"single"	4	0	2	2	1	1	1	2	2	1	"A"	6.538281	"Y"
"single"	4	0	2	2	2	2	1	2	2	1	"B"	13.68109	"Y"
"single"	4	0	2	2	3	1	1	2	2	2	"B"	9.611563	"Y"
"single"	4	0	2	2	4	1	1	1	1	1	"A"	3.678437	"Y"
"single"	4	0	2	2	5	1	2	2	1	2	"B"	9.551406	"Y"
"single"	4	0	2	2	6	1	2	1	2	1	"A"	7.690781	"Y"
"single"	4	0	2	2	7	1	2	1	1	1	"A"	4.72875	"Y"
"single"	4	0	2	2	8	2	1	1	2	1	"A"	6.980156	"Y"
"single"	4	0	2	2	9	2	1	2	2	2	"B"	6.808437	"Y"
"single"	4	0	2	2	10	1	2	2	2	2	"B"	3.408594	"Y"
"single"	4	0	2	2	11	2	2	2	2	1	"B"	10.81859	"Y"
"single"	4	0	2	2	12	1	1	2	1	2	"A"	3.960156	"Y"
"single"	4	0	2	2	13	2	2	2	2	2	"B"	3.021875	"Y"
"single"	4	0	2	2	14	1	1	1	2	1	"A"	3.191719	"Y"
"single"	4	0	2	2	15	2	1	2	1	1	"A"	6.480469	"Y"
"single"	4	0	2	2	16	1	2	2	1	1	"A"	8.120156	"Y"
"single"	4	0	2	2	17	2	2	1	1	1	"A"	3.239219	"Y"
"single"	4	0	2	2	18	2	2	1	1	2	"B"	5.881094	"Y"
"single"	4	0	2	2	19	2	1	1	1	2	"A"	10.33094	"Y"
"single"	4	0	2	2	20	1	2	1	2	2	"B"	9.500781	"Y"
"single"	4	0	2	2	21	2	2	1	2	1	"B"	10.55094	"Y"
"single"	4	0	2	2	22	2	1	2	1	2	"B"	3.298125	"Y"
"single"	4	0	2	2	23	2	2	2	1	1	"B"	3.401406	"Y"
"single"	4	0	2	2	24	1	1	1	1	2	"A"	3.411719	"Y"
"single"	4	0	2	2	25	1	1	2	1	1	"A"	3.401719	"Y"
"single"	4	0	2	2	26	1	2	2	2	1	"B"	5.769531	"Y"
"single"	4	0	2	2	27	2	2	2	1	2	"B"	3.61875	"Y"
"single"	4	0	2	2	28	1	2	1	1	2	"A"	4.008594	"Y"
"single"	4	0	2	2	29	1	1	1	2	2	"A"	4.059531	"Y"
"single"	4	0	2	2	30	2	1	1	2	2	"B"	3.461094	"Y"
"single"	4	0	2	2	31	2	2	1	2	2	"B"	3.900312	"Y"
"single"	4	0	2	2	32	2	1	1	1	1	"A"	4.339844	"Y"
"single"	4	0	2	3	1	1	1	2	2	1	"A"	9.01125	"Y"
"single"	4	0	2	3	2	2	1	2	2	1	"B"	4.071406	"Y"
"single"	4	0	2	3	3	1	1	2	2	2	"B"	6.09125	"Y"
"single"	4	0	2	3	4	1	1	1	1	1	"A"	3.900781	"Y"
"single"	4	0	2	3	5	1	2	2	1	2	"B"	6.419375	"Y"
"single"	4	0	2	3	6	1	2	1	2	1	"A"	10.71156	"Y"
"single"	4	0	2	3	7	1	2	1	1	1	"A"	8.510781	"Y"
"single"	4	0	2	3	8	2	1	1	2	1	"A"	5.329219	"Y"
"single"	4	0	2	3	9	2	1	2	2	2	"B"	3.679844	"Y"
"single"	4	0	2	3	10	1	2	2	2	2	"B"	4.500312	"Y"
"single"	4	0	2	3	11	2	2	2	2	1	"B"	6.260469	"Y"
"single"	4	0	2	3	12	1	1	2	1	2	"A"	7.581406	"Y"
"single"	4	0	2	3	13	2	2	2	2	2	"B"	3.188125	"Y"
"single"	4	0	2	3	14	1	1	1	2	1	"A"	4.449375	"Y"
"single"	4	0	2	3	15	2	1	2	1	1	"A"	5.439531	"Y"
"single"	4	0	2	3	16	1	2	2	1	1	"A"	4.668281	"Y"
"single"	4	0	2	3	17	2	2	1	1	1	"A"	9.778281	"Y"
"single"	4	0	2	3	18	2	2	1	1	2	"B"	2.529687	"Y"
"single"	4	0	2	3	19	2	1	1	1	2	"A"	5.001094	"Y"
"single"	4	0	2	3	20	1	2	1	2	2	"B"	5.870625	"Y"
"single"	4	0	2	3	21	2	2	1	2	1	"B"	9.559688	"Y"
"single"	4	0	2	3	22	2	1	2	1	2	"B"	3.789844	"Y"
"single"	4	0	2	3	23	2	2	2	1	1	"B"	4.880938	"Y"
"single"	4	0	2	3	24	1	1	1	1	2	"A"	3.408281	"Y"
"single"	4	0	2	3	25	1	1	2	1	1	"A"	8.24	"Y"
"single"	4	0	2	3	26	1	2	2	2	1	"B"	12.12938	"Y"
"single"	4	0	2	3	27	2	2	2	1	2	"B"	5.211406	"Y"
"single"	4	0	2	3	28	1	2	1	1	2	"A"	5.431406	"Y"
"single"	4	0	2	3	29	1	1	1	2	2	"A"	2.73875	"Y"
"single"	4	0	2	3	30	2	1	1	2	2	"B"	4.559219	"Y"
"single"	4	0	2	3	31	2	2	1	2	2	"B"	2.301563	"Y"
"single"	4	0	2	3	32	2	1	1	1	1	"A"	4.560937	"Y"
"single"	4	0	2	4	1	1	1	2	2	1	"A"	13.46016	"Y"
"single"	4	0	2	4	2	2	1	2	2	1	"B"	5.331094	"Y"
"single"	4	0	2	4	3	1	1	2	2	2	"B"	3.521719	"Y"
"single"	4	0	2	4	4	1	1	1	1	1	"A"	4.058437	"Y"
"single"	4	0	2	4	5	1	2	2	1	2	"B"	3.4	"Y"
"single"	4	0	2	4	6	1	2	1	2	1	"A"	7.911719	"Y"
"single"	4	0	2	4	7	1	2	1	1	1	"A"	3.291719	"Y"
"single"	4	0	2	4	8	2	1	1	2	1	"A"	7.688906	"Y"
"single"	4	0	2	4	9	2	1	2	2	2	"B"	3.680938	"Y"
"single"	4	0	2	4	10	1	2	2	2	2	"B"	6.868594	"Y"
"single"	4	0	2	4	11	2	2	2	2	1	"B"	5.390781	"Y"
"single"	4	0	2	4	12	1	1	2	1	2	"A"	4.448906	"Y"
"single"	4	0	2	4	13	2	2	2	2	2	"B"	3.508437	"Y"
"single"	4	0	2	4	14	1	1	1	2	1	"A"	4.340781	"Y"
"single"	4	0	2	4	15	2	1	2	1	1	"A"	7.800313	"Y"
"single"	4	0	2	4	16	1	2	2	1	1	"A"	8.738281	"Y"
"single"	4	0	2	4	17	2	2	1	1	1	"A"	7.849375	"Y"
"single"	4	0	2	4	18	2	2	1	1	2	"B"	2.95875	"Y"
"single"	4	0	2	4	19	2	1	1	1	2	"A"	5.500469	"Y"
"single"	4	0	2	4	20	1	2	1	2	2	"B"	7.088438	"Y"
"single"	4	0	2	4	21	2	2	1	2	1	"B"	4.49875	"Y"
"single"	4	0	2	4	22	2	1	2	1	2	"B"	8.898907	"Y"
"single"	4	0	2	4	23	2	2	2	1	1	"B"	2.968437	"Y"
"single"	4	0	2	4	24	1	1	1	1	2	"A"	4.659844	"Y"
"single"	4	0	2	4	25	1	1	2	1	1	"A"	3.079844	"Y"
"single"	4	0	2	4	26	1	2	2	2	1	"B"	6.819687	"Y"
"single"	4	0	2	4	27	2	2	2	1	2	"B"	5.438125	"Y"
"single"	4	0	2	4	28	1	2	1	1	2	"A"	6.969375	"Y"
"single"	4	0	2	4	29	1	1	1	2	2	"A"	5.541563	"Y"
"single"	4	0	2	4	30	2	1	1	2	2	"B"	5.76875	"Y"
"single"	4	0	2	4	31	2	2	1	2	2	"B"	8.131875	"Y"
"single"	4	0	2	4	32	2	1	1	1	1	"A"	14.65922	"Y"
"single"	4	0	2	5	1	1	1	2	2	1	"A"	4.119219	"Y"
"single"	4	0	2	5	2	2	1	2	2	1	"B"	8.898281	"Y"
"single"	4	0	2	5	3	1	1	2	2	2	"B"	3.298594	"Y"
"single"	4	0	2	5	4	1	1	1	1	1	"A"	4.229688	"Y"
"single"	4	0	2	5	5	1	2	2	1	2	"B"	4.291875	"Y"
"single"	4	0	2	5	6	1	2	1	2	1	"A"	6.699062	"Y"
"single"	4	0	2	5	7	1	2	1	1	1	"A"	3.851719	"Y"
"single"	4	0	2	5	8	2	1	1	2	1	"A"	5.870313	"Y"
"single"	4	0	2	5	9	2	1	2	2	2	"B"	6.970156	"Y"
"single"	4	0	2	5	10	1	2	2	2	2	"B"	8.630157	"Y"
"single"	4	0	2	5	11	2	2	2	2	1	"B"	4.179219	"Y"
"single"	4	0	2	5	12	1	1	2	1	2	"A"	2.088281	"Y"
"single"	4	0	2	5	13	2	2	2	2	2	"B"	3.511094	"Y"
"single"	4	0	2	5	14	1	1	1	2	1	"A"	1.699531	"Y"
"single"	4	0	2	5	15	2	1	2	1	1	"A"	5.381875	"Y"
"single"	4	0	2	5	16	1	2	2	1	1	"A"	6.639219	"Y"
"single"	4	0	2	5	17	2	2	1	1	1	"A"	2.30875	"Y"
"single"	4	0	2	5	18	2	2	1	1	2	"B"	5.818906	"Y"
"single"	4	0	2	5	19	2	1	1	1	2	"A"	4.66875	"Y"
"single"	4	0	2	5	20	1	2	1	2	2	"B"	1.59875	"Y"
"single"	4	0	2	5	21	2	2	1	2	1	"B"	2.529063	"Y"
"single"	4	0	2	5	22	2	1	2	1	2	"B"	8.841875	"Y"
"single"	4	0	2	5	23	2	2	2	1	1	"B"	1.981406	"Y"
"single"	4	0	2	5	24	1	1	1	1	2	"A"	1.979687	"Y"
"single"	4	0	2	5	25	1	1	2	1	1	"A"	3.619375	"Y"
"single"	4	0	2	5	26	1	2	2	2	1	"B"	2.468437	"Y"
"single"	4	0	2	5	27	2	2	2	1	2	"B"	6.478437	"Y"
"single"	4	0	2	5	28	1	2	1	1	2	"A"	3.898906	"Y"
"single"	4	0	2	5	29	1	1	1	2	2	"A"	2.038438	"Y"
"single"	4	0	2	5	30	2	1	1	2	2	"B"	4.62125	"Y"
"single"	4	0	2	5	31	2	2	1	2	2	"B"	2.138906	"Y"
"single"	4	0	2	5	32	2	1	1	1	1	"A"	5.048438	"Y"
"single"	4	0	2	6	1	1	1	2	2	1	"B"	8.411094	"N"
"single"	4	0	2	6	2	2	1	2	2	1	"B"	10.33031	"Y"
"single"	4	0	2	6	3	1	1	2	2	2	"B"	5.490938	"Y"
"single"	4	0	2	6	4	1	1	1	1	1	"A"	1.918906	"Y"
"single"	4	0	2	6	5	1	2	2	1	2	"B"	7.911094	"Y"
"single"	4	0	2	6	6	1	2	1	2	1	"A"	9.448906	"Y"
"single"	4	0	2	6	7	1	2	1	1	1	"A"	9.119062	"Y"
"single"	4	0	2	6	8	2	1	1	2	1	"A"	5.548125	"Y"
"single"	4	0	2	6	9	2	1	2	2	2	"B"	5.6	"Y"
"single"	4	0	2	6	10	1	2	2	2	2	"B"	3.631094	"Y"
"single"	4	0	2	6	11	2	2	2	2	1	"B"	1.761562	"Y"
"single"	4	0	2	6	12	1	1	2	1	2	"A"	5.881719	"Y"
"single"	4	0	2	6	13	2	2	2	2	2	"B"	1.479063	"Y"
"single"	4	0	2	6	14	1	1	1	2	1	"A"	2.371875	"Y"
"single"	4	0	2	6	15	2	1	2	1	1	"A"	5.110156	"Y"
"single"	4	0	2	6	16	1	2	2	1	1	"A"	3.07875	"Y"
"single"	4	0	2	6	17	2	2	1	1	1	"A"	2.580781	"Y"
"single"	4	0	2	6	18	2	2	1	1	2	"B"	7.470625	"Y"
"single"	4	0	2	6	19	2	1	1	1	2	"A"	3.728906	"Y"
"single"	4	0	2	6	20	1	2	1	2	2	"B"	2.418594	"Y"
"single"	4	0	2	6	21	2	2	1	2	1	"B"	4.888594	"Y"
"single"	4	0	2	6	22	2	1	2	1	2	"B"	3.350625	"Y"
"single"	4	0	2	6	23	2	2	2	1	1	"B"	6.370625	"Y"
"single"	4	0	2	6	24	1	1	1	1	2	"A"	4.938281	"Y"
"single"	4	0	2	6	25	1	1	2	1	1	"A"	1.820156	"Y"
"single"	4	0	2	6	26	1	2	2	2	1	"B"	3.521719	"Y"
"single"	4	0	2	6	27	2	2	2	1	2	"B"	4.620937	"Y"
"single"	4	0	2	6	28	1	2	1	1	2	"A"	7.031719	"Y"
"single"	4	0	2	6	29	1	1	1	2	2	"A"	11.48141	"Y"
"single"	4	0	2	6	30	2	1	1	2	2	"B"	2.849688	"Y"
"single"	4	0	2	6	31	2	2	1	2	2	"B"	2.138281	"Y"
"single"	4	0	2	6	32	2	1	1	1	1	"A"	6.870937	"Y"
"single"	4	0	2	7	1	1	1	2	2	1	"A"	7.469219	"Y"
"single"	4	0	2	7	2	2	1	2	2	1	"B"	10.10844	"Y"
"single"	4	0	2	7	3	1	1	2	2	2	"B"	7.421719	"Y"
"single"	4	0	2	7	4	1	1	1	1	1	"A"	2.96	"Y"
"single"	4	0	2	7	5	1	2	2	1	2	"B"	3.191719	"Y"
"single"	4	0	2	7	6	1	2	1	2	1	"A"	8.340468	"Y"
"single"	4	0	2	7	7	1	2	1	1	1	"A"	2.801563	"Y"
"single"	4	0	2	7	8	2	1	1	2	1	"A"	3.460938	"Y"
"single"	4	0	2	7	9	2	1	2	2	2	"B"	6.151875	"Y"
"single"	4	0	2	7	10	1	2	2	2	2	"B"	2.030469	"Y"
"single"	4	0	2	7	11	2	2	2	2	1	"B"	2.358594	"Y"
"single"	4	0	2	7	12	1	1	2	1	2	"A"	1.810156	"Y"
"single"	4	0	2	7	13	2	2	2	2	2	"B"	1.590312	"Y"
"single"	4	0	2	7	14	1	1	1	2	1	"A"	1.650625	"Y"
"single"	4	0	2	7	15	2	1	2	1	1	"A"	4.280938	"Y"
"single"	4	0	2	7	16	1	2	2	1	1	"A"	4.99125	"Y"
"single"	4	0	2	7	17	2	2	1	1	1	"A"	4.230625	"Y"
"single"	4	0	2	7	18	2	2	1	1	2	"B"	1.978125	"Y"
"single"	4	0	2	7	19	2	1	1	1	2	"B"	5.110312	"N"
"single"	4	0	2	7	20	1	2	1	2	2	"B"	6.979688	"Y"
"single"	4	0	2	7	21	2	2	1	2	1	"B"	5.379375	"Y"
"single"	4	0	2	7	22	2	1	2	1	2	"B"	5.659219	"Y"
